b'echo: D dec: 68 
68\r
dumping data to serial\r
index, checksum,uptime mp,uptime nav,  errorflag mp,errorflag NAV,  accel x, accel y, accel z, accelworld x, accelworld y, accelworld z, accelhighg x, accelhighg y, accelhighg z, gyro x, gyro y, gyro z, euler x, euler y, euler z, quat w, quat x, quat y, quat z, altitude, presusre, verticalvel,filtered vvel, maxalt, altitudeagl, filtered alt, imutemp, barotemp,state,battstate,pyros fired checksum2\r
0, 101,0,0,1,0,0.000000,0.000000,0.000000,0.000000,0.000000,0.000000,0.000000,0.000000,0.000000,0.000000,0.000000,0.000000,0.000000,0.000000,57.295780,0.000000,0.000000,0.000000,0.000000,0.000000,0.000000,0.000000,0.000000,0.000000,0.000000,0.000000,0.000000,0.000000,0,0.000000,0, 202
1, 101,2650,0,1,0,0.000000,0.000000,0.000000,0.000000,0.000000,0.000000,0.000000,0.000000,0.000000,0.000000,0.000000,0.000000,0.000000,0.000000,57.295780,0.000000,0.000000,0.000000,0.000000,0.000000,0.000000,0.000000,0.000000,0.000000,0.000000,0.000000,0.000000,0.000000,0,0.000000,0, 202
2, 101,2650,1081740949,1,8913,8.867601,-1.544060,-0.011343,0.000000,-9.801000,0.120920,7.910451,2.087523,10.666296,-0.215726,4.851859,562.212104,-5.521184,29.265161,55.314051,0.046251,-0.061762,0.249050,0.000000,19.605890,2005.245605,0.227661,0.000000,-0.050415,2005.296021,-0.232171,79866.132812,-0.209138,0,0.000000,0, 202
3, 101,2650,1083847683,1,13119,6.610802,-5.383659,-0.160257,0.000000,-9.801000,0.015954,6.468874,-1.276159,9.503252,33.391501,-5.838871,561.112061,0.314964,5.584552,57.225668,0.008101,0.002357,0.048735,0.000000,19.804623,2005.024292,0.227661,0.000000,-0.271729,2005.296021,0.307803,79872.250000,-0.576252,0,0.000000,0, 202
4, 101,2680,0,1,0,0.000000,0.000000,0.000000,0.000000,0.000000,0.000000,0.000000,0.000000,0.000000,0.000000,0.000000,0.000000,0.000000,0.000000,57.295780,0.000000,0.000000,0.000000,0.000000,0.000000,0.000000,0.000000,0.000000,0.000000,0.000000,0.000000,0.000000,0.000000,0,0.000000,0, 202
5, 101,2680,1084107608,1,6848,7.935133,-2.979144,-0.011618,0.000000,-9.801000,3.033923,8.390977,1.606997,11.901158,-0.405720,-0.217355,562.178828,-175.144178,-178.823983,57.157058,-0.054192,-0.041747,0.012518,0.000000,20.049562,1948.726929,0.000000,0.000000,-56.708008,2005.434937,938.769958,79866.257812,3791.662109,0,0.000000,0, 202
6, 101,0,0,1,0,0.000000,0.000000,0.000000,0.000000,0.000000,0.000000,0.000000,0.000000,0.000000,0.000000,0.000000,0.000000,0.000000,0.000000,57.295780,0.000000,0.000000,0.000000,0.000000,0.000000,0.000000,0.000000,0.000000,0.000000,0.000000,0.000000,0.000000,0.000000,0,0.000000,0, 202
7, 101,3343,0,1,0,0.000000,0.000000,0.000000,0.000000,0.000000,0.000000,0.000000,0.000000,0.000000,0.000000,0.000000,0.000000,0.000000,0.000000,57.295780,0.000000,0.000000,0.000000,0.000000,0.000000,0.000000,0.000000,0.000000,0.000000,0.000000,0.000000,0.000000,0.000000,0,0.000000,0, 202
8, 101,7547597,0,1150146043,0,0.000000,0.000000,0.070210,13.139618,13.725985,0.000000,-0.005371,2001.867798,3.960593,-46.967202,568.517516,-0.054124,0.000000,-561.555914,115.264701,-2.852130,2.575745,-0.756657,0.478979,16.500000,9.956553,2001.862427,0.000000,20.086535,0.228613,0.000000,0.031065,79898.484375,1,0.000000,15, 202
9, 101,3343,1032360108,1,11836,-0.716416,9.903760,-0.009003,0.000000,-9.801000,1.695052,-0.258488,12.178566,12.545179,0.776060,0.466290,568.939185,-178.357372,142.278851,-36.930536,0.625460,0.228803,0.213307,0.000000,20.229794,2001.962036,0.163940,0.000000,0.094238,2001.867798,0.331199,79900.265625,0.704779,0,0.000000,0, 202
10, 101,3343,1033641063,1,16282,-0.035725,9.936025,-0.007187,0.000000,-9.801000,1.650308,-0.258488,11.217514,11.499777,-0.761860,0.253713,569.312714,179.508764,137.367385,-35.327692,0.635089,0.246251,0.245668,0.000000,20.557886,2001.510254,0.323608,0.000000,-0.357544,2001.867798,-0.514771,79905.507812,-0.788701,0,0.000000,0, 202
11, 101,3343,1033511140,1,20636,-0.545885,9.933132,-0.007573,0.000000,-9.801000,1.618885,0.222038,13.620144,14.327636,-0.068132,0.527366,570.001635,178.224183,140.137696,-34.935185,0.653843,0.225327,0.233343,0.000000,20.862852,2001.387939,0.323608,0.000000,-0.479858,2001.867798,-0.181571,79907.421875,-0.978706,0,0.000000,0, 202
12, 101,0,0,1,0,0.000000,0.000000,0.000000,0.000000,0.000000,0.000000,0.000000,0.000000,0.000000,0.000000,0.000000,0.000000,0.000000,0.000000,57.295780,0.000000,0.000000,0.000000,0.000000,0.000000,0.000000,0.000000,0.000000,0.000000,0.000000,0.000000,0.000000,0.000000,0,0.000000,0, 202
13, 101,3365,0,1,0,0.000000,0.000000,0.000000,0.000000,0.000000,0.000000,0.000000,0.000000,0.000000,0.000000,0.000000,0.000000,0.000000,0.000000,57.295780,0.000000,0.000000,0.000000,0.000000,0.000000,0.000000,0.000000,0.000000,0.000000,0.000000,0.000000,0.000000,0.000000,0,0.000000,0, 202
14, 101,3365,1057131024,1,9612,7.815580,5.857340,-0.001557,0.000000,-9.801000,2.534123,9.832555,9.295410,14.398138,0.403026,0.642226,560.362544,178.376059,-174.380726,54.613827,-0.298034,0.028165,0.042536,0.000000,20.622578,2005.200073,0.479492,0.000000,-0.036499,2005.236572,-0.320566,79871.289062,0.294634,0,0.000000,0, 202
15, 101,-1426017501,16777216,-851482864,0,549755813888.000000,-128.000824,-483848941725943335780589884145664.000000,48.307781,0.000000,0.000000,-0.000000,952532531485780156163817472.000000,0.000003,204821101829921133509476352.000000,0.000000,0.000000,-2164573350259753939369984.000000,90640662.682547,-0.000000,1651688865792.000000,0.000000,-0.000000,1716529515737382912.000000,-1004851418993714707813618670463090688.000000,0.000000,-887115461945196544.000000,2048.000000,-0.000000,0.000000,0.000000,0.000000,-0.000000,620756992,0.000000,13, 202
16, 101,0,0,1,0,0.000000,0.000000,0.000000,0.000000,0.000000,0.000000,0.000000,0.000000,0.000000,0.000000,0.000000,0.000000,0.000000,0.000000,57.295780,0.000000,0.000000,0.000000,0.000000,0.000000,0.000000,0.000000,0.000000,0.000000,0.000000,0.000000,0.000000,0.000000,0,0.000000,0, 202
17, 101,3310,0,1,0,0.000000,0.000000,0.000000,0.000000,0.000000,0.000000,0.000000,0.000000,0.000000,0.000000,0.000000,0.000000,0.000000,0.000000,57.295780,0.000000,0.000000,0.000000,0.000000,0.000000,0.000000,0.000000,0.000000,0.000000,0.000000,0.000000,0.000000,0.000000,0,0.000000,0, 202
18, 101,3310,1068534595,1,9700,9.327741,2.546214,-0.002311,0.000000,-9.801000,2.942722,11.754659,4.970677,14.052963,0.057147,-1.100543,559.601989,167.159837,-177.232645,56.614748,-0.101479,0.112201,0.027279,0.000000,20.862852,2003.420898,0.000000,0.000000,-0.272217,2003.693115,-0.714601,79887.804688,-0.870608,0,0.000000,0, 202
19, 101,3310,1068437060,1,13950,9.341744,2.504154,-0.013504,0.000000,-9.801000,2.875953,10.313081,5.931729,12.699157,-0.054222,0.585226,559.652095,168.837113,-168.884022,56.327638,-0.121845,0.108716,0.082725,0.000000,20.992226,2003.285645,0.000000,0.000000,-0.407471,2003.693115,-0.364825,79886.960938,-0.162060,0,0.000000,0, 202
20, 101,3310,1068292685,1,18219,9.260591,2.631121,0.002582,0.000000,-9.801000,2.878431,11.274133,4.970677,13.267867,4.041552,-23.773698,556.993239,168.088811,-168.185294,56.263103,-0.120913,0.115922,0.087545,0.000000,21.093874,2003.701416,0.124634,0.000000,0.008301,2003.693115,1.278955,79880.046875,1.580918,0,0.000000,0, 202
21, 101,1195382716,-1505256442,-1941891565,-314471936,0.000000,-0.000000,0.000000,0.000000,0.000000,0.000000,-0.000000,-254524505741284110745215502963999506432.000000,1593213440.000000,0.000000,0.000000,-0.000000,0.000000,0.000000,33821458597808655302656.000000,0.000000,0.000000,0.000000,0.000000,0.000000,-0.000000,-37778931862957161709568.000000,131073.375000,103676510208.000000,0.000000,0.000000,-3165464.500000,0.000000,112972388,0.000000,98, 202
22, 101,3310,1068627772,1,24737,9.385038,2.354783,-0.005091,0.000000,-9.801000,2.889225,10.793607,5.451203,13.243905,-0.011348,-0.417387,560.085074,167.288873,-168.414843,56.283009,-0.113353,0.121881,0.085650,0.000000,21.260202,2003.355225,0.124634,0.000000,-0.337891,2003.693115,-0.549796,79885.921875,0.368298,0,0.000000,0, 202
23, 101,3310,1068445771,1,28992,9.482359,2.909167,0.007069,0.000000,-9.801000,2.865623,11.754659,5.931729,14.231686,-2.120770,17.339760,573.678134,167.139401,-165.488230,56.054024,-0.121577,0.127305,0.109032,0.000000,21.361845,2003.226562,0.124634,0.000000,-0.466553,2003.693115,-0.376195,79885.859375,-0.138792,0,0.000000,0, 202
24, 101,1879064063,16693,1073790631,1425883264,0.000000,-30735859712.000000,4709209743174779204387672686592.000000,0.000000,-804806013072898282422226931029114880.000000,8087.919434,0.000000,0.000000,0.000000,-0.000000,-1312.437679,0.000000,489660386979959453174222634729825370112.000000,0.000000,0.000000,0.000000,0.000000,0.000000,0.000000,0.000000,-0.000002,0.000000,-0.340370,0.000000,1759218604441600.000000,23963433714912854016.000000,-2950510673920.000000,0.000000,2052867322,1839238784.000000,125, 202
25, 101,3310,1068619646,1,35259,9.459796,2.027485,-0.005904,0.000000,-9.801000,2.918728,10.313081,4.970677,12.659018,-0.060765,0.584382,560.002402,166.777524,-168.571623,56.353756,-0.098522,0.124848,0.085551,0.000000,21.509686,2003.167725,0.124634,0.000000,-0.525391,2003.693115,0.411920,79890.296875,-0.489371,0,0.000000,0, 202
26, 101,1329594374,-632841211,742463497,1614908416,14193777022378967040.000000,0.000046,0.000000,0.000000,0.000000,0.000000,-0.000000,-0.000000,0.000023,0.000000,0.000000,0.000000,0.000000,0.000000,-11475085046.053574,0.000000,0.000000,0.000000,0.000000,0.000000,-238453647706056889114457800704.000000,-37778931862957161709568.000000,-8796256600064.000000,0.000000,-3546043148699074297856.000000,0.000000,-3165956.750000,0.000000,-2059699140,0.000000,184, 202
27, 101,3310,1068647407,1,42055,9.459566,2.009758,-0.005093,0.000000,-9.801000,2.927379,10.793607,4.970677,13.053469,0.470864,0.500662,559.806840,165.634396,-168.401838,56.308506,-0.092959,0.134399,0.086375,0.000000,21.652899,2003.652222,0.158081,0.000000,-0.040894,2003.693115,-0.123955,79883.070312,-0.245834,0,0.000000,0, 202
28, 101,3310,1068711857,1,46341,9.472548,1.967760,0.006210,0.000000,-9.801000,2.926009,11.274133,4.490152,13.095424,0.123338,1.054138,560.100483,165.108458,-168.167057,56.264387,-0.092828,0.139145,0.087749,0.000000,21.717575,2003.761963,0.323242,0.000000,0.068848,2003.693115,0.262740,79882.109375,-0.356227,0,0.000000,0, 202
29, 101,1055498240,0,1055498240,1096277881,0.000000,-9.801000,2.925869,0.000000,0.199093,-0.220847,100.000000,0.000000,0.000000,165.085672,-168.180308,56.263246,0.000000,0.000000,0.000000,0.000000,0.000000,0.000000,0.000000,0.000000,0.087602,0.000000,21.759153,0.000000,1.502722,2003.826416,0.139335,0.000000,1087086469,5.931729,97, 202
30, 101,3310,1068672675,1,52713,9.430259,1.973136,-0.000908,0.000000,-9.801000,2.925712,10.793607,5.451203,13.243905,0.171953,0.007340,557.776853,164.470122,-168.149258,56.224546,-0.092306,0.144625,0.087213,0.000000,21.814589,2003.809570,0.551758,0.000000,0.116455,2003.693115,-0.359638,79883.125000,0.010546,0,0.000000,0, 202
31, 101,3310,1068665678,1,56972,9.468991,1.951993,-0.008417,0.000000,-9.801000,2.928564,11.754659,4.490152,13.890269,-0.204729,-0.391169,559.676738,163.825502,-168.037420,56.186707,-0.090106,0.150090,0.087708,0.000000,21.870024,2004.177246,0.573242,0.000000,0.484131,2003.693115,0.493140,79877.523438,0.569078,0,0.000000,0, 202
32, 101,3310,1062317424,1,61345,8.555760,1.070397,-0.130309,0.000000,-9.801000,2.994310,8.871503,3.529100,10.336557,1.303226,-34.129554,496.254334,162.065636,-175.516792,56.424609,-0.066540,0.158170,0.027071,0.000000,21.906979,2004.382324,0.828369,0.000000,0.689209,2003.693115,-0.319948,79874.445312,-0.361647,0,0.000000,0, 202
33, 101,3330,0,1,0,0.000000,0.000000,0.000000,0.000000,0.000000,0.000000,0.000000,0.000000,0.000000,0.000000,0.000000,0.000000,0.000000,0.000000,57.295780,0.000000,0.000000,0.000000,0.000000,0.000000,0.000000,0.000000,0.000000,0.000000,0.000000,0.000000,0.000000,0.000000,0,0.000000,0, 202
34, 101,3330,1060020723,1,7613,8.883439,4.042581,-0.001751,0.000000,-9.801000,3.087088,11.274133,7.373307,14.513965,0.069824,-1.135884,560.572094,-176.806700,-161.099847,56.468152,-0.031442,-0.023003,0.164812,0.000000,21.542025,2005.108276,0.115967,0.000000,0.115967,2004.992310,133.407837,79866.742188,6.877958,0,0.000000,0, 202
35, 101,3330,1059886296,1,12277,8.888350,4.018764,0.002850,0.000000,-9.801000,2.730318,11.274133,6.412255,13.709363,-0.866747,0.629670,560.233535,179.591819,-174.713794,56.019005,-0.205010,0.013203,0.043210,0.000000,21.629801,2004.905029,0.372070,0.000000,-0.087280,2004.992310,-0.008550,79870.007812,-0.002712,0,0.000000,0, 202
36, 101,3330,1060037045,1,16474,8.890567,4.002224,-0.012447,0.000000,-9.801000,2.716441,10.313081,6.892781,13.175493,0.171003,-0.122518,559.995954,178.986951,-175.056218,55.956362,-0.210402,0.017732,0.040293,0.000000,21.694477,2004.715088,0.372070,0.000000,-0.277222,2004.992310,-0.645335,79877.890625,-0.010639,0,0.000000,0, 202
37, 101,3330,1059932241,1,20664,8.884457,3.996423,0.005486,0.000000,-9.801000,2.720484,11.754659,6.412255,14.265750,-0.310670,0.463060,559.516529,178.495984,-174.808269,55.975159,-0.208189,0.022287,0.041547,0.000000,21.759153,2004.572998,0.372070,0.000000,-0.419312,2004.992310,-0.662491,79873.007812,0.648521,0,0.000000,0, 202
38, 101,3330,1059910326,1,24990,8.891227,3.979018,-0.009070,0.000000,-9.801000,2.718862,10.313081,6.892781,13.345137,-0.754021,0.234143,559.457134,177.945197,-174.636981,55.960368,-0.208712,0.027326,0.041978,0.000000,21.796110,2004.373047,0.372070,0.000000,-0.619263,2004.992310,-0.427261,79877.789062,0.421904,0,0.000000,0, 202
39, 101,3330,1064449428,1,29189,7.726501,4.577315,-0.043650,0.000000,-9.801000,2.714955,9.352029,8.814884,13.597285,-5.600091,-9.382061,517.396447,178.074260,-171.352180,55.845112,-0.209834,0.032336,0.070128,0.000000,21.860785,2004.366211,0.372070,0.000000,-0.626099,2004.992310,0.479063,79874.859375,-1.022052,0,0.000000,0, 202
40, 101,-1425940954,16777216,-843207287,0,-0.000000,154744902987402116604100608.000000,-0.000000,0.000000,0.000000,0.000000,-23.866913,952531941189969797458165760.000000,-0.000000,876404995262013810616136296824832.000000,0.000000,-0.000000,-2164573350259753939369984.000000,0.000000,184741643922.809570,0.000000,0.000000,254520023328761703726051810621465296896.000000,-0.000000,-0.000000,0.000000,0.000000,0.000000,-0.000000,0.000000,0.000000,-7393778827967785693525812707328.000000,-3270400.250000,33554432,0.000000,13, 202
41, 101,3330,1061015646,1,35562,9.126851,3.648035,-0.007301,0.000000,-9.801000,2.754725,9.832555,6.892781,12.502017,-0.088096,1.840015,564.755448,179.334895,-174.952891,56.183432,-0.191032,0.014165,0.041886,0.000000,21.962414,2004.476074,0.372070,0.000000,-0.516235,2004.992310,-0.356356,79877.687500,-0.578652,0,0.000000,0, 202
42, 101,3330,1061011460,1,39835,9.061802,3.647464,0.005501,0.000000,-9.801000,2.754763,12.235185,6.892781,14.590973,-0.659446,2.766586,561.292925,178.529820,-174.997301,56.175301,-0.191463,0.020966,0.040362,0.000000,22.031704,2004.357910,0.372070,0.000000,-0.634399,2004.992310,-0.067045,79878.539062,-0.267583,0,0.000000,0, 202
43, 101,1916899328,-1044470624,4267080,4112000,-0.000000,0.000000,0.000000,-0.000000,0.000000,0.000000,0.000000,0.000000,0.000000,203902874465033777053696.000000,0.000000,0.000000,0.000000,0.000000,0.000000,0.000000,109550201673275670528.000000,-200653040.000000,-0.000000,0.000000,-3545260648263818674176.000000,-14815077784964273291673993216.000000,14829158002314330391582439636992.000000,0.000000,-0.000000,-0.000045,-0.000092,-7437770892409657755789426688.000000,994376341,0.000000,112, 202
44, 101,3330,1060997004,1,46354,9.068031,3.611307,-0.002845,0.000000,-9.801000,2.760075,10.313081,5.451203,12.660879,0.591169,-0.038012,560.851804,178.106472,-174.365987,56.189531,-0.188552,0.025521,0.045119,0.000000,22.133329,2004.684326,0.372070,0.000000,-0.307983,2004.992310,0.085902,79874.468750,-0.088588,0,0.000000,0, 202
45, 101,3330,1060864361,1,50642,8.891672,3.538944,0.008456,0.000000,-9.801000,2.757000,9.832555,7.373307,13.238859,-0.768243,13.714954,549.927381,177.353375,-174.274012,56.167043,-0.189692,0.032183,0.044606,0.000000,22.184141,2004.522949,0.372070,0.000000,-0.469360,2004.992310,-0.530244,79873.906250,-0.184596,0,0.000000,0, 202
46, 101,1027905084,0,1024083939,0,100.000000,0.000000,0.000000,-0.000520,-0.007382,-0.005720,0.000000,0.758377,9.145081,0.000000,0.000000,-42.626695,562.592136,1038.486004,4576848.191894,2004.044189,22.239571,-0.230619,0.372070,0.000000,0.000000,0.000000,0.981296,0.000000,0.000000,-3.035742,0.000000,0.000000,0,0.000000,0, 202
47, 101,3330,1061210910,1,56907,9.118094,3.492727,-0.003266,0.000000,-9.801000,2.773199,10.793607,6.412255,13.484864,0.251403,0.010180,561.106597,176.345212,-173.802578,56.233566,-0.181102,0.041199,0.047283,0.000000,22.285763,2004.075195,0.372070,0.000000,-0.917114,2004.992310,0.472494,79880.648438,-0.379039,0,0.000000,0, 202
48, 101,0,4376576,4015855,4181196,0.000000,0.000000,0.000000,-47.109127,103401941630976.000000,0.000000,0.747103,-0.000000,0.000000,-2437092933411483490609069588229197398016.000000,28485438013443474064382104407157768192.000000,-22906949822.972366,-13093660619967267321413632.000000,-216034616336655023475785728.000000,0.002691,-0.000000,0.000000,0.000000,-23.917374,0.000000,0.000000,0.000000,-117742772962121829852372795392.000000,0.000000,-170141183460469231731687303715884105728.000000,-0.000000,0.000000,0.000000,0,-200802768.000000,0, 202
49, 101,3330,1061131259,1,63289,9.113334,3.479427,-0.011075,0.000000,-9.801000,2.775808,10.313081,5.931729,13.272196,0.399761,0.221136,560.560346,175.129575,-173.222736,56.216985,-0.178923,0.052449,0.050356,0.000000,22.378143,2003.895996,0.372070,0.000000,-1.096313,2004.992310,0.050788,79882.742188,-0.517175,0,0.000000,0, 202
50, 101,3330,1061206287,1,67513,9.201344,3.466695,0.001511,0.000000,-9.801000,2.774477,10.313081,6.412255,12.773525,0.865769,-0.063498,565.023082,174.373363,-173.085941,56.193858,-0.179067,0.059163,0.050273,0.000000,22.433573,2004.153442,0.372070,0.000000,-0.838867,2004.992310,0.294255,79883.007812,-0.255744,0,0.000000,0, 202
51, 101,3330,1061345790,1,71749,9.149921,3.462219,0.001453,0.000000,-9.801000,2.772511,12.235185,5.931729,14.304150,-0.288898,-0.135259,562.221230,173.873694,-172.899258,56.175809,-0.179011,0.063751,0.051000,0.000000,22.507475,2004.271851,0.372070,0.000000,-0.720459,2004.992310,0.525774,79877.796875,0.680077,0,0.000000,0, 202
52, 101,3330,1061236572,1,76153,9.107580,3.460595,-0.004505,0.000000,-9.801000,2.775250,11.754659,7.373307,14.890303,-0.376911,-0.858230,559.897927,173.075341,-172.508298,56.155432,-0.177548,0.071133,0.053144,0.000000,22.558283,2004.056396,0.372070,0.000000,-0.935913,2004.992310,-0.214699,79879.187500,0.656825,0,0.000000,0, 202
53, 101,3330,1061191555,1,80403,9.117825,3.461349,-0.008569,0.000000,-9.801000,2.773831,11.274133,6.412255,13.561319,-0.794499,1.206495,560.448440,172.466019,-172.265253,56.126523,-0.177680,0.076750,0.054181,0.000000,22.646040,2003.855957,0.372070,0.000000,-1.136353,2004.992310,-0.700477,79883.375000,-0.638420,0,0.000000,0, 202
54, 101,0,-1103728094,0,1065005457,0.079406,0.054541,0.000000,0.000000,0.000000,0.000000,0.000000,0.000000,0.000000,0.000000,0.000000,0.000000,0.000000,0.000000,42.720531,9.133524,3.454860,-0.000791,-0.017029,0.000000,100.000000,0.000000,5.931729,0.000000,-1.055984,11.754659,0.000000,0.000000,1076976154,-3.004183,13, 202
55, 101,-1405246250,876634424,465450569,-352321536,0.000000,0.000000,0.000000,-787919.562500,-0.732628,-0.045903,0.125000,-0.000000,-205358071808.000000,0.000000,0.000000,-0.000000,6193135940283532312576.000000,0.000000,-0.000000,-0.000000,-0.000000,982231454255601946661029849071616.000000,0.000000,0.000000,-0.000000,0.000000,-0.000000,0.000000,0.000000,825712246784.000000,-400242944.000000,0.000000,0,0.000000,0, 202
56, 101,3330,1061247956,1,88985,9.141551,3.444801,0.001511,0.000000,-9.801000,2.776806,10.793607,6.412255,13.317000,0.732129,-1.081490,561.396580,171.833817,-172.193017,56.122295,-0.175737,0.082176,0.053892,0.000000,22.770744,2003.875000,0.372070,0.000000,-1.117310,2004.992310,0.309121,79883.460938,0.379178,0,0.000000,0, 202
57, 101,0,17096,15713,16204,0.000000,0.000000,0.000000,42146406701465600.000000,11983125209318856868706963837780230144.000000,0.000000,-6234016.500000,-0.000000,-9797200364991904648146190336.000000,-1.475758,-8866689351975107.000000,-0.000000,0.000000,-0.000000,-0.000000,-0.000000,-0.000000,0.000000,-0.000000,0.000000,0.000000,0.000000,-0.000000,0.000000,1383011137639135775863865344.000000,-0.000000,0.000000,0.000000,0,-107608064.000000,0, 202
58, 101,3330,1060742608,1,95420,9.030845,3.837078,-0.003237,0.000000,-9.801000,2.736757,11.754659,6.892781,14.331991,-0.859516,0.464575,563.731138,170.147744,-170.795437,55.817665,-0.192901,0.099918,0.061102,0.000000,22.853880,2004.341064,0.372070,0.000000,-0.651245,2004.992310,-0.102896,79874.976562,-0.704584,0,0.000000,0, 202
59, 101,0,0,0,1120403456,0.000000,0.000000,0.000000,0.015928,9.798530,18.500000,9.014736,3.768294,0.006097,-47.070730,-46.917181,0.000000,4576667.352090,114841.136980,1311.283213,-0.309389,0.372070,-0.636353,2004.992310,0.000000,0.000000,0.000000,0.103417,0.000000,0.000000,-0.204297,0.000000,0.000000,0,1.600000,223, 202
60, 101,3330,1061237889,1,101684,9.016938,3.672469,-0.003777,0.000000,-9.801000,2.734481,11.754659,6.412255,14.107182,-0.069686,0.501035,559.512540,169.577546,-171.473675,55.804449,-0.194148,0.103672,0.054192,0.000000,22.909302,2004.656860,0.372070,0.000000,-0.335449,2004.992310,-0.025836,79874.242188,0.694797,0,0.000000,0, 202
61, 101,1371247119,1648474001,-1707358116,-347800947,0.000000,0.000000,-23.885086,0.000000,0.000000,0.000000,0.000000,0.000000,0.000000,234402393194955010329836308144223944704.000000,-193779804910203616.000000,0.000001,-11475085046.053574,0.000000,0.000000,0.000000,0.000000,0.000000,0.000000,-37778931862957161709568.000000,0.000000,-48.046722,-14587681754724999597391872.000000,0.000000,-0.005867,-56445253440098789228544.000000,0.000000,0.000000,4267218,0.000000,0, 202
62, 101,3330,1061078834,1,108015,9.067845,3.625980,-0.002772,0.000000,-9.801000,2.749861,11.274133,6.892781,14.275852,0.927417,-0.189823,561.173806,168.728622,-170.656866,55.831920,-0.185187,0.111779,0.060452,0.000000,22.992434,2003.930908,0.372070,0.000000,-1.061401,2004.992310,0.165769,79884.460938,-0.375739,0,0.000000,0, 202
63, 101,-1614692562,0,1073757886,16728,-30735859712.000000,0.000000,-697553739692503186039373824.000000,7829010107009544783643638996402176.000000,85072917037056.000000,-410.492493,0.000000,0.000000,0.000000,-0.000000,445494024756708180492288.000000,377476123117317504.000000,0.000000,0.000000,0.000000,0.000000,0.000000,0.000000,0.000000,0.000000,0.000000,0.000000,-0.000000,0.000000,-107609088.000000,2537880064.000000,0.000000,0.000000,-1298317218,17892379569327380377307709440.000000,44, 202
64, 101,3330,1060961200,1,114431,8.954699,3.576723,-0.006208,0.000000,-9.801000,2.750440,11.754659,6.412255,14.265750,-0.314971,0.611018,554.096528,167.738723,-170.482970,55.787995,-0.183864,0.120428,0.060227,0.000000,23.061708,2003.868896,0.372070,0.000000,-1.123413,2004.992310,-0.317209,79880.328125,-0.355675,0,0.000000,0, 202
65, 101,1078654529,1201406766,1091712931,1100283904,2003.934326,23.061708,-1.126052,0.051931,0.000000,0.000000,-2.995725,0.977021,-0.168271,21.318059,-60.617984,114877.597295,0.000000,0.000000,114.903412,3.200000,100.000000,0.000000,0.000000,14.101031,6.892781,0.000000,0.000000,-9.801000,2.784427,0.000000,11.274133,0.000000,1017677229,9.705575,70, 202
66, 101,-1140673293,1102605175,-1140648660,1157266324,-0.596832,0.372070,-1.130493,0.000000,0.000000,0.000000,-0.161641,0.120135,0.059793,114877.597295,309.521579,673.492333,144.709633,229.183118,5729.577951,0.000000,0.000000,0.000000,0.000000,0.000000,0.000000,2.796387,9.229552,2.924309,-2.981402,0.794492,14.438576,-9.801000,1092403555,79885.539062,0, 202
67, 101,3330,1061827222,1,123846,9.215256,3.152107,0.007375,0.000000,-9.801000,2.801702,10.313081,6.412255,13.103406,0.583922,0.299081,559.860825,167.066933,-170.566776,56.010741,-0.158356,0.124443,0.061544,0.000000,23.126366,2004.172363,0.372070,0.000000,-0.819946,2004.992310,0.362150,79875.351562,0.837680,0,0.000000,0, 202
68, 101,3330,1061896835,1,128209,9.263993,3.161589,-0.012021,0.000000,-9.801000,2.798301,12.715711,5.931729,14.717278,0.841523,-1.220140,562.688961,166.284548,-170.193657,55.944601,-0.158906,0.131714,0.063294,0.000000,23.195639,2004.091553,0.372070,0.000000,-0.900757,2004.992310,-0.002630,79884.023438,-0.807017,0,0.000000,0, 202
69, 101,1102692342,1094456085,1157268982,1083055525,5.451203,13.697123,0.000000,0.000000,0.000000,0.000000,0.000000,2.005447,3.200000,0.000000,-561.555914,160.395217,0.000000,-34.777882,8.260950,0.000000,0.000000,0.000000,0.000000,-0.157641,0.975941,0.064711,18.875000,0.000000,0.000000,9.793946,-2.966185,0.136006,1052672000,2004.992310,0, 202
70, 101,3330,1061735875,1,134669,9.159144,3.155503,0.001557,0.000000,-9.801000,2.800079,9.832555,6.412255,12.728659,0.449781,-0.122712,556.867782,165.174642,-169.904958,55.883911,-0.156669,0.141472,0.064140,0.000000,23.260294,2004.680054,0.372070,0.000000,-0.312256,2004.992310,0.298996,79874.117188,0.366002,0,0.000000,0, 202
71, 101,3330,1061999173,1,138866,9.246188,3.150938,-0.013690,0.000000,-9.801000,2.800376,11.274133,7.373307,14.184332,-0.367266,0.121928,561.558647,164.571468,-169.593624,55.840686,-0.155556,0.146997,0.065866,0.000000,23.301857,2004.585938,0.372070,0.000000,-0.406372,2004.992310,-0.259580,79869.859375,-0.040946,0,0.000000,0, 202
72, 101,3330,1061579277,1,143028,9.242286,3.160748,0.010716,0.000000,-9.801000,2.799369,10.793607,6.892781,13.719875,0.528963,0.282222,561.413519,164.036651,-169.376233,55.797284,-0.155237,0.151852,0.066799,0.000000,23.329565,2004.351074,0.372070,0.000000,-0.641235,2004.992310,-0.371630,79878.843750,-0.407017,0,0.000000,0, 202
73, 101,3330,1061772602,1,147766,9.250364,3.193156,-0.008483,0.000000,-9.801000,2.790430,10.313081,5.451203,12.660879,-0.088427,0.020306,562.503890,163.199147,-169.023672,55.693520,-0.158257,0.159712,0.067757,0.000000,23.357273,2004.858398,0.372070,0.000000,-0.133911,2004.992310,0.770807,79872.054688,-0.104269,0,0.000000,0, 202
74, 101,3330,1061550206,1,151979,9.219893,3.181041,0.002363,0.000000,-9.801000,2.792207,11.274133,6.412255,14.050144,-0.187950,-0.332349,560.572586,162.946320,-168.963649,55.685795,-0.156862,0.161905,0.067737,0.000000,23.408072,2004.845703,0.372070,0.000000,-0.146606,2004.992310,0.112745,79873.414062,0.014282,0,0.000000,0, 202
75, 101,3330,1062302824,1,156179,8.810396,3.165110,0.009433,0.000000,-9.801000,2.788985,12.715711,7.373307,15.500889,0.027741,2.071713,538.429222,162.344335,-168.640062,55.618278,-0.157510,0.167499,0.069499,0.000000,23.440397,2005.114990,0.372070,0.000000,0.122681,2004.992310,-0.429583,79867.468750,0.140090,0,0.000000,0, 202
76, 101,-1497489390,0,-583043015,0,0.000000,0.000000,0.000000,-0.000000,-0.000001,-0.000000,0.000000,-0.000000,0.000000,0.000000,0.000000,0.000000,-46260603783579.007812,0.000000,0.000000,-0.000000,0.000000,0.000000,61396695267376417148779108499456.000000,-0.000000,-200572368.000000,0.000000,-0.000000,0.000000,0.000000,54098712275714048.000000,0.000000,0.000000,4035994,0.000000,0, 202
77, 101,1120403456,-1091911976,1085485876,-1103679363,0.000000,0.000000,0.000000,23.486576,-0.646422,0.372070,9.765644,19.125000,79869.953125,0.000000,0.000000,0.000000,-3.476075,114877.597295,309.521579,9.352029,6.412255,12.560291,0.000000,0.793706,0.000000,3.196818,0.000000,0.008070,0.006412,0.000000,0.000000,9.193377,0,0.000000,0, 202
78, 101,3330,1061782723,1,164767,9.252441,3.178335,-0.003278,0.000000,-9.801000,2.786644,10.793607,5.931729,12.937298,-0.012473,-0.282809,562.343244,160.738940,-168.064195,55.475534,-0.155993,0.181871,0.071521,0.000000,23.500431,2005.063232,0.372070,0.000000,0.070923,2004.992310,0.075360,79870.500000,0.655339,0,0.000000,0, 202
79, 101,826776576,-1522206049,-1790863104,-1044559872,0.000000,-0.000737,888863073555139526656.000000,0.000000,0.000000,0.000000,0.000000,0.000000,-0.000000,0.000000,0.000000,-2164573350259753939369984.000000,0.000000,0.000000,30760437400.939423,-0.000000,-198077504.000000,-0.000000,0.000000,0.000000,48.049931,0.000000,-0.183111,0.000000,0.000000,0.000000,0.000000,0.000000,-951993325,0.000000,78, 202
80, 101,3330,1061864936,1,171165,9.229111,3.196339,-0.010123,0.000000,-9.801000,2.782872,13.196237,6.892781,15.680360,-0.325481,0.501316,561.441550,160.016675,-167.595958,55.388115,-0.156223,0.188704,0.073917,0.000000,23.555845,2004.720215,0.372070,0.000000,-0.272095,2004.992310,-0.426817,79876.632812,-0.684791,0,0.000000,0, 202
81, 101,3330,1061933008,1,175480,9.207163,3.189373,0.007775,0.000000,-9.801000,2.781178,11.754659,6.412255,14.265750,-0.470713,0.650150,560.145836,159.298904,-167.329471,55.315534,-0.155736,0.195138,0.074786,0.000000,23.565081,2004.953613,0.372070,0.000000,-0.038696,2004.992310,-0.826501,79870.429688,0.155061,0,0.000000,0, 202
82, 101,1092385583,1052672000,-1139039712,-1106267537,-0.322876,2004.992310,4.921645,0.000000,2.509069,4.000000,0.074307,0.000000,0.000000,590.896003,339.863055,737.687642,5729.577951,0.000000,0.000000,0.000000,0.000000,-0.310862,0.067662,2.780626,-9.801000,-2.920532,-0.010603,0.965087,-0.155735,3.175168,0.000000,2.776332,1201406092,23.574316,108, 202
83, 101,1505631786,-1224736768,-1187023140,0,-200802768.000000,0.000000,0.000000,13586499828187136.000000,0.000000,-97784376.000000,0.000000,-0.000000,-128.010834,0.000000,0.000000,0.000000,-0.000000,-1748935608978385266551070213223219200.000000,0.000000,-0.000000,-235657155541639521894400.000000,4091090683592465089794412499764772864.000000,0.000000,-0.000000,-400988064.000000,0.000000,12897730560.000000,0.000000,0.000000,-0.000000,0.000000,0.000000,4037204,0.000000,0, 202
84, 101,3330,1061790601,1,184019,9.218178,3.185400,0.002072,0.000000,-9.801000,2.781259,11.754659,5.931729,14.231686,0.380237,0.207361,560.626736,157.947086,-166.890987,55.190165,-0.153257,0.207014,0.076179,0.000000,23.597404,2004.765137,0.372070,0.000000,-0.227173,2004.992310,-0.394025,79871.375000,0.255864,0,0.000000,0, 202
85, 101,3330,1061696718,1,188185,9.192250,3.172071,0.011121,0.000000,-9.801000,2.780026,10.793607,6.412255,13.864527,0.136649,0.858108,558.952902,156.981270,-166.579366,55.090455,-0.152043,0.215519,0.077005,0.000000,23.615877,2004.543457,0.372070,0.000000,-0.448853,2004.992310,-0.195332,79872.765625,-0.468570,0,0.000000,0, 202
86, 101,3330,1061637003,1,192401,9.222528,3.172366,-0.002512,0.000000,-9.801000,2.776073,11.274133,6.412255,13.872479,0.887220,-0.470426,560.577012,155.979022,-166.282759,54.972518,-0.152058,0.224390,0.077312,0.000000,23.615877,2004.871094,0.372070,0.000000,-0.121216,2004.992310,-0.006021,79871.773438,0.755905,0,0.000000,0, 202
87, 101,3330,1061597028,1,196694,9.218045,3.177237,-0.003518,0.000000,-9.801000,2.774445,11.274133,5.451203,13.287032,-0.019318,0.142205,560.414672,155.641966,-165.940334,54.921189,-0.151709,0.227701,0.079400,0.000000,23.638966,2004.646240,0.372070,0.000000,-0.346069,2004.992310,0.045120,79872.031250,-0.017161,0,0.000000,0, 202
88, 101,3330,1061554080,1,200891,9.248414,3.174834,-0.004961,0.000000,-9.801000,2.770928,11.274133,6.412255,13.709363,0.049040,0.531121,561.998620,155.168347,-165.716672,54.853003,-0.152295,0.232058,0.080024,0.000000,23.638966,2004.514038,0.372070,0.000000,-0.478271,2004.992310,-0.457769,79878.937500,-0.281305,0,0.000000,0, 202
89, 101,3330,1061974093,1,205137,9.222688,3.160597,0.003423,0.000000,-9.801000,2.771733,10.793607,5.931729,13.263105,-0.600606,0.148132,560.460134,154.502130,-165.512846,54.788318,-0.150265,0.237816,0.080453,0.000000,23.625113,2004.710083,0.372070,0.000000,-0.282227,2004.992310,-0.122877,79872.468750,-0.132290,0,0.000000,0, 202
90, 101,3330,1061851419,1,209397,9.331635,3.139004,-0.009932,0.000000,-9.801000,2.768171,11.274133,5.451203,13.455270,-0.104837,-0.287412,565.921280,153.550767,-165.022165,54.656458,-0.149866,0.246428,0.082569,0.000000,23.629730,2004.581299,0.372070,0.000000,-0.411011,2004.992310,-0.068837,79874.296875,0.529382,0,0.000000,0, 202
91, 101,0,0,0,17096,0.000000,0.000000,0.000060,0.000000,0.000000,0.000000,2316360535639469913538560.000000,160856941388236991758336.000000,0.000000,10393536606957018540545398660646567936.000000,96570682.756509,1225.050053,-0.000000,0.000000,-0.000000,-0.000000,0.000000,-0.000000,-5377998343987265536.000000,0.000000,0.000000,0.000000,399616500612382481973248.000000,141.000000,-61681313690605846528.000000,0.000000,0.000000,0.000000,0,0.000000,0, 202
92, 101,3330,1061732897,1,215907,9.236309,3.153157,0.006888,0.000000,-9.801000,2.766821,11.274133,6.412255,13.709363,1.234030,-0.514512,560.992069,152.424633,-164.593202,54.518205,-0.147904,0.256292,0.083907,0.000000,23.652819,2004.676758,0.372070,0.000000,-0.315552,2004.992310,0.005026,79871.593750,0.648114,0,0.000000,0, 202
93, 101,3330,1061591866,1,220275,9.301081,3.149520,-0.004767,0.000000,-9.801000,2.763898,11.754659,6.412255,14.438576,0.557987,-1.070757,564.389459,152.125976,-164.529012,54.471923,-0.148700,0.258945,0.083512,0.000000,23.652819,2004.533447,0.372070,0.000000,-0.458862,2004.992310,0.204857,79876.523438,0.764003,0,0.000000,0, 202
94, 101,3330,1061958886,1,224432,9.238486,3.142160,0.005149,0.000000,-9.801000,2.765261,11.754659,6.412255,14.265750,0.613874,0.505724,560.969556,151.544235,-164.405700,54.410793,-0.146888,0.263808,0.083634,0.000000,23.629730,2004.540405,0.372070,0.000000,-0.451904,2004.992310,0.446465,79872.320312,-0.410035,0,0.000000,0, 202
95, 101,3330,1062274260,1,228597,8.945359,3.151637,0.001155,0.000000,-9.801000,2.760663,11.754659,5.931729,13.895357,0.074892,1.494233,545.421259,151.036014,-164.071225,54.322390,-0.147509,0.268583,0.084843,0.000000,23.643583,2004.445068,0.372070,0.000000,-0.547241,2004.992310,-0.164109,79875.828125,0.272559,0,0.000000,0, 202
96, 101,3330,1061941965,1,232863,9.257854,3.136825,0.001622,0.000000,-9.801000,2.760410,11.754659,6.412255,14.107182,0.941714,-0.304845,561.914254,150.472250,-163.795340,54.247555,-0.146090,0.273543,0.086027,0.000000,23.638966,2004.561646,0.372070,0.000000,-0.430664,2004.992310,0.304473,79874.000000,-0.006724,0,0.000000,0, 202
97, 101,-1105891569,0,1064445374,0,2.005479,3.200000,100.000000,9.259530,3.135293,0.001090,0.000000,0.000000,0.000000,0.000000,0.000000,0.000000,1.048463,-0.184231,561.883982,19.250000,79874.546875,2004.546875,23.652819,0.000000,0.379861,0.000000,2.614522,0.000000,0.000000,2.758075,-0.305244,0.000000,1034817422,0.000000,0, 202
98, 101,3330,1061912548,1,239194,9.219571,3.139083,0.007017,0.000000,-9.801000,2.755825,9.832555,7.373307,13.067836,-0.501446,-0.757039,559.877491,149.584968,-163.389108,54.110995,-0.145849,0.281472,0.087051,0.000000,23.638966,2004.583496,0.372070,0.000000,-0.408813,2004.992310,-0.239419,79874.000000,0.389805,0,0.000000,0, 202
99, 101,3330,1061658281,1,243432,9.248781,3.131220,-0.002806,0.000000,-9.801000,2.754636,10.793607,5.451203,13.055273,0.758939,0.583597,561.242873,148.723790,-162.993736,53.989182,-0.144006,0.289001,0.088474,0.000000,23.652819,2004.445801,0.372070,0.000000,-0.546509,2004.992310,-0.197424,79875.539062,-0.448213,0,0.000000,0, 202
100, 101,3330,1061750436,1,247785,9.314296,3.133338,-0.003019,0.000000,-9.801000,2.753629,12.235185,5.451203,14.442950,-0.002322,0.638416,564.851945,148.245144,-162.792696,53.919651,-0.143167,0.293166,0.089049,0.000000,23.680525,2004.571289,0.372070,0.000000,-0.421021,2004.992310,0.322447,79875.640625,0.700039,0,0.000000,0, 202
101, 101,3330,1062111681,1,252009,9.400446,3.101081,-0.022941,0.000000,-9.801000,2.753151,9.352029,6.412255,12.177890,-0.010234,2.127116,569.036775,148.127733,-162.377270,53.894328,-0.141435,0.294802,0.091061,0.000000,23.703613,2004.371582,0.372070,0.000000,-0.620728,2004.992310,-0.269548,79877.867188,-0.118460,0,0.000000,0, 202
102, 101,0,0,1,0,0.000000,0.000000,0.000000,0.000000,0.000000,0.000000,0.000000,0.000000,0.000000,0.000000,0.000000,0.000000,0.000000,0.000000,57.295780,0.000000,0.000000,0.000000,0.000000,0.000000,0.000000,0.000000,0.000000,0.000000,0.000000,0.000000,0.000000,0.000000,0,0.000000,0, 202
103, 101,3413,0,1,0,0.000000,0.000000,0.000000,0.000000,0.000000,0.000000,0.000000,0.000000,0.000000,0.000000,0.000000,0.000000,0.000000,0.000000,57.295780,0.000000,0.000000,0.000000,0.000000,0.000000,0.000000,0.000000,0.000000,0.000000,0.000000,0.000000,0.000000,0.000000,0,0.000000,0, 202
104, 101,3413,1069269315,1,9741,9.096596,3.061133,-0.004172,0.000000,-9.801000,2.855016,11.754659,5.451203,14.038200,0.574443,-1.521288,556.300985,179.980785,-172.119469,56.574638,-0.142450,0.009978,0.067988,0.000000,21.389566,2006.951172,0.836792,0.000000,0.587891,2006.363281,-0.216141,79849.695312,-0.289183,0,0.000000,0, 202
105, 101,-1610596498,16727,-1342161144,778059965,0.000000,-30735859712.000000,0.000000,0.000000,0.000000,-0.000000,0.000000,0.000000,0.000000,-2134843989191937434389456039028757364736.000000,0.000000,0.000000,-0.000000,0.000000,0.000000,0.000000,0.000000,0.000000,0.000000,0.000000,0.000000,0.000000,-0.000001,0.000000,0.000025,-43891637765655232512.000000,1018849.875000,0.000000,-560642822,-24998666240.000000,172, 202
106, 101,3413,1069237381,1,15998,9.187469,3.002940,0.001542,0.000000,-9.801000,2.826309,10.313081,6.892781,13.529727,0.559533,-0.238481,560.116220,179.722344,-170.659913,56.399047,-0.156273,0.015167,0.080028,0.000000,21.500444,2007.036377,0.948730,0.000000,0.673096,2006.363281,1.142954,79850.312500,-0.396263,0,0.000000,0, 202
107, 101,3413,1069343805,1,20276,9.197142,2.996365,-0.000688,0.000000,-9.801000,2.829033,12.715711,5.931729,15.214495,0.284369,0.076180,560.630779,179.099062,-170.521369,56.408029,-0.154466,0.020599,0.080394,0.000000,21.583603,2006.849976,0.948730,0.000000,0.486694,2006.363281,-0.887278,79850.773438,-0.922735,0,0.000000,0, 202
108, 101,3413,1069364282,1,24490,9.201654,2.971979,0.006146,0.000000,-9.801000,2.830253,11.754659,5.931729,14.231686,0.052790,0.086927,560.468876,178.561799,-170.196634,56.400984,-0.153403,0.025600,0.082468,0.000000,21.671379,2006.886841,0.948730,0.000000,0.523560,2006.363281,-0.401740,79853.046875,0.152032,0,0.000000,0, 202
109, 101,3413,1069416153,1,28720,9.197469,2.953530,0.002317,0.000000,-9.801000,2.831285,9.832555,5.931729,12.493484,0.340590,-0.234312,559.976611,178.148231,-169.991770,56.396838,-0.152530,0.029382,0.083681,0.000000,21.740675,2006.952881,0.948730,0.000000,0.589600,2006.363281,1.452215,79852.929688,0.264505,0,0.000000,0, 202
110, 101,1064493056,1095617263,-1092452342,1084166090,0.000000,0.000000,-9.801000,0.000000,0.000000,0.360203,2.400000,100.000000,0.000000,162.296319,177.778472,-170.047012,-43.680672,0.000000,0.000000,0.000000,0.000000,0.000000,0.000000,0.082726,0.032428,0.000000,2006.645020,0.000000,0.000000,79853.226562,-0.151610,0.000000,1157286816,10.793607,29, 202
111, 101,3413,1069334365,1,35085,9.223051,2.947735,-0.001225,0.000000,-9.801000,2.832047,11.274133,5.451203,13.455270,-0.007691,-0.151636,561.171839,176.970324,-169.793940,56.387535,-0.151168,0.039723,0.083794,0.000000,21.833067,2006.774414,0.948730,0.000000,0.411133,2006.363281,0.803883,79854.078125,-0.209918,0,0.000000,0, 202
112, 101,3413,1069485467,1,39405,9.224537,2.929435,-0.001121,0.000000,-9.801000,2.834719,11.274133,5.931729,13.657016,-0.958052,-0.187094,561.093702,176.607505,-169.667035,56.391189,-0.149514,0.042891,0.084447,0.000000,21.883883,2006.633789,0.948730,0.000000,0.270508,2006.363281,-0.520701,79855.492188,-0.265751,0,0.000000,0, 202
113, 101,3413,1069435350,1,43676,9.233978,2.930864,-0.000684,0.000000,-9.801000,2.834554,9.352029,5.931729,12.540015,0.414181,1.250847,561.575749,176.071540,-169.504887,56.378909,-0.149089,0.047708,0.085111,0.000000,21.934696,2006.592529,0.948730,0.000000,0.229248,2006.363281,0.861065,79853.953125,-0.365400,0,0.000000,0, 202
114, 101,-1143062089,1157290878,1077552985,1201402996,21.971651,0.675909,0.948730,0.000000,0.000000,0.000000,0.983834,-0.148669,0.050853,28.410090,114956.148186,309.521579,0.000000,86.100060,137.509876,100.000000,0.000000,0.000000,0.000000,0.000000,12.321903,-9.801000,1.482759,2.834688,3.067008,0.000000,5.931729,0.000000,1001361751,17.875000,189, 202
115, 101,3413,1069393983,1,50179,9.222067,2.910418,0.001650,0.000000,-9.801000,2.837875,11.754659,5.451203,13.697123,-0.173518,0.178224,560.540402,175.308020,-169.266376,56.373998,-0.146702,0.054423,0.086213,0.000000,22.059420,2006.733887,0.948730,0.000000,0.370605,2006.363281,-0.120654,79855.085938,-0.172631,0,0.000000,0, 202
116, 101,1120403456,1049902278,1085485876,1048863625,0.000000,0.000000,0.000000,22.119471,-1.156281,0.948730,9.781734,17.875000,79861.125000,0.000000,0.000000,0.000000,-3.161339,114956.148186,337.053689,11.754659,6.412255,14.625154,0.000000,1.486899,0.000000,2.899866,0.000000,-0.009813,-0.017269,0.000000,0.000000,9.222919,0,0.000000,0, 202
117, 101,0,171,0,54451149,0.000000,0.000000,0.000000,0.948730,0.113525,2006.363281,79858.742188,2006.476807,22.133329,0.000000,0.000000,0.000000,337.053689,590.896003,312.330945,13.064508,0.000000,0.000000,-9.801000,2.898754,9.226774,0.006135,0.800000,-0.006688,9.785673,0.500000,1.491057,-0.008127,0,0.720989,100, 202
118, 101,3413,1069291266,1,58590,9.215272,2.888420,0.000274,0.000000,-9.801000,2.835690,10.793607,5.931729,13.862826,0.007246,0.088059,559.693568,174.335401,-168.954209,56.336633,-0.146763,0.063255,0.087510,0.000000,22.151806,2006.548340,0.948730,0.000000,0.185059,2006.363281,-0.859831,79855.226562,0.916105,0,0.000000,0, 202
119, 101,3413,1069439331,1,62796,9.231412,2.902947,0.012017,0.000000,-9.801000,2.839065,10.793607,6.892781,13.719875,0.527110,-0.224376,560.965021,174.056975,-168.839722,56.340820,-0.144789,0.065638,0.088224,0.000000,22.202618,2006.315918,0.948730,0.000000,-0.047363,2006.363281,-0.128293,79859.578125,-0.013055,0,0.000000,0, 202
120, 101,767432028,335544320,-1002472534,0,-0.000000,0.000000,0.000000,-0.000000,-3075.519287,-422630416923492352.000000,0.000000,-512.000000,-0.000000,0.000000,0.000000,0.000000,-0.000000,0.000000,0.000000,-207840346112.000000,0.000000,0.000000,0.000000,-0.000000,-200328752.000000,8796093022208.000000,-13853538646721822720.000000,0.000000,0.000000,-0.000000,-0.000000,0.000000,4043377,0.000000,0, 202
121, 101,66590,235143168,-995425282,65536,-194067307667007321095626254748181594112.000000,-0.000000,-0.000000,0.000000,0.000000,-30735859712.000000,-5377998343987265536.000000,0.000000,-0.000000,-732711514054815483242217472.000000,0.000917,54362804711616102377102723450245480448.000000,1798915470460627615481856.000000,214496080157729862291960189792209076224.000000,-4671697.773892,-0.000000,-199713808806206324231630625822700732416.000000,0.000000,0.000000,-984185.687500,-130622689159162785030142174672453632.000000,1747276662942031878445543210931453952.000000,-7206619054080.000000,-36964613355596677120.000000,0.000000,273778395316224.000000,0.000000,0.000000,0,0.000000,0, 202
122, 101,3413,1069332118,1,73415,9.233827,3.130789,-0.008874,0.000000,-9.801000,2.838692,9.352029,6.892781,13.022173,-0.338930,1.127336,564.992756,173.068879,-166.902188,56.227046,-0.142798,0.076542,0.103479,0.000000,22.341192,2006.251709,0.948730,0.000000,-0.111572,2006.363281,-0.000342,79854.359375,0.502620,0,0.000000,0, 202
123, 101,3413,1069624438,1,77653,9.367294,2.315055,0.005382,0.000000,-9.801000,2.896603,10.793607,4.970677,13.259552,0.254202,-0.673474,559.575597,173.729413,-169.481090,56.577390,-0.116516,0.065239,0.084188,0.000000,22.410477,2005.798218,0.948730,0.000000,-0.565063,2006.363281,-0.706418,79864.046875,-0.574780,0,0.000000,0, 202
124, 101,3413,1069430862,1,81912,9.386271,2.278213,-0.006460,0.000000,-9.801000,2.902645,10.313081,5.451203,12.660879,0.443371,-1.490762,559.920221,173.141430,-169.244561,56.573842,-0.112887,0.070279,0.085788,0.000000,22.475143,2005.746216,0.948730,0.000000,-0.617065,2006.363281,-0.046940,79864.031250,-0.104870,0,0.000000,0, 202
125, 101,3413,1069452671,1,86184,9.285975,2.302456,-0.013382,0.000000,-9.801000,2.901888,12.235185,4.490152,14.108319,-0.499237,0.236576,554.754685,172.942412,-169.163213,56.563054,-0.113035,0.072104,0.086246,0.000000,22.544426,2005.734131,0.948730,0.000000,-0.629150,2006.363281,0.398555,79863.867188,0.623399,0,0.000000,0, 202
126, 101,3413,1069513731,1,90567,9.479688,2.263083,-0.008151,0.000000,-9.801000,2.902452,12.235185,5.451203,14.629474,-0.504918,-0.897675,564.949043,172.681908,-169.068151,56.554161,-0.112466,0.074414,0.086803,0.000000,22.585997,2005.824829,0.948730,0.000000,-0.538452,2006.363281,-0.253005,79857.664062,0.402797,0,0.000000,0, 202
127, 101,1991970020,1447361205,1396707575,-1152934917,-0.000000,0.000000,0.000000,0.000000,0.000000,0.000000,15171172788089865902140214476800.000000,-25486895104.000000,0.000000,-0.000000,-0.000000,-194329663108964128.000000,28.647890,-0.000000,0.000000,0.000000,0.000000,0.000000,0.000000,0.000000,0.000000,1739403205885820928.000000,0.000000,-0.000000,206430633984.000000,0.000000,-201978096.000000,-37778931862957161709568.000000,465200987,-49555.000000,201, 202
128, 101,3413,1069553855,1,96941,9.408386,2.258753,0.004251,0.000000,-9.801000,2.904134,8.871503,4.970677,11.096609,-0.367173,0.212146,561.007204,172.287670,-168.965001,56.544537,-0.111214,0.077832,0.087328,0.000000,22.655277,2005.600830,0.948730,0.000000,-0.762451,2006.363281,-0.576883,79866.351562,0.100184,0,0.000000,0, 202
129, 101,3413,1069590095,1,101102,9.413494,2.263020,-0.004902,0.000000,-9.801000,2.903545,10.793607,5.451203,13.447070,-0.331198,0.346824,561.382810,171.875249,-168.703664,56.519453,-0.110947,0.081657,0.089106,0.000000,22.706083,2005.470947,0.948730,0.000000,-0.892334,2006.363281,-0.389825,79864.781250,-0.310288,0,0.000000,0, 202
130, 101,3413,1069491244,1,105368,9.414660,2.263023,-0.007122,0.000000,-9.801000,2.903956,10.793607,4.490152,12.684085,0.502363,0.241303,561.343741,170.665841,-168.615487,56.478421,-0.109550,0.092112,0.088562,0.000000,22.756889,2005.291748,0.948730,0.000000,-1.071533,2006.363281,-0.252785,79866.164062,0.034629,0,0.000000,0, 202
131, 101,3413,1069488645,1,109581,9.401521,2.250048,-0.001464,0.000000,-9.801000,2.901730,11.754659,4.970677,13.678532,0.233270,0.563273,560.446145,169.868635,-168.392112,56.432830,-0.109701,0.099266,0.089496,0.000000,22.826168,2005.216675,0.948730,0.000000,-1.146606,2006.363281,-0.264126,79869.929688,-0.131994,0,0.000000,0, 202
132, 101,3413,1069474882,1,113807,9.386553,2.230326,-0.002665,0.000000,-9.801000,2.903904,10.793607,4.490152,13.309921,0.139667,0.918301,559.348343,169.215423,-168.332526,56.411475,-0.107944,0.104826,0.089394,0.000000,22.858498,2005.369629,0.948730,0.000000,-0.993652,2006.363281,-0.050465,79865.968750,0.544165,0,0.000000,0, 202
133, 101,12489351,-1354715536,-1606306044,1111569506,0.000000,0.000000,-37778931862957161709568.000000,0.000000,0.000000,-32768.000000,-0.000000,0.000000,0.000000,0.000000,-47303717551780.445312,3574364742687534837981576863108038656.000000,-0.000000,-11392632294.038124,-0.000000,0.000000,8796093022208.000000,0.000000,0.000000,15042302504644766046745710821376.000000,0.000000,0.000000,988417447885465909582475821056.000000,0.000000,0.000000,-13302855892992.000000,-220766524102445891584.000000,0.000000,-1598062508,-3387465670852608.000000,203, 202
134, 101,3413,1069528106,1,120177,9.416451,2.185800,-0.008071,0.000000,-9.801000,2.906903,10.793607,5.931729,13.263105,0.487043,-0.599420,560.475542,168.665292,-168.196304,56.391647,-0.105802,0.109533,0.090118,0.000000,22.927776,2005.209961,0.948730,0.000000,-1.153320,2006.363281,-1.000650,79866.773438,1.424806,0,0.000000,0, 202
135, 101,3413,1069538872,1,124539,9.437011,2.192810,-0.005376,0.000000,-9.801000,2.901977,12.715711,5.451203,14.684260,0.646300,0.057917,561.710495,167.664342,-168.030385,56.324281,-0.107060,0.118479,0.090146,0.000000,22.997051,2005.052856,0.948730,0.000000,-1.310425,2006.363281,0.261634,79868.554688,0.644217,0,0.000000,0, 202
136, 101,3413,1069529206,1,128800,9.437615,2.148471,0.009388,0.000000,-9.801000,2.907684,11.754659,5.451203,14.230030,-0.168164,0.066674,561.171020,167.447893,-167.783051,56.319981,-0.103777,0.120298,0.092367,0.000000,23.052473,2004.711182,0.948730,0.000000,-1.652100,2006.363281,0.134953,79874.710938,0.251162,0,0.000000,0, 202
137, 101,3413,1069640430,1,133117,9.409045,2.158567,-0.005358,0.000000,-9.801000,2.908809,10.313081,4.970677,12.659018,0.092993,-0.543121,559.838368,167.163266,-167.783966,56.309568,-0.102932,0.122680,0.092113,0.000000,23.070946,2004.628662,0.948730,0.000000,-1.734619,2006.363281,-0.615215,79878.070312,-0.396118,0,0.000000,0, 202
138, 101,3413,1069572939,1,137397,9.431011,2.160016,-0.003811,0.000000,-9.801000,2.910238,11.274133,5.451203,13.835744,-0.034402,0.105454,560.997806,166.908882,-167.702058,56.297353,-0.101879,0.124862,0.092623,0.000000,23.080183,2004.768066,0.948730,0.000000,-1.595215,2006.363281,0.390490,79872.859375,-0.503819,0,0.000000,0, 202
139, 101,3413,1069522768,1,141612,9.419245,2.153296,0.006591,0.000000,-9.801000,2.910533,11.274133,4.490152,13.486054,0.220434,-0.168290,560.210968,166.551062,-167.724939,56.281049,-0.101388,0.127887,0.092052,0.000000,23.107893,2005.062012,0.948730,0.000000,-1.301270,2006.363281,-0.054372,79871.992188,2.175831,0,0.000000,0, 202
140, 101,3413,1069571362,1,145781,9.409932,2.134937,0.002125,0.000000,-9.801000,2.907423,10.793607,5.451203,13.243905,-0.023715,-1.264862,559.517021,166.116184,-167.571902,56.242052,-0.102287,0.131882,0.092678,0.000000,23.154076,2004.502808,0.948730,0.000000,-1.860474,2006.363281,-0.404179,79877.445312,0.539073,0,0.000000,0, 202
141, 101,3413,1069573588,1,149996,9.412413,2.132273,0.013090,0.000000,-9.801000,2.909701,10.793607,5.931729,13.648937,0.529128,0.618878,559.622971,165.194887,-167.451254,56.192065,-0.100048,0.139746,0.092835,0.000000,23.186403,2004.631958,0.948730,0.000000,-1.731323,2006.363281,-0.658571,79873.476562,-0.856177,0,0.000000,0, 202
142, 101,3413,1069604748,1,154225,9.487594,2.133075,-0.000961,0.000000,-9.801000,2.909663,12.235185,4.970677,14.457299,-0.726732,0.718457,563.817691,164.801045,-167.096056,56.152375,-0.099201,0.143415,0.095430,0.000000,23.218731,2004.700684,0.948730,0.000000,-1.662598,2006.363281,1.013801,79875.421875,-1.454808,0,0.000000,0, 202
143, 101,3413,1069657050,1,158532,9.414660,2.129926,-0.004677,0.000000,-9.801000,2.909408,12.235185,4.970677,14.268526,0.170665,0.280274,559.805692,164.185918,-167.178715,56.118555,-0.098757,0.148596,0.094013,0.000000,23.251057,2005.166748,0.948730,0.000000,-1.196533,2006.363281,0.022601,79867.507812,0.482015,0,0.000000,0, 202
144, 101,3413,1069664552,1,162771,9.420794,2.121749,0.000834,0.000000,-9.801000,2.909328,11.274133,4.970677,13.653564,-0.008637,0.770843,560.050377,163.756517,-167.001486,56.083172,-0.098089,0.152407,0.095035,0.000000,23.288002,2004.904053,0.948730,0.000000,-1.459229,2006.363281,0.913200,79870.289062,-0.376455,0,0.000000,0, 202
145, 101,976391623,-1086031083,999730620,1102745609,0.948730,-1.572510,2006.363281,0.000000,0.000000,2.005477,0.155980,0.095729,0.000000,281.989469,590.896003,312.330945,183.346497,5729.577951,0.000000,0.000000,0.000000,0.000000,-1.424160,-9.801000,0.000000,2.850937,2.109763,-2.912441,0.978295,9.458843,0.000000,2.909858,1100546048,2004.790771,152, 202
146, 101,3413,1069665861,1,169166,9.425263,2.099139,0.011126,0.000000,-9.801000,2.910669,11.754659,5.451203,14.230030,-0.204996,0.273058,560.019013,162.479928,-166.646712,55.989349,-0.095194,0.163509,0.096368,0.000000,23.343420,2004.909668,0.948730,0.000000,-1.453613,2006.363281,-0.327486,79872.492188,-0.274608,0,0.000000,0, 202
147, 101,3413,1069661869,1,173539,9.459675,2.107674,0.001180,0.000000,-9.801000,2.912107,11.754659,5.451203,14.435312,0.211123,-0.331496,562.021132,162.079815,-166.675330,55.963298,-0.094380,0.166798,0.096137,0.000000,23.357273,2004.917969,0.948730,0.000000,-1.445312,2006.363281,-0.420512,79872.054688,0.040197,0,0.000000,0, 202
148, 101,3413,1069587816,1,177868,9.456537,2.117782,-0.016274,0.000000,-9.801000,2.907988,11.754659,5.451203,14.038200,0.394394,-1.904815,561.894692,161.396373,-166.374187,55.888610,-0.095149,0.173043,0.097567,0.000000,23.394218,2004.744385,0.948730,0.000000,-1.618896,2006.363281,-0.706729,79874.835938,-0.490148,0,0.000000,0, 202
149, 101,-878657610,0,1543520114,16740,-30735859712.000000,0.000000,-2324880175883857541351946697310208.000000,-0.000000,-0.000000,1.607367,0.000000,0.000000,0.000000,-7851072470940125.000000,-0.000000,-0.000000,0.000000,0.000000,0.000000,0.000000,0.000000,0.000000,0.000000,0.000000,0.000000,0.000000,-0.000000,0.000036,0.000000,21801381328920020552515584.000000,1609.943726,0.000000,-1018085219,354877374464.000000,67, 202
150, 101,3413,1069754668,1,184111,9.640024,2.083340,0.006163,0.000000,-9.801000,2.901180,12.715711,4.970677,14.866172,0.452094,2.767404,571.796554,160.413126,-166.507212,55.802591,-0.097513,0.181582,0.094671,0.000000,23.449633,2005.114624,0.948730,0.000000,-1.248657,2006.363281,0.749182,79871.117188,0.687269,0,0.000000,0, 202
151, 101,-1018085204,197706012,-560642822,-790298624,0.000000,-0.010330,3878370410496.000000,-0.000000,0.000000,0.000000,0.000000,0.000000,-309237645312.000000,0.000000,4252164112918857121792.000000,-1578898650.126419,0.000000,0.000000,0.000000,0.000000,0.000000,-22914314904061083648.000000,752883202943875034665597154824814592.000000,0.000000,0.000000,0.000000,-2203280998400.000000,0.000000,0.000000,-36961653470294704128.000000,0.000000,-0.000000,-1146273649,0.000000,97, 202
152, 101,3413,1069472460,1,190495,9.419778,2.106558,-0.001843,0.000000,-9.801000,2.906869,11.274133,5.451203,13.638371,0.742071,0.280738,559.604229,159.738946,-166.076378,55.744585,-0.093245,0.187365,0.098054,0.000000,23.472723,2005.185669,0.948730,0.000000,-1.177612,2006.363281,-0.125014,79869.406250,0.055079,0,0.000000,0, 202
153, 101,3413,1069584088,1,194710,9.424985,2.102028,0.000201,0.000000,-9.801000,2.907820,10.793607,4.490152,13.086999,0.234912,0.114584,559.952896,158.929418,-166.073973,55.681061,-0.091794,0.194153,0.097206,0.000000,23.500431,2005.147705,0.948730,0.000000,-1.215576,2006.363281,-0.208911,79867.539062,0.421290,0,0.000000,0, 202
154, 101,171853960,-851476451,-910312152,-1627389952,0.000000,0.000000,0.000000,-3146093.000000,0.000000,0.000000,0.000000,-38689209507704451670999040.000000,-50266924.000000,0.000000,0.000000,-0.000000,0.000000,0.000000,-0.000000,0.000000,-0.192362,-936852430088245563099185152.000000,0.000000,0.000000,-0.000000,0.000000,0.000000,0.000000,0.000000,13524299038064640.000000,-400720576.000000,8796093022208.000000,0,0.000000,0, 202
155, 101,3413,1069600174,1,201063,9.428633,2.096973,0.003860,0.000000,-9.801000,2.907468,10.793607,4.490152,12.878155,-0.000446,0.051083,560.109171,158.264280,-165.579713,55.599536,-0.090291,0.200169,0.100567,0.000000,23.555845,2004.999756,0.948730,0.000000,-1.363525,2006.363281,0.315765,79867.757812,-0.216003,0,0.000000,0, 202
156, 101,-1079351296,0,1064493056,1096908658,0.000000,-9.801000,2.906940,0.000000,-1.350764,0.046165,100.000000,0.000000,0.000000,158.203341,-165.742969,55.601093,0.000000,0.000000,0.000000,0.000000,0.000000,0.000000,0.000000,0.000000,0.099059,0.000000,23.602022,0.000000,1.502739,2005.076538,0.200580,0.000000,1084063261,4.970677,81, 202
157, 101,3413,1069419431,1,207497,9.527294,1.626645,0.003002,0.000000,-9.801000,2.947586,11.274133,4.970677,13.867383,0.034225,0.523882,560.268724,158.725660,-167.665257,55.832142,-0.074898,0.192884,0.087316,0.000000,23.615877,2005.141968,0.948730,0.000000,-1.221313,2006.363281,0.432068,79868.820312,0.337341,0,0.000000,0, 202
158, 101,4158176,4279167,12467265,1463844942,0.000000,-37778931862957161709568.000000,-2005395361247853892120951543434313728.000000,0.000000,0.000488,-474804708959280897393969594368.000000,0.000000,0.000000,0.000000,-12401218480455251968.000000,-0.000000,1376.737735,-22796093032.037983,-0.000000,0.000000,8796093022208.000000,0.000000,0.000000,0.000000,0.000000,13389959977238528.000000,0.000000,-0.000000,0.000000,0.000000,965251487737626597164843008.000000,-0.000000,0.000000,-1790641461,-54373813520957440.000000,222, 202
159, 101,3413,1069527696,1,216240,9.601336,1.581754,0.000399,0.000000,-9.801000,2.959486,12.235185,4.490152,14.108319,0.200828,-0.119770,564.095871,157.804677,-167.065047,55.748100,-0.067068,0.200515,0.092685,0.000000,23.657436,2004.829590,0.948730,0.000000,-1.533691,2006.363281,-0.445596,79871.445312,-0.299350,0,0.000000,0, 202
160, 101,3413,1069472589,1,220558,9.497222,1.498443,0.003813,0.000000,-9.801000,2.971954,10.793607,4.009626,12.718589,-0.336011,0.184703,557.467145,157.070623,-167.333515,55.715687,-0.060674,0.206000,0.090985,0.000000,23.689760,2004.660645,0.948730,0.000000,-1.702637,2006.363281,0.141502,79876.335938,0.219517,0,0.000000,0, 202
161, 101,3413,1069578466,1,224850,9.538551,1.515514,-0.007642,0.000000,-9.801000,2.971165,11.754659,4.009626,13.543728,-0.466542,0.797919,560.040432,156.389694,-166.910740,55.629995,-0.059534,0.212009,0.093863,0.000000,23.698996,2004.820801,0.948730,0.000000,-1.542480,2006.363281,0.692678,79872.101562,-0.632557,0,0.000000,0, 202
162, 101,3413,1069459537,1,229065,9.539154,1.506819,0.005606,0.000000,-9.801000,2.969105,11.274133,5.451203,13.835744,-0.241833,0.260592,559.872737,155.966577,-166.783275,55.579274,-0.059819,0.215741,0.094328,0.000000,23.726702,2004.754395,0.948730,0.000000,-1.608887,2006.363281,0.434094,79875.164062,-0.350048,0,0.000000,0, 202
163, 101,3413,1069475413,1,233265,9.531328,1.496645,-0.011263,0.000000,-9.801000,2.967314,11.754659,4.970677,13.858683,-0.442529,0.277481,559.361894,155.546302,-166.662599,55.528898,-0.059979,0.219429,0.094757,0.000000,23.754408,2004.730225,0.948730,0.000000,-1.633057,2006.363281,-0.177599,79873.296875,0.166220,0,0.000000,0, 202
164, 101,390053542,2051513344,1312889037,1531026432,-55444617587326976.000000,-0.000000,0.000000,0.000000,0.000000,0.000000,0.000006,-0.000000,0.000000,0.000000,-0.000000,0.000000,0.000000,-0.000000,-46261576781.423431,0.000000,0.000000,0.000000,0.000000,0.000000,0.000000,-37778931862957161709568.000000,144131113814589440.000000,-1781148882827080630272.000000,-0.000000,-0.000000,-54390722807201792.000000,0.000000,1237046996,0.000000,155, 202
165, 101,3413,1069476592,1,239554,9.540808,1.483047,-0.006390,0.000000,-9.801000,2.970122,11.754659,4.970677,14.481593,-0.297352,0.351075,559.774601,154.805882,-166.710506,55.460771,-0.057864,0.225502,0.093963,0.000000,23.795967,2004.812744,0.948730,0.000000,-1.550537,2006.363281,0.490528,79871.976562,1.411976,0,0.000000,0, 202
166, 101,3413,1069433742,1,243890,9.545584,1.477978,-0.000637,0.000000,-9.801000,2.966725,10.793607,4.009626,12.930011,0.005262,0.499558,559.953279,154.240069,-166.481039,55.385359,-0.058397,0.230534,0.094972,0.000000,23.791349,2004.629517,0.948730,0.000000,-1.733765,2006.363281,-0.495488,79872.117188,-0.030602,0,0.000000,0, 202
167, 101,3413,1069483709,1,248096,9.565843,1.482836,0.004077,0.000000,-9.801000,2.969666,11.754659,4.009626,13.189869,-0.120332,0.618920,561.181019,153.639819,-166.643502,55.333873,-0.056610,0.235351,0.093368,0.000000,23.805201,2004.510254,0.948730,0.000000,-1.853027,2006.363281,0.754632,79875.625000,-0.742580,0,0.000000,0, 202
168, 101,3413,1069548836,1,252351,9.532734,1.457327,-0.000839,0.000000,-9.801000,2.965836,12.235185,4.009626,14.155669,-0.228509,0.801372,559.176550,152.819800,-166.228459,55.218241,-0.056630,0.242607,0.095610,0.000000,23.800583,2004.391846,0.948730,0.000000,-1.971436,2006.363281,0.081543,79880.703125,0.106936,0,0.000000,0, 202
169, 101,3413,1069545638,1,256657,9.601261,1.469346,0.002139,0.000000,-9.801000,2.963633,10.313081,4.009626,12.531674,0.141894,0.114555,563.111504,152.162435,-166.152944,55.137173,-0.056743,0.248245,0.095322,0.000000,23.819054,2004.370239,0.948730,0.000000,-1.993042,2006.363281,-0.341235,79878.140625,-0.248546,0,0.000000,0, 202
170, 101,1472030295,-570425344,1782543943,0,-0.000000,0.000000,0.000000,-0.000000,-226371129426768767746048.000000,237011995959264343780359697072128.000000,0.000000,-0.000000,-0.000000,0.000000,0.000000,0.000000,-0.000000,-54545003088634698978925902385119232.000000,0.000000,851503036235776.000000,-0.000000,-12909200.000000,55843126849440841728.000000,-0.000000,-199004016.000000,8796093022208.000000,54089160268447744.000000,0.000000,0.000000,-48.060516,115980647513119796049739776.000000,0.000000,4047328,0.000000,0, 202
171, 101,3413,1069412704,1,263173,9.603037,1.501152,0.001015,0.000000,-9.801000,2.969246,11.754659,4.490152,13.693682,-0.322435,0.301081,563.348375,152.056349,-166.239646,55.138140,-0.054103,0.248821,0.095187,0.000000,23.837524,2004.621826,0.948730,0.000000,-1.741455,2006.363281,0.776342,79875.585938,1.265389,0,0.000000,0, 202
172, 101,3413,1069416205,1,267420,9.552643,1.468385,0.003307,0.000000,-9.801000,2.967288,10.793607,4.009626,12.930011,-0.521836,0.480164,560.247360,151.188054,-166.138314,55.029437,-0.053781,0.256208,0.094936,0.000000,23.823671,2004.476318,0.948730,0.000000,-1.886963,2006.363281,0.623597,79878.000000,-0.280312,0,0.000000,0, 202
173, 101,-452984832,-709009322,0,-1119914587,0.000003,0.000000,0.000000,0.000000,0.000000,0.000000,-0.000000,0.000000,8796093022208.000000,0.000000,0.000000,-0.000027,-609273233352870872652267397057299349504.000000,152337555560979646247459909069889863680.000000,0.000000,-0.000000,-0.748955,98089360.000000,3309968354705408.000000,0.000000,0.000000,0.000000,-0.000000,-0.000000,0.000000,48.271122,0.000000,0.000000,-381665872,0.000000,124, 202
174, 101,65536,756023296,11210800,65536,-12542609990187796114964480.000000,-35192568.000000,0.000000,0.000000,0.000000,-30735859712.000000,0.000000,177438162944.000000,1839238784.000000,0.000000,0.000001,-0.000000,-1.327163,-0.000000,18334719.273418,0.000000,1247438307548402855011526240486031360.000000,0.000000,-1050853255998278967404306827837440.000000,-0.000000,0.000000,0.000000,-3264092924557679646591680512.000000,-36964481414201344000.000000,-0.000000,-257024.000000,0.000000,-0.000000,0,0.000000,0, 202
175, 101,3413,1069611104,1,277955,9.525440,1.456297,0.002959,0.000000,-9.801000,2.961921,10.793607,4.490152,13.309921,0.329487,-0.314374,558.825096,149.495028,-165.675746,54.793779,-0.053213,0.270759,0.096383,0.000000,23.828289,2004.701416,0.948730,0.000000,-1.661865,2006.363281,0.621878,79871.929688,0.579460,0,0.000000,0, 202
176, 101,17879526,956301312,-1424969278,16777216,-0.000000,0.000000,-911877611565308113321984.000000,0.000000,0.000000,-37778931862957161709568.000000,0.000000,0.000000,-3165956.750000,870349661922715968096800574799872.000000,-415643674576062572363895537664.000000,43829724.341461,345.766688,0.000000,831849673706597299341230080.000000,0.000000,-200755616.000000,-0.092456,0.000000,0.000000,13951307220663664640.000000,0.000000,0.000000,0.000000,0.000000,0.000000,0.000000,-12909199.000000,13,0.000000,0, 202
177, 101,3413,1069592535,1,286402,9.577984,1.466880,-0.001180,0.000000,-9.801000,2.961682,11.274133,5.451203,13.638371,0.450016,0.117851,561.836608,148.176528,-165.496085,54.616925,-0.051233,0.281769,0.096474,0.000000,23.842142,2004.652832,0.948730,0.000000,-1.710449,2006.363281,-0.109395,79875.437500,-0.015099,0,0.000000,0, 202
178, 101,3413,1069299055,1,290648,9.544364,1.459068,-0.006261,0.000000,-9.801000,2.963515,11.754659,4.490152,13.511331,0.535872,-0.274606,559.582919,148.195243,-165.394902,54.617123,-0.050135,0.281570,0.097593,0.000000,23.846760,2004.703125,0.948730,0.000000,-1.660156,2006.363281,0.131642,79872.328125,-0.752892,0,0.000000,0, 202
179, 101,3413,1069554333,1,294998,9.552113,1.438915,0.002929,0.000000,-9.801000,2.961955,11.754659,4.970677,13.858683,0.003081,0.165613,560.110592,148.017863,-165.490361,54.596400,-0.050888,0.283069,0.096394,0.000000,23.860613,2004.977051,0.948730,0.000000,-1.386230,2006.363281,0.617398,79869.914062,0.078413,0,0.000000,0, 202
180, 101,3413,1069304350,1,299255,9.598435,1.435110,0.000488,0.000000,-9.801000,2.959993,10.793607,4.490152,12.878155,0.414332,0.523478,562.413950,147.485586,-165.371830,54.517730,-0.050848,0.287610,0.096536,0.000000,23.851377,2004.845703,0.948730,0.000000,-1.517578,2006.363281,0.594807,79874.156250,-0.488793,0,0.000000,0, 202
181, 101,3413,1069561355,1,303524,9.529317,1.439946,-0.000002,0.000000,-9.801000,2.959780,10.793607,4.490152,12.878155,0.304617,-0.168882,558.850558,146.840926,-165.328677,54.428934,-0.050012,0.292951,0.096176,0.000000,23.846760,2004.958008,0.948730,0.000000,-1.405273,2006.363281,0.638141,79874.304688,-0.281926,0,0.000000,0, 202
182, 101,-1424869196,16777216,-851512712,0,-0.000000,-8591165440.000000,0.000000,-0.000000,0.000000,0.000000,-0.000000,-0.000000,51720871936.000000,3114080374399449600.000000,-13279500022676993526628089856.000000,671.819428,-2164573350259753939369984.000000,0.021104,704934.482724,0.000000,-1731371960639684608.000000,0.000000,-0.000000,0.000000,0.000000,0.000000,0.000000,0.000000,0.000000,0.000000,124959854579664328701092531357765074944.000000,-3595842552600723456.000000,1426063360,0.000000,13, 202
183, 101,3413,1069579091,1,309987,9.584148,1.431724,0.005809,0.000000,-9.801000,2.962719,11.274133,4.490152,13.095424,-0.194967,-0.766389,561.869885,146.610721,-165.140928,54.392683,-0.047837,0.294783,0.097918,0.000000,23.846760,2005.213257,0.948730,0.000000,-1.150024,2006.363281,-0.713784,79868.382812,-0.060010,0,0.000000,0, 202
184, 101,17826292,0,-1424844052,16777216,0.000000,0.000000,0.000000,0.000000,0.000000,0.000000,0.000000,0.000000,0.000000,0.000000,0.000000,0.000000,0.000000,0.000000,0.000000,0.000000,0.000000,0.000000,0.000000,0.000000,0.000000,0.000000,0.000000,0.000000,0.000000,0.000000,0.000000,0.000000,0,0.000000,0, 202
185, 101,0,4630,1,1,-1.273812,9.345798,1.320838,0.339761,-0.107642,-0.283431,2.038490,9.832555,4.970677,-4.247410,-8.496715,-1.217181,169.808994,-147.216846,164.593598,0.950300,-0.046760,-0.289970,-0.103248,1279.756592,80440.585938,1935.267578,865.908020,0.000000,-667.959595,-907.384399,16.750000,21.666759,0,0.000000,0, 202
186, 101,4755,4945,1,1,-1.071382,9.282773,1.154270,0.178049,-0.149173,-0.388449,2.999541,9.832555,5.451203,-4.525662,-1.983490,3.778267,171.663841,-146.007711,167.315579,0.950305,-0.036878,-0.297428,-0.084247,1869.430908,80436.843750,3494.365234,2861.135254,0.000000,-78.285278,-421.878784,16.750000,21.694477,0,0.000000,0, 202
187, 101,0,4770,1,1,-1.836437,9.924011,1.808961,0.653995,0.246618,0.428482,0.116386,7.910451,4.490152,0.248168,93.657009,9.773168,168.168096,137.402041,173.919361,-0.926742,0.115218,-0.353163,0.056124,555.344299,94054.437500,1447.758667,936.025391,0.000000,-112.134644,-243.428741,11.000000,13.954547,0,0.000000,0, 202
188, 101,4888,5084,1,1,-5.016391,8.732093,0.571935,-0.179128,-0.786211,0.253378,-0.364140,6.949400,4.009626,-7.997340,3.824464,-6.126951,177.392662,125.298932,156.496463,-0.867241,0.113334,-0.445571,0.191091,654.123230,94061.625000,768.321228,1161.710693,0.000000,-13.355713,-83.529305,11.000000,14.014704,0,0.000000,0, 202
189, 101,7195,7157,1,1,1.212705,9.255398,1.435814,0.449465,0.441999,-0.377772,3.960593,7.910451,4.970677,-1.070956,-0.678689,0.631793,168.077213,138.831791,-168.490098,-0.929720,0.049711,-0.354983,-0.084475,667.592590,94057.476562,0.203925,39.724686,0.184753,0.113647,-2.569582,11.000000,14.121134,0,0.000000,0, 202
190, 101,9304,9268,1,1,0.764766,9.536459,1.495383,-0.119598,-0.120901,-0.119256,4.921645,8.390977,5.451203,-0.115078,0.108901,4.784950,168.444186,139.830174,-166.886233,-0.932314,0.058207,-0.350930,-0.065202,667.457214,94060.101562,0.486328,1.712943,0.312927,-0.021729,0.002533,11.125000,14.227562,0,0.000000,0, 202
191, 101,11420,11418,1,1,1.045136,9.485219,1.533746,0.045732,-0.006196,-0.136015,4.921645,8.871503,4.970677,0.299538,-0.980363,-0.584066,168.190403,139.286764,-166.127686,-0.930068,0.053959,-0.355132,-0.077096,667.476440,94053.898438,-0.433422,-0.009290,0.312927,-0.002502,0.025952,11.125000,14.320106,0,0.000000,0, 202
192, 101,13537,13524,1,1,1.386543,9.445061,1.400557,-0.027445,-0.008271,-0.152559,4.921645,9.832555,4.970677,-0.638867,0.468469,-0.258503,169.244342,141.605804,-164.760719,-0.936020,0.044322,-0.336217,-0.094126,667.776001,94056.335938,0.592702,-0.031151,0.472229,0.297058,0.263571,11.250000,14.398767,0,0.000000,0, 202
193, 101,15662,15631,1,1,1.625270,9.430726,1.503865,-0.000582,-0.003294,-0.113808,4.921645,10.793607,4.970677,-0.526409,-0.168681,-0.914474,168.777840,142.798888,-163.366486,-0.937816,0.045777,-0.327506,-0.105574,667.743408,94055.023438,-0.012903,0.180826,0.472229,0.264465,0.266013,11.250000,14.500561,0,0.000000,0, 202
194, 101,17793,17788,1,1,1.748124,9.367197,1.294450,0.012624,0.109646,-0.185193,6.363223,7.910451,4.490152,5.427476,-6.662939,3.975071,169.889822,144.550039,-163.972365,-0.943433,0.036176,-0.311433,-0.107870,667.596375,94055.476562,0.053564,-0.118425,0.472229,0.117432,0.119326,11.375000,14.574592,0,0.000000,0, 202
195, 101,20012,20011,1,1,0.976824,9.579047,0.676463,0.007042,0.061734,-0.148743,4.921645,8.871503,4.970677,-2.700333,-2.904186,-2.911230,174.848444,146.648342,-171.577330,-0.955339,0.021883,-0.289054,-0.057415,667.869080,94053.117188,0.154595,0.162565,0.472229,0.390137,0.338368,11.375000,14.667129,0,0.000000,0, 202
196, 101,22142,22127,1,1,0.151777,9.594343,1.000703,-0.145339,-0.112902,-0.155172,3.480067,8.871503,4.970677,-2.409562,0.534424,3.864550,172.952233,146.539236,-174.098052,-0.955503,0.043993,-0.289973,-0.031539,667.791382,94054.585938,-0.608675,0.137333,0.645996,0.312439,0.395905,11.500000,14.750410,0,0.000000,0, 202
197, 101,0,4644,1,1,3.765047,8.678675,-1.424957,0.437443,0.164070,-0.245520,7.324274,8.871503,3.048574,-0.363266,2.856526,-0.157480,8.474127,13.495264,18.651097,0.975863,0.091389,0.103737,0.169048,508.240784,94037.867188,1132.097534,309.310944,0.000000,-160.512085,-305.186462,12.625000,17.192665,0,0.000000,0, 202
198, 101,4855,5053,1,1,3.884774,8.895954,-1.329293,-0.028220,-0.064034,-0.003470,7.324274,9.352029,2.568048,-1.174008,4.888728,0.843684,8.433171,15.803002,21.542437,0.968532,0.097168,0.121072,0.194542,655.646973,94041.929688,784.838379,1098.947510,0.000000,-13.105896,-114.733955,13.625000,17.238907,0,0.000000,0, 202
199, 101,0,4775,1,1,0.185864,-0.307563,9.893624,0.210251,-2.391709,-0.196394,4.441119,0.222038,15.061721,-0.183150,0.967332,-0.083178,101.921019,179.059010,156.495302,0.688599,-0.696218,-0.145145,-0.141581,566.307983,93908.703125,1479.924072,956.250305,0.000000,-114.376465,-247.699951,13.500000,17.386879,0,0.000000,0, 202
200, 101,4984,5165,1,1,0.123522,-0.352612,9.907894,-0.025033,0.069214,0.113663,3.960593,-2.180591,15.061721,0.006879,-0.172849,-2.376022,87.446338,179.985429,156.465304,0.676630,-0.707517,-0.147298,-0.141047,667.522095,93904.968750,734.664673,1173.269653,0.000000,-13.162354,-75.705635,14.000000,17.442368,0,0.000000,0, 202
201, 101,7264,7257,1,1,0.003098,-0.377797,9.915769,-0.165192,-0.049678,0.120464,4.441119,-0.739014,14.581195,0.044246,-1.420148,2.701360,88.283398,-179.910803,156.178532,0.681556,-0.702057,-0.148638,-0.143189,680.792419,93907.179688,-0.120653,39.444511,0.318298,0.107971,-0.660916,14.125000,17.530222,0,0.000000,0, 202
202, 101,9343,9302,1,1,0.228566,-0.268163,9.906946,0.174738,0.088017,0.110279,4.441119,-0.258488,14.100669,-0.209021,-0.521814,-0.481552,87.534373,179.556248,155.708519,0.679625,-0.702638,-0.154328,-0.143503,680.621582,93907.453125,0.410606,1.427332,0.477173,-0.062866,-0.060613,14.125000,17.622700,0,0.000000,0, 202
203, 101,11431,11410,1,1,0.142533,-0.324862,9.926321,0.005489,0.021968,0.131632,3.480067,-1.700066,13.620144,-0.205666,0.441682,-0.348120,87.826486,179.961373,156.116186,0.679245,-0.704136,-0.148867,-0.143730,680.485352,93912.531250,-0.426914,0.139460,0.477173,-0.199097,-0.076541,14.250000,17.692057,0,0.000000,0, 202
204, 101,13521,13507,1,1,0.177127,-0.313278,9.915561,0.028255,-0.002748,0.121049,3.960593,-0.258488,12.659092,-0.864799,-0.692647,-0.002705,87.946458,-179.967466,155.919026,0.679090,-0.703791,-0.150317,-0.144638,680.787109,93905.843750,0.623698,-0.042508,0.477173,0.102661,-0.017503,14.250000,17.747541,0,0.000000,0, 202
205, 101,15615,15615,1,1,0.136180,-0.305916,9.919038,-0.029366,0.026610,0.123609,4.441119,-1.219540,13.620144,-0.466747,-0.351454,0.426290,87.912902,-179.844659,155.580412,0.678616,-0.703384,-0.153166,-0.145845,680.480042,93908.976562,-0.244245,-0.127099,0.477173,-0.204407,-0.172968,14.375000,17.821520,0,0.000000,0, 202
206, 101,17781,17775,1,1,0.177359,-0.340619,9.902664,0.002259,-0.028936,0.109065,3.480067,-0.739014,12.659092,-0.543471,0.594945,0.357763,87.949887,-179.889834,155.673672,0.678902,-0.703348,-0.152279,-0.145619,680.446045,93911.101562,-0.411518,-0.078296,0.477173,-0.238403,-0.127083,14.375000,17.886250,0,0.000000,0, 202
207, 101,19876,19844,1,1,0.123546,-0.337018,9.906718,-0.003522,-0.053746,0.112073,3.480067,-0.258488,14.100669,-0.830477,-0.048258,-0.445702,88.241577,179.862281,155.500362,0.678401,-0.703388,-0.151747,-0.148292,680.259277,93914.195312,-0.964279,-0.244829,0.477173,-0.425171,-0.204979,14.375000,17.950979,0,0.000000,0, 202
208, 101,21980,21960,1,1,0.162676,-0.421937,9.909401,-0.095922,-0.069234,0.118008,4.921645,-0.739014,13.139618,0.185978,-0.468277,-0.638950,87.793489,-179.630287,154.860756,0.674381,-0.705638,-0.156408,-0.151069,680.647522,93907.515625,0.417205,0.166738,0.477173,-0.036926,-0.078504,14.375000,18.015707,0,0.000000,0, 202
209, 101,24088,24078,1,1,0.150621,-0.280397,9.915265,0.074658,0.152271,0.117923,2.999541,-0.739014,13.620144,0.295803,0.284800,-1.552267,87.284394,179.666022,154.793356,0.673060,-0.706662,-0.155940,-0.152649,680.449341,93910.617188,-0.149140,-0.121444,0.477173,-0.235107,-0.152498,14.500000,18.085058,0,0.000000,0, 202
210, 101,26199,26154,1,1,0.141726,-0.285936,9.913451,-0.006579,0.069498,0.119469,2.999541,-1.700066,13.620144,0.132942,0.484765,-0.347062,87.796638,179.989951,154.426766,0.678338,-0.700628,-0.158724,-0.154225,680.423889,93912.718750,-0.708859,0.004547,0.477173,-0.260559,-0.098605,14.500000,18.145161,0,0.000000,0, 202
211, 101,28310,28277,1,1,0.109485,-0.242256,9.925531,0.167563,-0.135574,0.125751,3.960593,-1.219540,12.659092,-0.216068,0.882859,-1.938376,89.249057,178.975490,153.543827,0.679305,-0.697220,-0.163034,-0.160777,680.543823,93907.000000,0.435229,0.000968,0.477173,-0.140625,-0.230698,14.500000,18.209887,0,0.000000,0, 202
212, 101,30436,30409,1,1,0.118385,-0.266714,9.914109,-0.025694,-0.025422,0.117337,3.960593,-1.219540,15.061721,0.371181,-0.519802,-0.585237,88.467581,179.998817,150.973258,0.674321,-0.694624,-0.178945,-0.175407,680.511963,93910.093750,-0.825859,-0.005044,0.477173,-0.172485,-0.050375,14.625000,18.279236,0,0.000000,0, 202
213, 101,32568,32530,1,1,0.133567,-0.198087,9.916476,0.070454,0.091463,0.117682,3.480067,0.222038,12.178566,-0.132536,-0.215957,-0.218685,88.096716,179.712563,150.980731,0.672636,-0.696264,-0.178390,-0.175939,680.580750,93909.234375,-0.717254,0.071654,0.477173,-0.103699,0.038654,14.625000,18.334713,0,0.000000,0, 202
214, 101,34785,34752,1,1,0.113639,-0.301972,9.901041,0.013298,-0.006551,0.105286,3.960593,0.702564,13.620144,-0.279203,-0.157397,-0.667762,88.193465,179.637131,150.568966,0.672466,-0.695166,-0.180296,-0.178964,680.559082,93910.367188,-0.788096,-0.160948,0.477173,-0.125366,0.085937,14.750000,18.408682,0,0.000000,0, 202
215, 101,36919,36872,1,1,0.146416,-0.337456,9.898644,-0.028270,-0.117071,0.103745,4.921645,0.222038,14.581195,-0.628033,-1.050449,0.243154,88.560506,179.942112,150.573214,0.675183,-0.692546,-0.181495,-0.177673,680.642883,93911.492188,0.026270,-0.241151,0.477173,-0.041565,-0.008604,14.750000,18.478027,0,0.000000,0, 202
216, 101,39048,39008,1,1,0.136585,-0.334846,9.911236,-0.027935,-0.148044,0.115687,4.441119,-0.739014,14.581195,-0.038947,-0.803312,0.352057,88.781278,179.906431,150.801547,0.671927,-0.696416,-0.179871,-0.176537,680.876526,93901.835938,0.383232,0.231455,0.477173,0.192078,0.066307,14.750000,18.542747,0,0.000000,0, 202
217, 101,41185,41177,1,1,0.120570,-0.315723,9.912652,-0.004404,-0.058707,0.117237,3.480067,-1.700066,13.139618,-0.900473,-0.454981,-0.463796,88.408773,179.730950,150.427922,0.673701,-0.693535,-0.181366,-0.179564,680.864746,93903.921875,0.313642,-0.112266,0.477173,0.180298,0.028286,14.875000,18.607468,0,0.000000,0, 202
218, 101,43330,43297,1,1,0.082048,-0.163893,9.927591,0.019242,0.028901,0.128222,2.999541,0.222038,14.100669,-0.135976,0.139103,0.636605,88.777344,179.827324,150.066701,0.675513,-0.690640,-0.183535,-0.181696,680.702332,93905.007812,-0.176309,-0.127142,0.477173,0.017883,0.088289,14.750000,18.667564,0,0.000000,0, 202
219, 101,45528,45515,1,1,0.085071,-0.228860,9.911436,-0.040979,-0.050885,0.113228,3.960593,-1.219540,13.620144,0.198431,-1.453900,-0.246824,88.902958,179.999868,149.941504,0.676350,-0.689426,-0.185107,-0.181598,680.753784,93908.070312,-0.243518,0.034157,0.477173,0.069336,0.129459,15.000000,18.736904,0,0.000000,0, 202
220, 101,47608,47597,1,1,0.134912,-0.253002,9.920609,0.043452,0.031954,0.123605,2.999541,-0.258488,13.620144,-0.170668,-0.163205,0.051930,88.161008,179.691581,149.942678,0.671370,-0.694275,-0.184464,-0.182255,680.790833,93906.226562,0.000276,-0.201339,0.477173,0.106384,0.063350,15.000000,18.801622,0,0.000000,0, 202
221, 101,49690,49679,1,1,0.091677,-0.251955,9.914450,-0.018817,0.036239,0.116990,3.480067,0.222038,13.139618,0.197242,-0.737457,0.963316,88.266220,179.833485,149.772333,0.671969,-0.693161,-0.186161,-0.182565,680.870911,93907.312500,-0.271277,0.143409,0.477173,0.186462,0.283717,15.125000,18.866339,0,0.000000,0, 202
222, 101,51851,51815,1,1,0.136482,-0.335434,9.899829,-0.021539,-0.085684,0.105056,2.519016,-0.739014,13.139618,0.179874,-0.891776,0.157424,88.421443,179.829947,149.776186,0.672908,-0.692262,-0.185869,-0.182816,680.853394,93901.546875,-0.214080,-0.337575,0.477173,0.168945,0.173230,15.125000,18.931053,0,0.000000,0, 202
223, 101,53939,53902,1,1,0.095299,-0.266097,9.918081,-0.036958,0.020464,0.121018,4.441119,-0.258488,13.139618,-0.719819,-0.673440,-0.031817,88.277811,179.910407,149.598150,0.671887,-0.692687,-0.187647,-0.183141,680.833618,93905.570312,0.093363,-0.159611,0.477173,0.149170,0.163537,15.125000,19.000391,0,0.000000,0, 202
224, 101,56026,55984,1,1,0.119459,-0.324481,9.893059,-0.050689,-0.104797,0.097415,3.480067,0.702564,14.100669,-0.336291,-0.287559,0.459600,88.637421,179.933725,149.436821,0.673837,-0.690274,-0.188180,-0.184537,680.859192,93907.632812,0.119230,0.055470,0.477173,0.174744,0.230970,15.125000,19.069727,0,0.000000,0, 202
225, 101,58121,58077,1,1,0.084070,-0.176999,9.920763,-0.043610,-0.094775,0.113599,3.960593,-0.739014,13.620144,-0.049685,-0.840563,-0.260966,88.739197,179.951429,149.226588,0.670799,-0.692567,-0.188818,-0.186352,681.183960,93897.914062,0.587687,0.106634,0.499512,0.499512,0.256653,15.250000,19.125195,0,0.000000,0, 202
226, 101,60221,60219,1,1,0.112528,-0.243659,9.898239,0.006194,-0.036909,0.100806,2.999541,-2.180591,13.620144,-0.708206,-0.006412,-0.318269,88.669953,179.792067,148.851925,0.672844,-0.689344,-0.190815,-0.188880,681.147766,93904.875000,0.882679,0.095636,0.560425,0.463318,0.331892,15.375000,19.199152,0,0.000000,0, 202
227, 101,62322,62312,1,1,0.115283,-0.295296,9.902277,-0.028729,-0.004584,0.106307,3.480067,-0.739014,13.139618,-0.424624,-0.465963,0.504710,88.221626,179.842993,148.524144,0.669688,-0.691337,-0.193829,-0.189741,680.887329,93903.984375,-0.255767,-0.161072,0.560425,0.202881,0.244056,15.500000,19.263863,0,0.000000,0, 202
228, 101,64431,64414,1,1,0.097524,-0.209500,9.929698,0.008426,-0.001076,0.131383,4.441119,-0.739014,14.100669,-0.769526,0.570967,-1.023086,88.682186,179.795495,148.323732,0.672045,-0.688380,-0.193990,-0.191980,680.995178,93905.031250,0.562023,0.145540,0.560425,0.310730,0.244506,15.375000,19.319328,0,0.000000,0, 202
229, 101,66546,66513,1,1,0.081311,-0.226881,9.917799,0.005078,0.035523,0.119662,3.960593,-1.219540,13.620144,-0.494541,0.313274,0.468615,88.431798,179.687865,148.563786,0.670756,-0.690428,-0.192333,-0.190798,680.979309,93905.109375,0.299935,0.039259,0.560425,0.294861,0.302657,15.500000,19.388659,0,0.000000,0, 202
230, 101,68743,68714,1,1,0.099363,-0.255878,9.913250,-0.033055,-0.039835,0.115914,3.960593,-0.258488,14.100669,0.078719,-0.651906,0.030296,88.670458,179.902784,148.309020,0.672134,-0.688246,-0.194728,-0.191402,680.912598,93903.226562,0.209041,0.006445,0.560425,0.228149,0.139873,15.500000,19.453367,0,0.000000,0, 202
231, 101,70862,70819,1,1,0.084282,-0.252695,9.936192,0.027077,0.053328,0.128810,3.480067,0.702564,13.620144,0.409380,-0.934313,-0.710974,88.244719,179.730909,148.291589,0.669247,-0.690992,-0.194538,-0.191814,681.163086,93903.289062,-0.271287,0.294208,0.596985,0.478638,0.467828,15.500000,19.518074,0,0.000000,0, 202
232, 101,72985,72976,1,1,0.102936,-0.268787,9.920549,0.019955,0.040801,0.123620,3.960593,-1.219540,14.581195,0.379188,-0.129429,0.346405,88.129091,179.589169,148.802515,0.669156,-0.692757,-0.190816,-0.189491,681.091675,93904.343750,0.152325,0.093843,0.655945,0.407227,0.428697,15.625000,19.587402,0,0.000000,0, 202
233, 101,75115,75085,1,1,0.118122,-0.271093,9.913922,-0.037024,0.013237,0.117254,2.999541,-0.739014,13.620144,0.037239,-0.760605,0.171340,88.229979,179.988380,148.870762,0.670554,-0.691635,-0.192574,-0.186851,681.046448,93904.406250,-1.135548,-0.002169,0.771851,0.362000,0.539379,15.625000,19.656729,0,0.000000,0, 202
234, 101,77247,77244,1,1,0.107829,-0.302027,9.904197,-0.024322,0.054149,0.108210,3.480067,0.222038,14.581195,-0.394235,-0.147985,-0.238248,87.870957,179.764008,148.637252,0.669115,-0.692272,-0.192032,-0.190178,681.553040,93898.562500,0.437348,0.409458,0.907715,0.868591,0.726190,15.625000,19.707569,0,0.000000,0, 202
235, 101,79380,79356,1,1,0.111206,-0.308761,9.911371,-0.035858,-0.053275,0.115595,3.480067,-0.739014,14.100669,-0.160242,-0.285180,0.143081,88.453047,179.811751,148.158824,0.670419,-0.689415,-0.195461,-0.192458,680.774414,93904.507812,0.666677,-0.333296,0.907715,0.089966,-0.022291,15.750000,19.776894,0,0.000000,0, 202
236, 101,81522,81488,1,1,0.118452,-0.261669,9.931563,0.017125,-0.067970,0.134469,3.960593,-1.219540,13.620144,-0.284851,0.607664,0.753532,88.758547,179.625055,146.051301,0.668249,-0.684254,-0.206470,-0.206422,681.032654,93900.632812,0.132475,0.259258,0.907715,0.348206,0.266905,15.875000,19.841597,0,0.000000,0, 202
237, 101,83669,83654,1,1,-0.060001,-0.099830,9.914322,-0.042751,0.200711,0.111882,2.999541,-0.258488,13.620144,-0.302311,-0.178169,8.554370,88.573873,179.628839,144.303538,0.663932,-0.682089,-0.217252,-0.216218,680.996948,93902.640625,-0.488091,-0.077508,0.907715,0.312500,0.336596,15.875000,19.910919,0,0.000000,0, 202
238, 101,85929,85915,1,1,0.136234,-0.261449,9.914213,0.023174,-0.075959,0.117278,3.960593,-1.219540,13.620144,-0.234371,0.599512,1.067587,88.749668,179.646871,145.084980,0.666473,-0.682500,-0.212376,-0.211904,681.239624,93899.742188,0.076746,-0.106249,0.907715,0.555176,0.525271,15.875000,19.984863,0,0.000000,0, 202
239, 101,88002,87994,1,1,0.130176,-0.251856,9.917160,0.018122,-0.038605,0.120120,3.480067,-1.219540,14.100669,-0.134072,0.139097,0.798327,88.598741,179.686964,145.359526,0.666154,-0.683813,-0.211251,-0.209790,681.077026,93899.781250,0.063946,-0.125365,0.907715,0.392578,0.275591,16.000000,20.049562,0,0.000000,0, 202
240, 101,90072,90069,1,1,0.100151,-0.281148,9.930987,-0.033189,0.051286,0.134283,2.999541,-0.739014,12.659092,-0.323795,0.591872,-0.268027,88.021160,179.830329,148.285593,0.668060,-0.692123,-0.195528,-0.190869,681.270386,93900.789062,0.181547,0.266901,0.907715,0.585938,0.520838,16.125000,20.109640,0,0.000000,0, 202
241, 101,92150,92105,1,1,0.153248,-0.351406,9.911625,-0.011992,0.007022,0.120021,3.480067,-0.258488,14.100669,1.033689,-0.000901,0.009133,87.971088,179.754419,148.969745,0.668875,-0.693583,-0.190594,-0.187677,681.361755,93899.828125,-0.354562,-0.144273,1.184814,0.677307,0.808079,16.125000,20.160475,0,0.000000,0, 202
242, 101,94238,94194,1,1,0.115975,-0.291085,9.924989,-0.005432,0.056341,0.128772,3.480067,-0.739014,14.100669,-0.191396,-0.041076,0.401871,87.890635,179.737753,148.935130,0.669908,-0.692469,-0.190624,-0.188074,680.956848,93905.742188,0.547972,-0.121876,1.184814,0.272400,0.306156,16.250000,20.225172,0,0.000000,0, 202
243, 101,96331,96327,1,1,0.149751,-0.286376,9.926999,0.018546,0.008219,0.131237,2.999541,-0.258488,14.100669,-0.815814,0.332620,-0.072891,88.091948,179.771945,148.674244,0.669032,-0.692464,-0.192722,-0.189074,680.997314,93901.843750,0.069652,-0.018342,1.184814,0.312866,0.224810,16.125000,20.294489,0,0.000000,0, 202
244, 101,98428,98423,1,1,0.116233,-0.315748,9.911704,-0.023311,0.006230,0.116384,3.960593,-0.739014,14.581195,-1.524737,0.443200,-0.996556,88.055571,179.763394,148.783185,0.668977,-0.692873,-0.192073,-0.188429,681.234863,93900.875000,-0.384620,0.251774,1.184814,0.550415,0.565358,16.250000,20.354563,0,0.000000,0, 202
245, 101,100529,100520,1,1,0.185365,-0.378932,9.908613,0.018105,-0.120332,0.115842,3.480067,-1.700066,13.620144,-0.199275,-0.355340,-0.095720,88.267771,179.670735,148.650516,0.669881,-0.691561,-0.191982,-0.190118,681.255249,93897.937500,-0.469757,-0.033593,1.184814,0.570801,0.530461,16.250000,20.410015,0,0.000000,0, 202
246, 101,102713,102672,1,1,0.148521,-0.286025,9.931254,0.030300,-0.014929,0.135425,3.960593,-0.739014,14.100669,0.491066,0.200685,0.517899,88.231988,179.694299,148.522327,0.669493,-0.691517,-0.192953,-0.190665,681.177612,93902.859375,0.499883,-0.026599,1.184814,0.493164,0.452245,16.375000,20.479330,0,0.000000,0, 202
247, 101,104817,104817,1,1,0.151599,-0.310197,9.916073,0.009392,-0.014872,0.121066,3.480067,-0.739014,13.139618,-0.864952,1.740748,-0.585541,88.103498,179.729557,147.733508,0.667452,-0.690862,-0.198133,-0.194835,681.262695,93896.968750,-0.146743,0.027175,1.184814,0.578247,0.511860,16.375000,20.539402,0,0.000000,0, 202
248, 101,106921,106914,1,1,0.143717,-0.297923,9.921309,-0.016819,0.016477,0.125794,3.480067,-0.258488,14.100669,0.386717,-0.880859,0.445173,88.008251,179.875627,147.588818,0.666889,-0.690920,-0.200019,-0.194633,681.423218,93898.937500,0.520970,0.182265,1.184814,0.738770,0.677048,16.500000,20.604094,0,0.000000,0, 202
249, 101,109032,109014,1,1,0.197541,-0.291276,9.940860,0.060407,-0.018178,0.145888,3.480067,-1.219540,13.620144,0.118991,-0.679039,0.681945,88.078445,179.727549,147.994271,0.667739,-0.691460,-0.196591,-0.193285,681.904785,93895.000000,1.524563,0.747455,1.267334,1.220337,0.911846,16.500000,20.668785,0,0.000000,0, 202
250, 101,111154,111121,1,1,0.091351,-0.300265,9.919106,-0.047483,0.063177,0.122756,3.960593,-0.258488,13.139618,-0.134806,0.727081,-0.635720,87.885554,179.801848,147.973357,0.666669,-0.692424,-0.197475,-0.192627,681.442810,93896.960938,-0.512511,-0.455782,1.271667,0.758362,0.806001,16.500000,20.714993,0,0.000000,0, 202
251, 101,113274,113271,1,1,0.153956,-0.312694,9.922132,0.010687,-0.032735,0.127193,2.999541,-0.258488,14.100669,0.959665,-0.510759,-0.842450,88.189415,179.715801,147.439988,0.666515,-0.690768,-0.200300,-0.196157,681.149841,93898.921875,-0.767488,-0.325264,1.271667,0.465393,0.519086,16.500000,20.770441,0,0.000000,0, 202
252, 101,115400,115384,1,1,0.130269,-0.297874,9.916847,0.014245,0.033191,0.121109,3.480067,-0.739014,13.620144,-0.365835,0.203660,-0.460600,87.953357,179.626312,147.454454,0.665887,-0.691424,-0.199471,-0.196820,680.971741,93908.734375,0.105585,0.071083,1.271667,0.287292,0.460204,16.625000,20.848991,0,0.000000,0, 202
253, 101,117536,117498,1,1,0.100613,-0.304572,9.921823,-0.060180,0.034269,0.125765,4.921645,0.702564,14.581195,-0.400050,-0.254013,-1.259462,88.013906,179.867090,146.686864,0.665355,-0.689306,-0.205391,-0.199937,681.129761,93902.820312,0.869146,0.008081,1.271667,0.445312,0.313279,16.625000,20.904438,0,0.000000,0, 202
254, 101,119750,119711,1,1,0.169466,-0.291782,9.917082,0.043123,-0.000456,0.121727,3.480067,-1.219540,14.581195,-0.046984,1.408521,-1.024120,88.056274,179.654630,147.022745,0.665812,-0.690022,-0.202060,-0.199339,681.378296,93900.835938,0.062949,0.407944,1.271667,0.693848,0.716829,16.750000,20.964504,0,0.000000,0, 202
255, 101,121884,121872,1,1,0.147347,-0.331865,9.913720,-0.030206,-0.002836,0.119321,4.441119,-0.258488,14.581195,-0.326901,-0.296796,1.357837,87.947046,179.831217,146.641839,0.664445,-0.690042,-0.204651,-0.201178,681.177612,93903.757812,-0.320974,-0.168537,1.271667,0.493164,0.593793,16.875000,21.029190,0,0.000000,0, 202
256, 101,124023,123989,1,1,0.139047,-0.320729,9.925988,0.004268,-0.020320,0.131120,2.999541,-0.739014,14.100669,0.647636,-0.705415,1.229715,88.134131,179.606969,146.041957,0.664461,-0.687899,-0.207542,-0.205457,681.040955,93901.773438,-0.107095,-0.070484,1.271667,0.356506,0.346362,16.875000,21.080013,0,0.000000,0, 202
257, 101,126169,126158,1,1,0.161356,-0.327170,9.912364,-0.011649,-0.045634,0.117963,2.999541,-1.219540,13.620144,0.309109,-0.196789,0.123731,88.176226,179.775551,145.794117,0.664581,-0.686907,-0.209933,-0.205961,681.407959,93899.773438,-0.553401,0.028978,1.271667,0.723511,0.828228,16.875000,21.140078,0,0.000000,0, 202
258, 101,128358,128321,1,1,0.101451,-0.256506,9.934139,0.013217,0.128549,0.136128,3.960593,0.222038,14.100669,-0.140634,0.144025,-0.232035,87.710264,179.560919,145.236582,0.664494,-0.684970,-0.212070,-0.210451,681.462036,93898.750000,-0.503980,-0.083474,1.271667,0.777588,0.830699,16.875000,21.204762,0,0.000000,0, 202
259, 101,130436,130397,1,1,0.116547,-0.342587,9.913585,-0.042202,0.023706,0.119069,4.441119,0.222038,12.659092,-0.962069,-0.149508,0.563259,87.853431,179.667921,145.225845,0.661750,-0.687612,-0.211761,-0.210792,681.600220,93898.718750,0.544061,0.065252,1.271667,0.915771,0.874868,17.000000,21.260202,0,0.000000,0, 202
260, 101,132520,132480,1,1,0.155483,-0.312201,9.938548,0.031005,-0.021138,0.143595,3.960593,0.702564,14.100669,-0.900226,-0.109091,1.233696,88.134651,179.519720,144.900605,0.661859,-0.686285,-0.215043,-0.211453,681.477539,93896.710938,-0.495140,-0.010698,1.271667,0.793091,0.802466,17.000000,21.315645,0,0.000000,0, 202
261, 101,134613,134570,1,1,0.134113,-0.283644,9.931973,-0.034353,0.070556,0.126264,3.960593,0.222038,13.620144,-0.586875,-0.223279,0.845550,88.040353,179.547095,144.564806,0.662936,-0.684036,-0.214467,-0.215905,681.446045,93897.656250,-0.147878,-0.053867,1.271667,0.761597,0.742846,17.250000,21.371086,0,0.000000,0, 202
262, 101,136784,136757,1,1,0.124433,-0.286790,9.930692,-0.066863,0.050947,0.134256,3.960593,-0.258488,14.100669,0.784554,-0.711138,0.304800,87.942825,-179.990880,144.491340,0.661249,-0.685393,-0.219511,-0.211663,681.525391,93903.515625,-0.801592,-0.144380,1.438965,0.840942,1.102574,17.125000,21.435766,0,0.000000,0, 202
263, 101,138877,138844,1,1,0.113251,-0.323731,9.907060,-0.016192,0.003544,0.111981,3.960593,-0.739014,13.620144,-0.292660,0.081019,-0.330930,88.079046,179.528408,144.161169,0.660517,-0.684863,-0.218454,-0.216698,681.815308,93894.609375,1.051797,-0.048478,1.438965,1.130859,1.005061,17.250000,21.491205,0,0.000000,0, 202
264, 101,140974,140933,1,1,0.226215,-0.313780,9.933680,0.184481,-0.109022,0.137898,3.480067,-0.739014,13.139618,-0.638377,-0.299741,2.213630,88.398193,178.913622,143.639206,0.660201,-0.683164,-0.217397,-0.223966,681.720764,93894.570312,0.501418,0.078214,1.438965,1.036316,0.848723,17.375000,21.537403,0,0.000000,0, 202
265, 101,143075,143029,1,1,0.091358,-0.258566,9.928704,0.124063,0.005705,0.157851,3.480067,0.702564,13.620144,-0.329547,-1.585186,-0.927853,88.103382,179.151286,143.195831,0.659478,-0.682143,-0.225764,-0.220907,681.180908,93904.351562,-0.324201,-0.154900,1.438965,0.496460,0.643493,17.375000,21.602081,0,0.000000,0, 202
266, 101,145180,145175,1,1,0.133762,-0.295693,9.924775,-0.030671,-0.041389,0.128946,3.960593,-0.739014,14.581195,0.295996,-0.170224,0.964181,88.409873,179.773502,143.220434,0.661173,-0.680676,-0.224844,-0.221305,681.489868,93900.359375,0.527081,0.263030,1.438965,0.805420,0.733243,17.375000,21.657518,0,0.000000,0, 202
267, 101,147290,147276,1,1,0.102081,-0.304634,9.929035,-0.052397,0.037204,0.133024,3.960593,0.222038,13.620144,-0.401451,-0.310160,-1.362931,88.025142,179.722330,143.242891,0.658825,-0.683033,-0.225157,-0.220724,681.208313,93899.328125,0.234222,-0.290031,1.438965,0.523865,0.571579,17.500000,21.703716,0,0.000000,0, 202
268, 101,149411,149380,1,1,0.112146,-0.268936,9.929355,0.023880,0.017559,0.132585,2.999541,-0.739014,14.581195,-0.329578,-0.785894,-0.951203,88.269519,179.448481,143.119005,0.659492,-0.681904,-0.223842,-0.223543,681.106140,93905.164062,-0.263655,-0.176766,1.438965,0.421692,0.497604,17.500000,21.773012,0,0.000000,0, 202
269, 101,151530,151528,1,1,0.125246,-0.282032,9.933543,0.047045,0.030078,0.137178,3.960593,-0.258488,14.581195,-0.673947,0.221955,-0.609864,88.093615,179.324895,142.943456,0.659259,-0.681429,-0.225666,-0.223845,681.105347,93903.132812,-0.363804,-0.054025,1.438965,0.420898,0.492615,17.500000,21.823828,0,0.000000,0, 202
270, 101,153726,153688,1,1,0.098548,-0.298966,9.917673,-0.015654,-0.021768,0.121631,3.480067,-0.739014,14.581195,-0.891656,0.451283,2.466023,88.406403,179.499516,142.794271,0.659773,-0.680382,-0.225799,-0.225378,681.142273,93904.046875,-0.038628,-0.054130,1.438965,0.457825,0.525784,17.500000,21.883883,0,0.000000,0, 202
271, 101,155846,155839,1,1,0.135852,-0.315137,9.933756,-0.017167,0.005670,0.138665,3.480067,0.222038,14.100669,-0.164893,-0.481577,-1.515259,88.048699,179.615602,142.543097,0.657388,-0.681725,-0.228076,-0.225994,681.036743,93901.031250,-0.560238,-0.177059,1.438965,0.352295,0.480134,17.500000,21.930077,0,0.000000,0, 202
272, 101,157971,157947,1,1,0.123836,-0.300461,9.914858,0.025374,0.019681,0.119130,3.480067,0.222038,14.581195,-1.230402,-0.181080,-0.104076,88.073309,179.366136,142.563520,0.657066,-0.682095,-0.227059,-0.226836,681.410217,93900.960938,0.099812,0.235114,1.438965,0.725769,0.698771,17.500000,21.985510,0,0.000000,0, 202
273, 101,160105,160059,1,1,0.125364,-0.253206,9.934899,0.065020,0.050972,0.137573,2.519016,-1.700066,13.620144,-0.303878,-0.640215,-0.526020,88.107425,179.312109,142.588163,0.657208,-0.682051,-0.226533,-0.227083,681.310486,93900.882812,0.593342,0.049721,1.438965,0.626038,0.580142,17.750000,22.040943,0,0.000000,0, 202
274, 101,162243,162225,1,1,0.181124,-0.387336,9.913624,-0.000090,-0.104239,0.121293,2.999541,-1.219540,13.620144,-0.403489,0.493634,0.998569,88.192420,179.458111,142.259440,0.657359,-0.680630,-0.229160,-0.228272,681.265076,93898.843750,0.073204,0.039691,1.438965,0.580627,0.557034,17.750000,22.091755,0,0.000000,0, 202
275, 101,164385,164344,1,1,0.140074,-0.293219,9.929693,0.008466,0.021208,0.133983,2.999541,0.222038,13.139618,0.289317,0.666936,-1.146005,88.050380,179.533626,141.599329,0.655348,-0.679962,-0.233797,-0.231320,681.174011,93901.718750,0.022531,0.200627,1.438965,0.489563,0.453906,17.750000,22.147186,0,0.000000,0, 202
276, 101,166532,166512,1,1,0.130462,-0.268146,9.924414,0.007363,0.054705,0.127739,2.999541,-0.258488,13.620144,-0.305766,0.244889,-1.997936,88.004938,179.581000,141.423151,0.654822,-0.679768,-0.235206,-0.231953,681.197449,93900.656250,0.471989,0.010072,1.438965,0.513000,0.424984,17.750000,22.197998,0,0.000000,0, 202
277, 101,168732,168732,1,1,0.132617,-0.249801,9.944132,0.050266,0.011554,0.147019,2.519016,0.222038,14.581195,0.158516,0.047075,1.107012,88.333464,179.403566,141.184013,0.655907,-0.677751,-0.234935,-0.235043,680.685547,93908.453125,-0.690326,-0.211799,1.438965,0.001099,0.207076,17.875000,22.258047,0,0.000000,0, 202
278, 101,170892,170870,1,1,0.110607,-0.272119,9.928917,-0.002610,0.011910,0.132254,3.960593,0.222038,13.139618,0.167640,-0.636807,1.335643,88.309606,179.523463,141.020484,0.655684,-0.677311,-0.236639,-0.235223,680.946899,93907.406250,0.000166,0.135321,1.438965,0.262451,0.307162,17.875000,22.295000,0,0.000000,0, 202
279, 101,172975,172955,1,1,0.125690,-0.281172,9.918008,0.009506,0.011447,0.121778,3.960593,-0.258488,14.581195,-0.017587,-0.952919,-0.123698,88.211094,179.502836,141.521615,0.656080,-0.678945,-0.233756,-0.232274,681.156250,93903.351562,0.564255,0.007928,1.438965,0.471802,0.378174,18.000000,22.364286,0,0.000000,0, 202
280, 101,175063,175043,1,1,0.125007,-0.322248,9.923925,0.007466,0.012862,0.128932,2.999541,-0.258488,13.620144,-0.226945,0.581264,-0.598278,88.026761,179.346178,140.976484,0.653543,-0.679190,-0.236465,-0.235936,681.277161,93903.281250,0.722681,0.276265,1.438965,0.592712,0.524985,18.000000,22.405859,0,0.000000,0, 202
281, 101,177149,177127,1,1,0.116874,-0.308048,9.914335,-0.003739,-0.022118,0.118783,2.999541,1.183090,13.620144,0.072909,-0.201000,0.582001,88.324386,179.412704,140.571973,0.654609,-0.676520,-0.238623,-0.238470,681.130249,93905.156250,-0.100868,0.169980,1.438965,0.445801,0.506654,18.000000,22.461287,0,0.000000,0, 202
282, 101,179245,179216,1,1,0.116759,-0.320706,9.916213,0.002242,-0.002578,0.121084,3.480067,0.702564,13.139618,0.012485,0.147817,0.798205,88.156678,179.329021,140.501813,0.653292,-0.677499,-0.238907,-0.239013,681.070801,93901.125000,-0.201273,0.059776,1.438965,0.386353,0.377632,18.125000,22.507475,0,0.000000,0, 202
283, 101,181346,181308,1,1,0.076405,-0.287264,9.933742,-0.033599,0.047060,0.137020,4.441119,-0.258488,13.620144,0.562581,-0.761004,-0.220240,88.172647,179.475023,140.318819,0.653319,-0.676730,-0.240791,-0.239230,681.307129,93901.046875,1.406032,-0.053366,1.438965,0.622681,0.331846,18.250000,22.549046,0,0.000000,0, 202
284, 101,183452,183451,1,1,0.145134,-0.287823,9.917024,0.000469,-0.020332,0.121240,3.960593,1.183090,13.620144,-0.211446,-1.294154,1.765779,88.303206,179.579375,140.272770,0.654218,-0.675675,-0.241387,-0.239154,680.920715,93901.921875,0.175959,-0.270624,1.438965,0.236267,0.194845,18.125000,22.609089,0,0.000000,0, 202
285, 101,185558,185549,1,1,0.138627,-0.264311,9.927890,0.002070,0.002615,0.131374,2.999541,-0.258488,12.659092,-0.557679,-0.240541,0.166290,88.300931,179.628415,140.272073,0.654308,-0.675586,-0.241677,-0.238865,680.982727,93901.835938,-0.333605,-0.126575,1.438965,0.298279,0.301408,18.250000,22.655277,0,0.000000,0, 202
286, 101,187740,187701,1,1,0.124966,-0.286301,9.924870,-0.010186,-0.000227,0.128780,4.441119,0.702564,13.620144,0.417259,-0.875723,-0.390387,88.270237,179.555291,140.206421,0.653833,-0.675773,-0.241710,-0.239605,681.046692,93900.734375,-1.194769,0.130513,1.438965,0.362244,0.431240,18.375000,22.710703,0,0.000000,0, 202
287, 101,189848,189847,1,1,0.112468,-0.304358,9.925531,-0.005326,0.003501,0.129832,3.960593,1.183090,13.620144,-0.451648,0.429401,-0.441158,88.217542,179.397992,139.974536,0.652743,-0.675860,-0.242087,-0.241936,681.010132,93905.578125,-0.052423,-0.000036,1.438965,0.325684,0.343099,18.250000,22.756889,0,0.000000,0, 202
288, 101,191960,191954,1,1,0.118622,-0.281856,9.923293,-0.004732,-0.018273,0.126986,3.480067,0.702564,13.620144,-0.431941,0.369893,-0.159596,88.419900,179.503341,139.912013,0.653984,-0.674403,-0.242832,-0.241906,680.969238,93903.500000,-0.121192,-0.326240,1.438965,0.284790,0.276003,18.250000,22.807693,0,0.000000,0, 202
289, 101,194072,194056,1,1,0.112995,-0.338297,9.913507,-0.026359,-0.010210,0.118880,3.480067,0.222038,14.100669,-1.355730,-0.570495,-0.013634,88.148673,179.379878,139.521408,0.651288,-0.675371,-0.245002,-0.244278,680.864075,93907.359375,-0.140597,-0.034098,1.438965,0.179626,0.278622,18.375000,22.849260,0,0.000000,0, 202
290, 101,196200,196163,1,1,0.123553,-0.323884,9.918287,-0.047254,-0.022225,0.123206,3.960593,0.222038,14.100669,-0.094316,0.052985,0.380772,88.242882,179.600453,139.495645,0.652272,-0.674322,-0.246212,-0.243332,680.923401,93905.265625,-0.212251,0.101453,1.438965,0.238953,0.288546,18.375000,22.904682,0,0.000000,0, 202
291, 101,198326,198317,1,1,0.145088,-0.302965,9.909014,0.048846,-0.041914,0.113497,4.441119,0.702564,14.100669,-0.355616,2.002467,0.480726,88.365272,179.220612,139.585817,0.651609,-0.675304,-0.245211,-0.243397,681.030212,93902.179688,0.388929,0.115704,1.438965,0.345764,0.260939,18.500000,22.960104,0,0.000000,0, 202
292, 101,200459,200431,1,1,0.094831,-0.292890,9.912702,-0.014428,0.004836,0.116469,3.960593,-0.739014,13.620144,0.284050,1.270066,0.910451,88.329461,179.400478,139.490016,0.652331,-0.674233,-0.244919,-0.244723,681.066895,93907.007812,-0.294473,0.198471,1.438965,0.382446,0.428318,18.500000,23.006289,0,0.000000,0, 202
293, 101,202602,202593,1,1,0.140068,-0.246589,9.941792,0.091884,0.031713,0.144361,3.480067,-0.739014,14.581195,-1.255571,0.988581,0.105922,88.210513,179.173402,139.930427,0.654045,-0.674366,-0.243739,-0.240929,681.859131,93897.023438,1.742760,0.640357,1.438965,1.174683,0.814954,18.625000,23.052473,0,0.000000,0, 202
294, 101,204824,204813,1,1,0.157721,-0.302369,9.927463,0.009320,-0.025765,0.132281,2.519016,-2.180591,13.620144,-0.080416,-0.653809,0.303812,88.233299,179.496101,139.232423,0.651425,-0.674028,-0.247186,-0.245421,681.545288,93898.882812,0.431485,0.041518,1.438965,0.860840,0.828508,18.500000,23.103273,0,0.000000,0, 202
295, 101,206966,206931,1,1,0.116385,-0.317344,9.901185,-0.014420,-0.000777,0.105942,2.999541,0.222038,13.139618,0.295923,-0.035482,-0.758955,88.172148,179.401066,139.441044,0.651301,-0.675022,-0.245547,-0.244661,681.610291,93896.828125,-1.122133,-0.090136,1.543762,0.925842,1.142470,18.625000,23.135603,0,0.000000,0, 202
296, 101,209156,209144,1,1,0.105204,-0.346862,9.914535,-0.032656,-0.026596,0.120069,4.441119,-0.739014,14.100669,-0.446215,0.297506,-0.409431,88.233012,179.354784,139.665320,0.652036,-0.675250,-0.243831,-0.243787,681.548828,93899.656250,-0.004556,-0.262768,1.543762,0.864380,0.934287,18.750000,23.191021,0,0.000000,0, 202
297, 101,211231,211227,1,1,0.135902,-0.307640,9.939109,-0.017943,-0.048429,0.143663,4.441119,-1.700066,14.581195,0.462429,-0.476109,0.919651,88.427249,179.531522,139.008871,0.652162,-0.672367,-0.248285,-0.246904,681.500427,93895.625000,-0.001619,0.022439,1.543762,0.815979,0.778429,18.750000,23.223349,0,0.000000,0, 202
298, 101,213307,213305,1,1,0.094007,-0.347017,9.913107,-0.035361,-0.031413,0.118512,3.960593,0.222038,14.100669,-0.444716,0.440607,0.338799,88.315972,179.290799,138.759268,0.650432,-0.672965,-0.248617,-0.249489,681.453430,93897.445312,-0.970921,-0.007617,1.543762,0.768982,0.904015,18.750000,23.283384,0,0.000000,0, 202
299, 101,215387,215386,1,1,0.093940,-0.321770,9.905517,0.000620,0.022841,0.110160,3.960593,0.222038,14.100669,-0.586539,0.052163,0.021412,88.114747,179.170041,138.496005,0.648403,-0.673787,-0.249916,-0.251250,681.690247,93894.367188,0.144617,-0.053177,1.543762,1.005798,0.922803,18.750000,23.329565,0,0.000000,0, 202
300, 101,217475,217473,1,1,0.134278,-0.335733,9.915398,-0.003525,-0.032477,0.120935,3.960593,0.222038,13.139618,0.196904,-0.239089,0.983098,88.223860,179.309008,138.295225,0.648918,-0.672436,-0.251647,-0.251813,681.724243,93896.257812,0.506949,0.156612,1.543762,1.039795,0.972721,18.875000,23.361891,0,0.000000,0, 202
301, 101,219571,219569,1,1,0.154581,-0.303200,9.937778,0.024332,-0.005044,0.142572,4.441119,-0.258488,13.620144,-0.882116,0.568292,-1.283024,88.132253,179.360426,138.243739,0.648383,-0.672732,-0.252443,-0.251602,681.506226,93900.046875,-0.504905,-0.100268,1.543762,0.821777,0.962513,18.750000,23.421925,0,0.000000,0, 202
302, 101,221734,221707,1,1,0.117767,-0.321665,9.913375,-0.022295,-0.015321,0.118254,2.999541,-0.258488,13.620144,-0.328118,0.245014,0.540530,88.249343,179.397965,138.225830,0.649116,-0.671949,-0.252504,-0.251742,681.620605,93897.945312,-0.268459,-0.056331,1.543762,0.936157,1.030201,18.875000,23.468105,0,0.000000,0, 202
303, 101,223835,223797,1,1,0.138509,-0.282921,9.920448,0.011291,0.041266,0.124356,3.480067,0.222038,14.100669,-0.120559,-0.506796,1.028735,88.009433,179.447893,138.391572,0.648183,-0.673566,-0.252340,-0.249984,681.765869,93897.828125,0.223067,0.168544,1.543762,1.081421,1.174493,19.000000,23.509666,0,0.000000,0, 202
304, 101,225934,225933,1,1,0.103135,-0.278782,9.933982,-0.015527,0.027992,0.137377,3.480067,-0.739014,14.100669,-0.655347,0.037038,0.569697,88.246550,179.454792,137.966406,0.649330,-0.670626,-0.253561,-0.253651,681.746948,93894.734375,-0.836506,-0.278135,1.608215,1.062500,1.179048,19.000000,23.555845,0,0.000000,0, 202
305, 101,228036,228029,1,1,0.098661,-0.316554,9.913360,-0.000243,-0.016444,0.117890,3.480067,1.663616,14.581195,-0.221677,0.151433,0.044906,88.356830,179.195941,137.833764,0.648418,-0.670908,-0.253414,-0.255377,682.012573,93890.671875,0.647861,0.271342,1.608215,1.328125,1.165072,19.000000,23.592787,0,0.000000,0, 202
306, 101,230142,230130,1,1,0.157525,-0.270944,9.932821,0.022530,-0.022904,0.136713,2.999541,1.663616,14.100669,-0.107079,0.287820,-0.404705,88.366078,179.485965,137.560338,0.648528,-0.669620,-0.256641,-0.255256,681.727966,93896.460938,0.004045,0.081899,1.608215,1.043518,1.018233,19.000000,23.643583,0,0.000000,0, 202
307, 101,232263,232235,1,1,0.132764,-0.272554,9.933385,0.041579,-0.000463,0.136923,2.999541,0.702564,14.100669,-0.529822,0.196603,-0.244801,88.330889,179.249039,137.032624,0.646589,-0.669150,-0.258458,-0.259538,681.512329,93901.273438,0.043811,-0.014494,1.608215,0.827881,0.931921,19.000000,23.689760,0,0.000000,0, 202
308, 101,234392,234389,1,1,0.110571,-0.327558,9.924845,-0.029343,-0.046421,0.129712,3.480067,0.702564,13.620144,-0.574566,0.204048,-0.168217,88.446695,179.354634,137.252255,0.646255,-0.670463,-0.257167,-0.258263,681.622131,93895.250000,-0.163798,0.047723,1.608215,0.937683,0.924727,19.125000,23.717466,0,0.000000,0, 202
309, 101,236519,236497,1,1,0.097442,-0.354855,9.914689,-0.052652,-0.022176,0.120351,3.480067,-0.739014,13.620144,-0.690283,-1.814260,0.284755,88.244459,179.319021,137.042978,0.646271,-0.669508,-0.258990,-0.258877,681.601440,93898.054688,-0.073924,-0.044237,1.608215,0.916992,0.936211,19.125000,23.772879,0,0.000000,0, 202
310, 101,238730,238706,1,1,0.079278,-0.297560,9.932023,-0.045030,-0.012719,0.135686,4.441119,-0.258488,14.100669,-0.022635,1.115602,-0.107403,88.504061,179.428291,137.171919,0.648330,-0.668093,-0.258272,-0.258100,681.550781,93899.937500,-0.138783,-0.003297,1.608215,0.866333,0.829488,19.250000,23.805201,0,0.000000,0, 202
311, 101,240859,240817,1,1,0.134598,-0.322355,9.924998,-0.001323,-0.054886,0.129992,4.441119,-1.219540,14.100669,-0.388172,-0.289333,0.121527,88.425330,179.310156,137.101663,0.647439,-0.668639,-0.258188,-0.259006,681.603821,93897.828125,-0.899648,0.177533,1.608215,0.919373,1.068650,19.250000,23.846760,0,0.000000,0, 202
312, 101,242992,242979,1,1,0.091389,-0.305402,9.926159,0.014053,0.019677,0.130247,3.480067,0.702564,14.581195,-0.279188,-0.203816,-0.821850,88.240054,179.098502,136.861486,0.645318,-0.669605,-0.258811,-0.261172,681.572571,93897.671875,-0.367930,-0.048597,1.608215,0.888123,0.951915,19.375000,23.897552,0,0.000000,0, 202
313, 101,245132,245095,1,1,0.131515,-0.290347,9.923517,0.005285,-0.025979,0.127600,4.441119,0.222038,14.581195,-0.408255,0.981147,-0.714069,88.410454,179.370412,136.633317,0.646430,-0.667528,-0.261295,-0.261266,681.788086,93894.601562,0.077709,0.159144,1.608215,1.103638,1.035699,19.250000,23.929874,0,0.000000,0, 202
314, 101,247276,247259,1,1,0.111723,-0.258294,9.928106,0.045452,0.012804,0.130982,3.480067,-1.219540,14.581195,-0.230998,-0.592525,0.597518,88.400898,179.180860,136.557830,0.645756,-0.667830,-0.260682,-0.262769,681.617798,93894.476562,0.000244,-0.006104,1.608215,0.933350,0.936257,19.375000,23.966814,0,0.000000,0, 202
315, 101,249469,249428,1,1,0.085283,-0.325645,9.935990,-0.075770,-0.013371,0.140393,2.519016,1.183090,14.100669,0.150409,-0.338321,0.707161,88.381787,179.492577,136.213547,0.644281,-0.667748,-0.262367,-0.264911,681.489990,93898.273438,0.174239,-0.044155,1.608215,0.805542,0.768725,19.375000,24.017605,0,0.000000,0, 202
316, 101,251550,251511,1,1,0.095020,-0.352970,9.925056,-0.147343,-0.040481,0.129609,4.921645,-0.258488,15.542247,-0.109421,-0.380130,0.086092,88.387040,179.830521,136.025102,0.643000,-0.668180,-0.263520,-0.265790,681.590271,93899.156250,0.305004,0.048189,1.608215,0.905823,0.886959,19.500000,24.049927,0,0.000000,0, 202
317, 101,253633,253594,1,1,0.137991,-0.254900,9.944520,0.082257,0.029932,0.147358,3.480067,1.183090,14.100669,0.202092,-0.174616,-0.113006,88.218150,179.082028,136.150354,0.645404,-0.666291,-0.265044,-0.263176,681.591797,93895.062500,0.170114,-0.045074,1.608215,0.907349,0.860082,19.625000,24.091482,0,0.000000,0, 202
318, 101,255783,255767,1,1,0.097958,-0.358116,9.917336,-0.007922,-0.018155,0.123264,3.960593,-0.258488,14.100669,0.027109,-0.267911,-0.131199,88.222282,179.019600,136.116914,0.643315,-0.668185,-0.262751,-0.265776,681.447144,93898.851562,0.206083,0.074240,1.608215,0.762695,0.779559,19.375000,24.142273,0,0.000000,0, 202
319, 101,257864,257852,1,1,0.147984,-0.256579,9.934285,0.073225,0.029031,0.137388,3.480067,1.183090,14.100669,-0.539945,-0.109421,-0.560751,88.176929,179.158840,135.832805,0.642725,-0.667474,-0.265299,-0.266459,681.428955,93897.734375,0.146263,-0.057221,1.608215,0.744507,0.691133,19.500000,24.179211,0,0.000000,0, 202
320, 101,259948,259936,1,1,0.125257,-0.231373,9.932441,-0.011096,0.016046,0.134906,3.960593,0.222038,14.581195,0.418725,-0.173031,0.800457,88.449768,179.642636,135.451271,0.644580,-0.663955,-0.269610,-0.266440,681.525574,93897.609375,0.636085,0.202071,1.608215,0.841125,0.799235,19.500000,24.216148,0,0.000000,0, 202
321, 101,262039,262030,1,1,0.134343,-0.281174,9.926479,0.000517,-0.011197,0.130363,3.480067,0.222038,14.581195,0.087950,-0.904533,1.293856,88.362711,179.416693,135.638787,0.643971,-0.665399,-0.267450,-0.266488,681.283325,93902.445312,-0.344258,0.017531,1.608215,0.598877,0.714273,19.625000,24.248468,0,0.000000,0, 202
322, 101,264130,264118,1,1,0.110955,-0.305158,9.924635,0.003302,-0.001033,0.128945,2.519016,-0.258488,14.100669,-0.321506,0.073127,-0.270436,88.302004,179.201119,135.434592,0.642624,-0.665751,-0.267562,-0.268738,681.388184,93900.320312,-0.231686,-0.089258,1.608215,0.703735,0.760361,19.500000,24.290022,0,0.000000,0, 202
323, 101,266231,266214,1,1,0.116386,-0.312561,9.936722,0.031120,0.013721,0.141259,3.480067,-0.258488,14.581195,0.220441,-0.833329,-0.436529,88.169765,179.027277,135.212720,0.640912,-0.666367,-0.268183,-0.270676,681.691711,93895.273438,0.746057,0.305306,1.608215,1.007263,0.840242,19.625000,24.317724,0,0.000000,0, 202
324, 101,268341,268310,1,1,0.091760,-0.323506,9.916904,0.011809,0.026877,0.121561,4.441119,-0.739014,13.620144,0.450515,-0.231893,-0.373328,88.152990,178.978031,134.760834,0.639621,-0.665510,-0.270571,-0.273446,681.600403,93895.101562,0.286117,-0.100108,1.608215,0.915955,0.803361,19.625000,24.363895,0,0.000000,0, 202
325, 101,270457,270411,1,1,0.114555,-0.307693,9.919403,-0.011294,0.001615,0.123829,2.519016,0.702564,14.100669,-0.539171,0.123538,-0.618836,88.272012,179.265036,134.620570,0.640682,-0.663854,-0.272715,-0.272857,681.563110,93897.921875,-0.488326,-0.017403,1.608215,0.878662,0.928243,19.625000,24.405449,0,0.000000,0, 202
326, 101,272664,272664,1,1,0.112512,-0.309085,9.913462,-0.057148,-0.043716,0.117656,3.480067,-0.258488,13.139618,0.536297,-0.368952,-0.099800,88.537420,179.511674,134.490673,0.640488,-0.663468,-0.273046,-0.273918,681.270630,93902.757812,-0.530899,-0.051340,1.608215,0.586182,0.785443,19.750000,24.437767,0,0.000000,0, 202
327, 101,274777,274771,1,1,0.098002,-0.315655,9.909701,-0.017185,-0.038572,0.114122,3.480067,-0.258488,14.100669,-0.225919,0.552092,1.387342,88.545459,179.185218,134.171171,0.640989,-0.661438,-0.274210,-0.276482,681.285522,93903.601562,0.691015,0.005264,1.608215,0.601074,0.611092,19.875000,24.479321,0,0.000000,0, 202
328, 101,276891,276876,1,1,0.142270,-0.283106,9.929041,0.007257,-0.008334,0.133089,3.480067,2.144141,14.100669,-0.520291,0.488253,1.009878,88.322891,179.354402,134.036985,0.639799,-0.661964,-0.276471,-0.275725,681.324463,93899.484375,-0.477395,-0.073835,1.608215,0.640015,0.675445,19.875000,24.520872,0,0.000000,0, 202
329, 101,279017,278984,1,1,0.107903,-0.274858,9.932413,0.045645,0.033257,0.135641,3.480067,-0.258488,14.581195,-0.223879,-0.402646,-0.347563,88.259506,179.028711,134.004022,0.638544,-0.662998,-0.274987,-0.277628,681.429199,93901.320312,-0.273609,0.200114,1.608215,0.744751,0.822678,20.000000,24.557806,0,0.000000,0, 202
330, 101,281147,281143,1,1,0.125022,-0.322963,9.911785,-0.025041,-0.055791,0.116645,2.999541,-0.258488,14.100669,-0.256689,0.855200,-0.339773,88.506377,179.303886,134.000334,0.638655,-0.662901,-0.275905,-0.276691,681.052185,93908.117188,-0.763220,-0.169405,1.608215,0.367737,0.604699,19.875000,24.594742,0,0.000000,0, 202
331, 101,283280,283253,1,1,0.093245,-0.331494,9.918299,-0.037893,-0.043090,0.123109,3.480067,0.222038,13.620144,0.239916,0.817436,0.390432,88.536955,179.206883,133.707606,0.639871,-0.660319,-0.277026,-0.278928,681.655029,93890.179688,0.120246,-0.009511,1.608215,0.970581,0.789517,19.875000,24.622442,0,0.000000,0, 202
332, 101,285420,285416,1,1,0.098918,-0.254013,9.930636,0.047655,0.050888,0.133132,2.999541,1.183090,13.139618,0.435023,0.076587,-0.003904,88.283193,179.056770,133.575715,0.639836,-0.659695,-0.278345,-0.279171,681.493530,93898.921875,0.394381,0.027036,1.608215,0.809082,0.742055,19.875000,24.668610,0,0.000000,0, 202
333, 101,287563,287535,1,1,0.141676,-0.283390,9.929560,0.011210,-0.043325,0.133512,2.999541,0.222038,13.139618,0.259208,-0.049145,1.102276,88.533397,179.307738,133.360441,0.639255,-0.659258,-0.279599,-0.280279,681.675659,93896.843750,0.524119,0.234748,1.608215,0.991211,0.870467,20.000000,24.691692,0,0.000000,0, 202
334, 101,289791,289753,1,1,0.116894,-0.306867,9.923179,0.013774,-0.009647,0.127596,3.960593,0.702564,14.581195,0.259648,0.829789,-0.292559,88.345116,179.104089,133.640533,0.638344,-0.661469,-0.277303,-0.279427,681.179749,93898.664062,-0.537157,-0.247996,1.608215,0.495300,0.580111,20.000000,24.733242,0,0.000000,0, 202
335, 101,291986,291974,1,1,0.111561,-0.301908,9.914758,-0.021646,-0.017109,0.118942,2.999541,1.183090,14.581195,0.684056,-0.528054,1.171793,88.429114,179.306918,133.621832,0.639290,-0.660478,-0.278344,-0.278572,681.431763,93900.460938,0.299100,0.057723,1.608215,0.747314,0.701328,20.000000,24.779409,0,0.000000,0, 202
336, 101,294058,294053,1,1,0.109343,-0.325000,9.921206,-0.016789,-0.005477,0.126114,3.480067,0.222038,14.100669,-0.346245,-0.539551,-0.757744,88.292660,179.151053,132.869787,0.636267,-0.659768,-0.282138,-0.283317,681.475220,93899.359375,0.287091,-0.063042,1.608215,0.790771,0.760410,20.000000,24.807108,0,0.000000,0, 202
337, 101,296137,296133,1,1,0.106402,-0.286851,9.925046,-0.000954,-0.001582,0.128760,3.480067,-0.739014,13.139618,0.207824,-0.404060,0.451658,88.434537,179.206583,132.752759,0.636935,-0.658558,-0.282770,-0.283999,681.556885,93895.265625,-0.017048,-0.002128,1.608215,0.872437,0.789465,20.250000,24.839424,0,0.000000,0, 202
338, 101,298220,298216,1,1,0.092346,-0.277063,9.930410,-0.013345,0.017939,0.133679,2.519016,-0.739014,13.139618,0.416824,0.077542,0.605034,88.420091,179.265855,132.789068,0.637093,-0.658586,-0.282929,-0.283423,681.584412,93896.109375,-0.319813,0.040489,1.608215,0.899963,0.869415,20.250000,24.876356,0,0.000000,0, 202
339, 101,300307,300306,1,1,0.153491,-0.269279,9.921079,0.013290,-0.031335,0.124861,3.960593,1.183090,14.100669,0.578150,-0.244237,0.273051,88.474883,179.383075,132.751857,0.637613,-0.657908,-0.283663,-0.283095,681.441528,93895.992188,-0.129416,-0.090365,1.608215,0.757080,0.764198,20.125000,24.904055,0,0.000000,0, 202
340, 101,302397,302393,1,1,0.119627,-0.297213,9.923021,-0.024518,0.025457,0.127129,3.480067,1.183090,14.581195,0.545447,-0.490637,0.034868,88.169867,179.375562,133.613089,0.637945,-0.661739,-0.279408,-0.277596,681.698853,93894.828125,-0.519811,-0.028882,1.608215,1.014404,1.048269,20.250000,24.945604,0,0.000000,0, 202
341, 101,304496,304490,1,1,0.079506,-0.280703,9.926892,-0.041018,0.006312,0.130092,3.480067,0.702564,14.100669,0.388401,-0.102022,-0.564488,88.518787,179.372652,133.310266,0.639211,-0.659062,-0.280288,-0.280152,681.386841,93899.632812,0.154645,-0.207252,1.608215,0.702393,0.688614,20.250000,24.982534,0,0.000000,0, 202
342, 101,306681,306639,1,1,0.133988,-0.285194,9.924460,0.006523,-0.013706,0.128450,2.999541,-0.258488,14.100669,0.207101,0.303153,-0.324784,88.386247,179.297930,133.411954,0.638509,-0.660227,-0.279607,-0.279689,681.372864,93900.531250,-0.307224,0.131044,1.608215,0.688416,0.770083,20.375000,25.005617,0,0.000000,0, 202
343, 101,308785,308782,1,1,0.100955,-0.263993,9.938928,-0.005730,0.003029,0.141943,3.480067,1.663616,13.620144,-0.346004,0.047210,0.544986,88.510939,179.334581,133.688112,0.639992,-0.660116,-0.277918,-0.278242,682.482727,93887.460938,1.031733,1.048505,1.919128,1.798279,1.512060,20.375000,25.047165,0,0.000000,0, 202
344, 101,310891,310886,1,1,0.131626,-0.299295,9.922777,-0.026448,0.005062,0.127126,4.441119,-0.258488,15.542247,1.057757,-1.128173,0.831774,88.223839,179.438550,134.032736,0.639425,-0.662309,-0.277206,-0.275025,682.403625,93891.273438,0.060843,0.154282,1.919128,1.719177,1.700797,20.375000,25.084095,0,0.000000,0, 202
345, 101,313001,312987,1,1,0.125747,-0.283435,9.928514,0.027521,-0.006067,0.132314,2.038490,1.663616,13.620144,-0.752923,-0.528582,-0.378806,88.377573,179.168170,133.980963,0.639518,-0.661959,-0.275618,-0.277240,682.036987,93894.125000,-0.440422,-0.568098,1.996948,1.352539,1.521877,20.375000,25.111792,0,0.000000,0, 202
346, 101,315121,315091,1,1,0.134408,-0.260945,9.937799,-0.012862,0.050834,0.140994,2.999541,-0.739014,13.620144,0.947231,0.236960,0.239017,88.107685,179.522438,133.720310,0.638211,-0.662000,-0.279760,-0.276002,681.838745,93892.023438,-0.313355,-0.409651,1.996948,1.154297,1.303240,20.500000,25.139490,0,0.000000,0, 202
347, 101,317246,317240,1,1,0.135184,-0.316817,9.924438,-0.035249,-0.027035,0.129314,2.999541,0.702564,13.620144,-0.420296,-0.470523,-0.119395,88.335178,179.405820,133.242716,0.636816,-0.661070,-0.280599,-0.280562,681.919800,93892.859375,0.390006,0.190408,1.996948,1.235352,1.155348,20.500000,25.176420,0,0.000000,0, 202
348, 101,319371,319348,1,1,0.087389,-0.289922,9.919686,-0.021118,0.071703,0.123025,3.960593,0.222038,14.100669,0.311285,-0.139857,-0.706907,88.072769,179.246007,133.168267,0.635975,-0.661497,-0.281489,-0.280575,681.857178,93893.726562,0.182019,-0.072627,1.996948,1.172729,1.162476,20.375000,25.204117,0,0.000000,0, 202
349, 101,321505,321459,1,1,0.125156,-0.333024,9.905649,-0.026569,-0.063227,0.127777,2.999541,-0.739014,14.581195,-0.013686,1.042734,0.745453,88.524053,179.395451,132.765791,0.637961,-0.657639,-0.283530,-0.283069,681.562622,93897.554688,0.012666,-0.077861,1.996948,0.878174,0.903440,20.500000,25.236429,0,0.000000,0, 202
350, 101,323716,323681,1,1,0.152410,-0.269445,9.930783,0.060304,-0.026103,0.134390,2.999541,0.702564,14.100669,0.049205,-0.424821,-0.615653,88.449529,179.109294,132.812045,0.636921,-0.658854,-0.281848,-0.284262,681.488708,93901.375000,-0.500194,-0.073321,1.996948,0.804260,1.035038,20.625000,25.268744,0,0.000000,0, 202
351, 101,325849,325839,1,1,0.070857,-0.311201,9.917562,-0.076957,0.031330,0.121349,2.999541,0.702564,14.100669,-0.488393,0.162592,0.220803,88.302318,179.396968,132.549096,0.636096,-0.658417,-0.282629,-0.286338,681.506897,93901.195312,0.208486,0.056628,1.996948,0.822449,0.908249,20.500000,25.310287,0,0.000000,0, 202
352, 101,327990,327958,1,1,0.083656,-0.301121,9.918928,-0.003817,0.044869,0.122748,3.480067,1.663616,13.620144,0.006564,-0.809339,-0.815947,88.215438,179.057726,132.183039,0.633873,-0.658718,-0.285760,-0.287465,681.636597,93899.062500,-0.297699,0.099346,1.996948,0.952148,1.091076,20.500000,25.342600,0,0.000000,0, 202
353, 101,330133,330119,1,1,0.109120,-0.324690,9.906081,-0.067975,0.012739,0.110760,3.480067,1.663616,13.620144,-1.143483,-2.547627,0.280458,88.205644,179.412513,131.754376,0.633148,-0.657358,-0.288025,-0.289908,681.743408,93896.953125,0.236078,-0.093332,1.996948,1.058960,1.072075,20.500000,25.370296,0,0.000000,0, 202
354, 101,332331,332288,1,1,0.150620,-0.273980,9.933390,0.039560,-0.006972,0.137228,3.480067,0.222038,13.620144,-0.376458,-0.580950,-0.496662,88.341530,179.167938,131.634998,0.633813,-0.656059,-0.290468,-0.288957,682.152222,93889.898438,-0.211055,-0.089487,1.996948,1.467773,1.509956,20.625000,25.393375,0,0.000000,0, 202
