b'echo: D dec: 68 
68\r
dumping data to serial\r
index, checksum,uptime mp,uptime nav,  errorflag mp,errorflag NAV,  accel x, accel y, accel z, accelworld x, accelworld y, accelworld z, accelhighg x, accelhighg y, accelhighg z, gyro x, gyro y, gyro z, euler x, euler y, euler z, quat w, quat x, quat y, quat z, altitude, presusre, verticalvel,filtered vvel, maxalt, altitudeagl, filtered alt, imutemp, barotemp,state,battstate,pyros fired,pyros cont,pyros state, checksum2\r
0, 101,19173,1074480499,1,19154,9.615984,-0.275306,0.014074,-0.007168,0.061969,0.028685,5.849096,-0.367666,6.263952,0.603011,0.153209,565.107285,1.338310,12.631279,56.937253,0.015538,0.010029,0.110153,0.993743,15.565197,1307.661621,0.130615,0.000000,-0.081177,1307.742798,-0.078369,87032.460938,0.475660,0,0.000000,0, 202
1, 101,23352,1074527543,1,23352,9.609004,-0.284011,-0.015647,0.015319,0.057868,0.027295,5.368570,-0.848191,5.867791,0.879629,-0.950333,564.873693,0.846573,12.667242,56.931386,0.015067,0.005774,0.111440,0.993766,15.533505,1307.906982,0.278442,0.106880,0.164185,1307.742798,0.366577,87030.968750,0.196945,0,0.000000,0, 202
2, 101,27511,1074491214,1,27502,9.628323,-0.275479,0.001538,-0.009985,0.074575,0.028917,6.810148,-2.289769,8.060081,1.079826,0.006289,565.829099,1.213452,12.712115,56.933674,0.015088,0.008973,0.110868,0.993677,15.601415,1307.968994,0.279907,0.157658,0.226196,1307.742798,0.201188,87029.023438,0.209764,0,0.000000,0, 202
3, 101,31772,1074504509,1,31738,9.611972,-0.273889,-0.002807,-0.017336,0.059275,0.029571,6.810148,-1.328717,7.841388,1.051226,0.210548,564.953360,1.332363,12.691625,56.931259,0.015187,0.010015,0.111143,0.993678,15.578778,1307.891113,0.355469,0.205292,0.148315,1307.742798,-0.010037,87030.320312,-0.271938,0,0.000000,0, 202
4, 101,36021,1074506522,1,36000,9.612565,-0.297993,0.013599,0.004413,0.060678,0.029789,6.810148,-1.809243,7.727581,-0.054656,0.613458,565.032590,2.149036,12.736732,56.924467,0.017081,0.016959,0.111085,0.993513,15.583306,1307.798462,0.394653,0.243525,0.055664,1307.742798,-0.188597,87034.148438,-0.721487,0,0.000000,0, 202
5, 101,40213,1074576869,1,40207,9.616193,-0.296648,-0.010478,0.019085,0.067880,0.028156,6.329622,-2.289769,7.249363,1.564746,-0.784306,565.446281,2.181819,12.808976,56.920532,0.016111,0.017348,0.111782,0.993451,15.578778,1307.961426,0.419067,0.293525,0.218628,1307.742798,-0.212715,87028.375000,-0.051048,0,0.000000,0, 202
6, 101,0,-1425898079,4376576,-851536312,0.000000,-0.000000,0.000000,3485316894997610496.000000,0.000000,0.000000,0.000000,-0.000000,0.000000,0.000000,0.000000,0.000000,-174552.039910,198203386511739232.000000,44070.330134,197418.187500,0.000000,-0.011775,-464745841677177375345826856960.000000,0.000000,10141413945992628542820849811456.000000,-7916917239358271693834530125233782784.000000,0.000000,-749.905762,0.000000,193128.218750,-0.000000,979136217301126219292446132535296.000000,0,-117697126567698411861737209856.000000,0, 202
7, 101,46589,1074490475,1,46567,9.560954,-0.279312,0.001056,-0.004875,0.008978,0.028996,6.329622,-1.328717,7.203723,-0.060750,0.153487,562.070364,2.636086,12.770062,56.917203,0.016961,0.021245,0.111500,0.993393,15.578778,1307.706299,0.426880,0.293525,-0.036499,1307.742798,-0.105464,87030.320312,-0.427459,0,0.000000,0, 202
8, 101,5262,-1055827942,1,5655,3.748257,-0.030569,-0.008929,-0.005438,0.025981,0.003662,-1.358791,0.112860,8.470692,0.957278,-0.723752,563.044622,-0.388793,-67.597713,47.611985,0.003409,-0.001801,-0.556280,0.830986,15.438430,1308.609253,0.801758,0.669665,0.701904,1307.907349,0.601886,87023.562500,0.503350,0,0.000000,0, 202
9, 101,-716980329,1902492229,244431790,-1454556305,-1002480.875000,-756489606385552363401151393038336.000000,0.000000,0.000000,-0.000000,-0.959977,0.000000,0.000000,0.000000,0.000000,0.000000,0.000000,-0.000000,-0.000000,-310127198419253723136.000000,-473473606074021464758294675456.000000,-0.000000,0.000000,-6865781341841983245547379428950016.000000,1849280.250000,17195525920465962616171266048.000000,-423379951349559882960582213632.000000,-188469280.000000,0.000000,0.000000,-0.000000,-61009488087784224635233331868336128.000000,-0.000024,1823554368,0.000000,160, 202
10, 101,12025,-1055831999,1,11987,3.762084,-0.033668,0.016430,-0.000419,0.027699,0.003461,-2.800369,1.073912,9.335652,0.199737,0.354012,563.143087,-0.614936,-67.530558,47.630157,0.004421,-0.003499,-0.555791,0.831303,15.691959,1308.259033,1.016846,0.821440,0.351685,1307.907349,-0.098766,87025.789062,-0.725767,0,0.000000,0, 202
11, 101,934592270,2081882112,1775877019,0,-310894816.000000,1845174.375000,0.000000,0.000000,-16003197511053110720097950598430720.000000,-0.000000,-0.000000,0.000000,-0.000000,-24258096470972229930032771891200.000000,0.000000,94.000888,-0.000000,0.000000,0.000000,-158763429965642653954624978944.000000,11401893464957611177597308954380075008.000000,0.000000,-2164018095095053563090436096.000000,0.000000,0.000000,1.617188,-0.000000,-0.000000,-119309049698228170819689775104.000000,82807.710938,0.000000,0.000000,11621,0.000000,200, 202
12, 101,18413,-1055814570,1,18409,3.754708,-0.029876,-0.007085,-0.002195,0.040229,0.003257,1.043838,0.593386,8.446021,0.500477,-0.429696,563.860912,-1.048474,-67.574395,47.618047,0.006359,-0.006754,-0.556058,0.831065,15.927367,1308.155029,1.016846,0.821440,0.247681,1307.907349,-0.068369,87027.242188,-0.612375,0,0.000000,0, 202
13, 101,1062266613,-1089246301,1072997848,-1122240182,0.010000,0.120000,100.000000,0.000000,-8.874135,4.394417,0.000000,0.000000,0.000000,0.000000,0.000000,0.000000,-48.195191,-9.622610,13.948703,0.943953,9.938246,11.125000,87030.515625,0.821440,-0.334308,0.000000,0.112592,0.000000,0.000000,-0.174059,0.087208,0.000000,-1122240182,-0.032225,163, 202
14, 101,0,1075616795,1,5029,-8.129539,5.280940,-0.317599,-0.512863,0.118204,2.322189,-11.449834,4.918118,12.748831,15.406921,1.830743,572.859386,-141.984347,-57.862111,14.482878,-0.459580,0.180888,0.831968,0.305981,17.203783,1308.688721,0.500732,0.264151,0.263916,1308.424805,0.789122,87023.460938,0.627893,0,0.000000,0, 202
15, 101,7666,1084716455,1,7663,-6.694763,4.981109,0.124680,-0.083217,0.047168,2.564949,-10.008257,4.437593,11.880492,6.446761,2.670264,564.346730,-157.879003,-52.948753,20.824552,-0.291618,0.169072,0.868489,0.370628,17.280718,1308.880005,0.509155,0.322168,0.455200,1308.424805,0.163109,87016.390625,0.217274,0,0.000000,0, 202
16, 101,11914,1085453932,1,11891,-6.432559,5.059858,0.043101,0.210085,0.104788,2.544251,-10.488783,4.437593,12.680204,-4.253236,-0.841150,567.689916,-159.927650,-53.714623,21.824939,-0.276099,0.174636,0.864970,0.379415,17.452686,1308.498291,0.509155,0.337836,0.073486,1308.424805,-0.097669,87023.406250,0.282176,0,0.000000,0, 202
17, 101,16114,1087126557,1,16109,-6.171981,3.531757,0.277939,0.372633,-0.398430,2.758349,-10.488783,3.476542,13.089440,-6.415715,22.965522,547.469769,-161.627274,-42.242989,22.654342,-0.198263,0.119184,0.888905,0.320852,17.606546,1308.775146,0.509155,0.337836,0.350342,1308.424805,0.119226,87021.906250,0.661065,0,0.000000,0, 202
18, 101,10141746,749911693,-1404813275,1851408079,6618368512.000000,0.000000,-1860643.500000,0.000000,5335154688.000000,33942009095625574973440.000000,0.000000,0.000000,0.000000,0.000000,0.000000,0.000000,0.000000,-0.000000,3358549760027424.500000,-8357665570816.000000,0.000000,-1173.942871,0.000000,0.000000,-703149942314095996142702559232.000000,0.000000,0.000000,-6161077122359099392.000000,0.000000,-32.313854,0.000000,-32491152534449747789761999856992256.000000,1523007174,0.000000,152, 202
19, 101,22523,1073898000,1,22516,-8.638772,4.275915,0.277782,-0.098440,0.030903,2.689133,-12.410886,4.437593,13.452451,-9.379823,-4.598180,564.478744,-156.751407,-20.783033,8.795604,-0.228114,0.191479,0.942196,0.127718,17.805651,1308.616211,0.509155,0.337836,0.191406,1308.424805,-0.032015,87021.601562,0.089621,0,0.000000,0, 202
20, 101,-1908444896,2063597568,-1791093072,0,-0.000000,-195331.171875,-199937920.000000,0.000000,-0.000000,-15448247960620952452281139200.000000,0.000000,0.000006,-450420274943259345682432.000000,-0.000000,0.000000,-1.790493,-233997765730778754268968320953904791552.000000,3048453309956720.000000,0.000000,0.000000,-0.000000,-232150202511806116659200.000000,-3686323253565916777382150144.000000,0.000000,0.000000,-0.000000,-15169122449899799491059912802304.000000,-0.000000,-0.000000,-0.000000,0.000000,0.000000,2133515,0.000000,0, 202
21, 101,28927,1061515020,1,28901,-9.172189,1.443578,1.163457,-0.055620,-0.488007,2.968351,-11.930360,0.593386,11.948609,36.470676,19.129505,533.828680,-139.892082,-10.186782,3.711776,-0.346938,0.057655,0.933870,0.053536,18.018322,1308.656738,0.509155,0.337836,0.231934,1308.424805,0.006426,87021.039062,-0.587210,0,0.000000,0, 202
22, 101,33174,1047381419,1,33152,-0.445882,9.924108,-0.617444,1.596390,-0.005173,1.458036,-6.164050,8.762325,10.717159,7.170818,0.521061,569.338560,-176.422325,-43.189113,14.774594,-0.261564,0.644426,0.670675,0.223396,18.145014,1308.424072,0.509155,0.337836,-0.000732,1308.424805,-0.005839,87022.843750,0.744808,0,0.000000,0, 202
23, 101,1060305697,1120403456,1060285574,329477209,0.000000,0.000000,0.000000,9.946998,0.005963,-0.001495,0.000000,0.000000,-0.061839,0.000000,1.838752,7.245417,-0.427607,570.063543,773.493023,87023.664062,1308.455566,18.271704,-0.289988,0.000000,0.000000,0.000000,-0.320568,0.000000,0.000000,-3.121779,0.000000,0.000000,-1108468911,0.000000,110, 202
24, 101,39499,-1110158379,1,39463,-0.193460,9.944390,-0.012535,-0.010848,0.145797,1.586993,-5.683524,9.242851,10.852159,-0.314996,0.003988,569.910329,-179.154537,-18.612329,6.311636,-0.118603,0.691257,0.704246,0.110159,18.335047,1308.456299,0.509155,0.337836,0.031494,1308.424805,0.100371,87021.617188,0.045818,0,0.000000,0, 202
25, 101,43728,-1110752767,1,43718,-0.216150,9.937696,0.012224,0.011675,0.139515,1.586779,-4.722473,9.723377,10.813393,-0.276250,-0.773727,569.551115,-179.161108,-19.527415,6.601942,-0.124664,0.689884,0.703734,0.115806,18.461729,1308.244629,0.509155,0.337836,-0.180176,1308.424805,-0.164421,87026.328125,-0.316713,0,0.000000,0, 202
26, 101,47892,-1111452281,1,47880,-0.222848,9.938125,0.017622,0.022729,0.140021,1.586140,-3.761421,9.242851,10.001496,0.127298,0.007308,569.581223,-178.921054,-20.691425,7.003803,-0.131840,0.688418,0.702678,0.121453,18.647224,1308.284546,0.509155,0.337836,-0.140259,1308.424805,0.036549,87028.062500,-0.787456,0,0.000000,0, 202
27, 101,52074,-1108193178,1,52054,-0.197092,9.941611,-0.006458,-0.004455,0.143208,1.585351,-5.683524,10.203903,11.681553,0.066045,-0.212767,569.764654,-179.148840,-21.416663,7.288777,-0.135622,0.688716,0.700781,0.127213,18.787470,1308.256104,0.509155,0.337836,-0.168701,1308.424805,-0.015856,87025.648438,0.336862,0,0.000000,0, 202
28, 101,56278,-1110097412,1,56278,-0.205579,9.953484,-0.000068,0.002585,0.155151,1.585654,-4.722473,11.164955,12.141224,0.772757,-0.079085,570.445433,-178.999136,-22.361616,7.569057,-0.142192,0.687195,0.700066,0.132108,18.923189,1308.449219,0.509155,0.337836,0.024414,1308.424805,-0.099142,87021.343750,0.133970,0,0.000000,0, 202
29, 101,60560,-1109941297,1,60525,-0.209597,9.951510,0.000868,-0.012932,0.153260,1.587315,-6.164050,9.242851,11.113482,1.075953,-1.009780,570.337953,-178.905358,-23.095735,7.815855,-0.146781,0.686136,0.699332,0.136148,19.086044,1308.515381,0.509155,0.337836,0.090576,1308.424805,0.054515,87022.414062,0.633715,0,0.000000,0, 202
30, 101,64777,-1112117589,1,64759,-0.213423,9.948346,0.003003,0.018941,0.150016,1.584916,-6.164050,9.242851,11.308947,1.904127,-0.722788,570.152227,-179.046756,-23.763007,8.076096,-0.150286,0.685200,0.698603,0.140889,19.239847,1308.538818,0.509155,0.337836,0.114014,1308.424805,0.053584,87026.570312,0.037033,0,0.000000,0, 202
31, 101,69011,-1113187214,1,69004,-0.186340,9.953662,-0.001340,-0.017554,0.154634,1.586215,-5.202998,9.242851,10.627927,-0.215711,-0.367653,570.421664,-178.890919,-24.492906,8.347261,-0.154388,0.685018,0.696914,0.144498,19.371029,1308.499634,0.509155,0.337836,0.074829,1308.424805,-0.008343,87024.242188,-0.049336,0,0.000000,0, 202
32, 101,73263,-1112338151,1,73256,-0.200554,9.933714,-0.010714,-0.000841,0.135118,1.585448,-4.241947,9.242851,10.171578,-1.509929,-0.026798,569.297907,-178.999628,-25.025415,8.515281,-0.157852,0.683956,0.696562,0.148329,19.515776,1308.650513,0.509155,0.337836,0.225708,1308.424805,0.183568,87021.656250,0.414703,0,0.000000,0, 202
33, 101,77585,-1111699618,1,77582,-0.214655,9.943762,-0.000769,0.000707,0.145505,1.586101,-5.202998,9.242851,10.608397,-1.062589,-0.330807,569.892789,-178.961270,-25.865901,8.788042,-0.163212,0.682407,0.695814,0.153259,19.660517,1308.661499,0.509155,0.337836,0.236694,1308.424805,0.253252,87021.992188,0.610142,0,0.000000,0, 202
34, 101,81729,-1110062423,1,81723,-0.198907,9.948409,0.007911,0.011902,0.149930,1.582831,-4.241947,9.242851,10.191946,0.838099,0.366340,570.147145,-178.881288,-26.429583,8.934041,-0.167424,0.682608,0.694048,0.155928,19.809776,1308.493774,0.509155,0.337836,0.068970,1308.424805,-0.050358,87024.187500,-0.018517,0,0.000000,0, 202
35, 101,85890,-1110626142,1,85848,-0.204663,9.953137,-0.001283,-0.009679,0.154705,1.585495,-5.202998,9.242851,10.608397,-0.934384,0.189571,570.422210,-179.103283,-27.068909,9.244728,-0.169678,0.681074,0.693768,0.161351,19.927372,1308.661377,0.509155,0.337836,0.236572,1308.424805,0.083038,87020.078125,0.167139,0,0.000000,0, 202
36, 101,90065,-1110007486,1,90058,-0.203835,9.937450,-0.000303,0.004328,0.139091,1.583513,-5.202998,8.762325,10.255606,1.245986,-0.415841,569.525379,-178.945683,-28.013227,9.500523,-0.176530,0.679915,0.692140,0.165949,20.058533,1308.617065,0.509155,0.337836,0.192261,1308.424805,0.332099,87022.578125,1.032967,0,0.000000,0, 202
37, 101,-1106788565,-608223286,-57850717,-1341964761,11314871950382497018150912.000000,247197664.000000,-52985654321086464.000000,0.025054,-423428610613799371784864137216.000000,0.000000,0.000000,5760204327437074400401019365228544.000000,0.000000,-310543647953114.625000,0.000000,-0.000000,18015899843493150598922523115520.000000,0.000000,0.000000,0.000000,0.000000,0.000000,311960889899915829274579304448.000000,0.000000,-566601036116467810075774293039382528.000000,0.000000,131326.359375,0.000000,0.000000,-0.000000,-49186061745059803229585408.000000,0.000000,319766811,0.000000,42, 202
38, 101,96428,-1110329500,1,96423,-0.192498,9.947866,0.004843,-0.007393,0.149246,1.583352,-5.202998,10.203903,11.473542,0.497928,0.792083,570.107639,-179.008221,-29.369332,9.973189,-0.184481,0.678251,0.689669,0.174483,20.239437,1308.796387,0.625977,0.442158,0.371582,1308.424805,0.031038,87019.226562,0.268599,0,0.000000,0, 202
39, 101,100635,-1110655008,1,100618,-0.212413,9.934738,-0.010316,0.001972,0.136505,1.583857,-5.202998,8.281800,9.848214,1.808824,-0.554942,569.377465,-178.812945,-30.652841,10.397273,-0.192407,0.675545,0.688250,0.181089,20.375111,1308.513428,0.625977,0.442158,0.088623,1308.424805,-0.024947,87022.585938,0.205567,0,0.000000,0, 202
40, 101,104856,-1109488981,1,104848,-0.204543,9.945701,-0.010632,0.001420,0.147396,1.582547,-4.722473,10.203903,11.245354,0.069116,-0.351864,570.001143,-178.873502,-31.300322,10.605904,-0.196447,0.674885,0.686785,0.185205,20.501734,1308.645264,0.625977,0.442158,0.220459,1308.424805,0.049176,87022.171875,-0.195633,0,0.000000,0, 202
41, 101,109128,-1109397920,1,109101,-0.209982,9.940980,0.003797,0.006400,0.142796,1.582216,-5.202998,10.203903,11.473542,0.660141,0.181213,569.737716,-178.818191,-32.050792,10.853349,-0.201043,0.673486,0.685650,0.189338,20.623833,1308.679199,0.625977,0.442158,0.254395,1308.424805,0.050665,87020.843750,0.562250,0,0.000000,0, 202
42, 101,113443,-1110757891,1,113437,-0.198687,9.960944,-0.009454,-0.018781,0.162384,1.584114,-5.202998,9.242851,10.669086,0.038828,-0.848889,570.861911,-178.796403,-32.608334,11.042990,-0.204349,0.672000,0.685208,0.192737,20.741407,1308.382324,0.625977,0.442158,-0.042480,1308.424805,-0.075786,87025.484375,-0.881771,0,0.000000,0, 202
43, 101,117747,-1110930376,1,117742,-0.193784,9.955281,0.001158,-0.008321,0.156623,1.582580,-4.722473,10.203903,11.302624,-0.318065,-0.101858,570.531275,-178.799968,-33.054397,11.220134,-0.206535,0.672182,0.683495,0.195265,20.854456,1308.551758,0.625977,0.442158,0.126953,1308.424805,0.084369,87024.312500,0.764129,0,0.000000,0, 202
44, 101,121930,-1114452987,1,121899,-0.186624,9.962957,-0.007635,0.006187,0.163446,1.581687,-2.800369,9.723377,10.249508,-0.701440,0.122204,570.950321,-179.641024,-33.976783,11.780871,-0.207602,0.671905,0.680564,0.205615,20.967501,1308.367920,0.625977,0.442158,-0.056885,1308.424805,0.165102,87027.054688,0.587711,0,0.000000,0, 202
45, 101,126099,-1109160596,1,126097,-0.201356,9.944386,-0.002700,-0.004108,0.146044,1.581429,-4.241947,10.203903,11.070912,0.118881,-1.299139,569.923716,-178.795583,-34.876933,11.803565,-0.217848,0.668889,0.680212,0.205966,21.094109,1308.231079,0.625977,0.442158,-0.193726,1308.424805,0.025122,87024.601562,0.422797,0,0.000000,0, 202
46, 101,130326,-1111232481,1,130312,-0.201830,9.947979,-0.000839,-0.007641,0.149475,1.582385,-5.683524,10.203903,11.683567,-0.674500,-0.484956,570.120862,-178.801566,-35.817758,12.146172,-0.222939,0.666971,0.678607,0.211687,21.207148,1308.349365,0.625977,0.442158,-0.075439,1308.424805,-0.032416,87023.390625,0.436215,0,0.000000,0, 202
47, 101,134517,-1107842483,1,134488,-0.207112,9.951204,-0.015766,-0.007025,0.153083,1.580794,-3.761421,8.762325,9.604922,1.073241,-0.731781,570.327571,-178.801211,-37.035874,12.530963,-0.230490,0.664738,0.676140,0.218707,21.320185,1308.438721,0.625977,0.442158,0.013916,1308.424805,0.046840,87024.132812,0.292172,0,0.000000,0, 202
48, 101,0,1092578018,0,-1102388782,0.002063,0.035902,0.012513,1.579885,-3.119249,-0.651924,10.427318,-0.016494,0.001314,571.018349,923.894445,4986162.078763,12.604670,-13.344305,38.058094,0.675386,0.219993,-0.232902,0.664239,0.625977,0.480693,1308.424805,0.000000,-0.191296,-3.761421,0.000000,21.378962,0.092651,0,-0.108129,1, 202
49, 101,-2147467488,1028308534,1073790527,690897176,-173818.406250,41412360257411133199899986361520750592.000000,121241192.000000,3792810595882862369278135990484992.000000,-0.000000,1394814625667520397312.000000,0.000000,0.000000,0.000000,172863090963863336422840796708864000.000000,-0.000000,inf,-0.001402,-24262209160337721710127968419840.000000,0.000000,0.000000,0.000000,0.000000,0.000000,-4201743828249477120.000000,1106199072402278350585856.000000,4184171446327416331869018390528.000000,-0.000000,0.000000,0.000000,-76344896175805386961360798491869184.000000,-0.000000,-160666418073400183106503736855632019456.000000,-57850717,-4639880265271519450476622905344.000000,43, 202
50, 101,142963,-1111383100,1,142942,-0.190427,9.950081,0.008368,-0.031291,0.151303,1.583040,-4.722473,9.242851,10.507061,-0.733300,-0.357851,570.227741,-178.904060,-38.385124,13.035798,-0.237445,0.661438,0.674059,0.227518,21.537207,1308.419434,0.625977,0.442158,-0.005371,1308.424805,0.138494,87023.789062,0.259018,0,0.000000,0, 202
51, 101,147256,-1110413426,1,147234,-0.207380,9.958513,0.006335,0.005188,0.160191,1.579859,-5.202998,10.203903,11.473542,1.113332,-0.023376,570.734268,-178.805091,-39.450828,13.337979,-0.244557,0.659869,0.671247,0.232814,21.632151,1308.440063,0.625977,0.442158,0.015259,1308.424805,-0.031734,87023.875000,0.062941,0,0.000000,0, 202
52, 101,151541,-1108378471,1,151514,-0.217499,9.950079,0.005297,-0.001190,0.151971,1.580056,-5.202998,8.762325,10.192454,-1.636766,-0.461587,570.273039,-179.015010,-40.118912,13.532029,-0.248890,0.658391,0.669922,0.237963,21.736134,1308.848389,0.625977,0.442158,0.423584,1308.424805,0.141496,87018.851562,0.244684,0,0.000000,0, 202
53, 101,155839,-1110942372,1,155832,-0.227096,9.933441,0.002878,-0.001875,0.135513,1.581858,-5.202998,9.242851,10.610615,-0.267447,-0.745902,569.320583,-178.773248,-40.786249,13.790351,-0.252152,0.656422,0.669029,0.240687,21.844635,1308.745605,0.625977,0.443618,0.320801,1308.424805,0.073148,87024.554688,-0.161654,0,0.000000,0, 202
54, 101,160129,-1111533226,1,160108,-0.210482,9.954651,0.012951,0.017080,0.156295,1.578733,-3.761421,9.242851,9.983098,-0.289636,-0.323855,570.512096,-178.852451,-41.397165,13.992068,-0.255676,0.655660,0.667160,0.244308,21.939571,1308.701538,0.625977,0.443618,0.276733,1308.424805,0.000343,87019.687500,-0.216587,0,0.000000,0, 202
55, 101,164352,-1109417564,1,164350,-0.187905,9.949101,-0.008487,-0.020679,0.150449,1.579553,-5.202998,9.723377,11.048375,-0.064256,-0.079072,570.177526,-178.861399,-42.030764,14.217786,-0.259044,0.654614,0.665433,0.248147,22.061630,1308.677979,0.625977,0.443618,0.253174,1308.424805,0.141975,87026.085938,0.375804,0,0.000000,0, 202
56, 101,168514,-1109272387,1,168511,-0.184342,9.951058,-0.016444,-0.008430,0.152364,1.577790,-5.202998,9.242851,10.731625,0.057303,-0.376710,570.286481,-178.738906,-42.563318,14.358067,-0.262715,0.654114,0.663564,0.250301,22.170126,1308.582397,0.625977,0.443618,0.157593,1308.424805,0.022564,87023.875000,0.317318,0,0.000000,0, 202
57, 101,172688,-1110727343,1,172678,-0.201253,9.944452,0.005148,0.005718,0.145979,1.578081,-4.722473,9.242851,10.381167,-0.040319,-0.560083,569.920273,-178.845607,-43.325000,14.617783,-0.266929,0.651804,0.662427,0.255360,22.260534,1308.572998,0.625977,0.443618,0.148193,1308.424805,-0.039852,87023.015625,-0.110836,0,0.000000,0, 202
58, 101,1059078144,1015903908,-1107246286,1094142346,0.004777,0.150651,1.577170,0.000000,0.140149,0.096611,100.000000,0.000000,0.000000,-178.770899,-43.543607,14.645580,25.417449,0.000000,0.000000,0.000000,0.000000,0.000000,0.000000,0.256072,0.661864,0.651712,87030.648438,0.661524,0.000000,17.000000,0.651359,-0.268487,1151569304,10.203903,52, 202
59, 101,179045,-1110567343,1,179035,-0.211999,9.943397,-0.005937,0.013376,0.145156,1.577661,-5.202998,10.684429,11.902923,0.399972,-0.018195,569.873282,-178.732117,-44.246013,14.904588,-0.272475,0.649400,0.660581,0.259967,22.405186,1308.817139,0.625977,0.443618,0.392334,1308.424805,0.138450,87021.023438,0.436561,0,0.000000,0, 202
60, 101,183248,-1112992206,1,183219,-0.200852,9.940200,-0.001764,0.013828,0.141562,1.577920,-4.241947,9.723377,10.670805,-0.779258,0.543204,569.667392,-178.858134,-44.709968,15.098010,-0.274400,0.648474,0.659355,0.263393,22.495590,1308.697144,0.625977,0.443618,0.272339,1308.424805,-0.012989,87021.132812,0.208380,0,0.000000,0, 202
61, 101,187523,-1110125835,1,187495,-0.196074,9.953815,0.001496,-0.022171,0.155250,1.579364,-4.722473,9.242851,10.443177,-1.464675,0.261951,570.453301,-178.871589,-45.547127,15.338257,-0.279729,0.646893,0.656975,0.268478,22.595034,1308.660156,0.625977,0.443618,0.235352,1308.424805,-0.102888,87021.039062,0.359764,0,0.000000,0, 202
62, 101,191813,-1110354067,1,191783,-0.218495,9.935038,-0.007337,0.016701,0.136950,1.577042,-3.761421,9.723377,10.447186,-1.089929,-0.851501,569.403474,-178.716435,-45.869334,15.422284,-0.281938,0.645471,0.656830,0.269117,22.694475,1308.775146,0.626831,0.491486,0.350342,1308.424805,-0.090158,87019.953125,-0.326582,0,0.000000,0, 202
63, 101,196162,-1108554939,1,196127,-0.193956,9.947250,-0.006646,-0.023779,0.148783,1.578093,-4.722473,10.203903,11.247446,-0.649898,0.227909,570.082285,-178.701736,-46.714488,15.690760,-0.286830,0.644326,0.653892,0.274017,22.798433,1308.764893,0.626831,0.491486,0.340088,1308.424805,-0.040364,87020.742188,-0.057325,0,0.000000,0, 202
64, 101,200401,-1108615191,1,200390,-0.209213,9.947566,0.001216,-0.029550,0.149341,1.579484,-4.241947,9.242851,10.387053,-0.255351,-0.338370,570.117802,-178.841810,-47.384506,15.901621,-0.290721,0.642242,0.652672,0.278834,22.902390,1308.715576,0.626831,0.491486,0.290771,1308.424805,-0.046100,87023.484375,-0.236973,0,0.000000,0, 202
65, 101,204549,-1112718415,1,204544,-0.218641,9.940685,-0.007115,0.021863,0.142417,1.576985,-5.683524,9.723377,11.459188,0.506889,0.302225,569.717717,-178.661998,-48.007139,16.099929,-0.294301,0.640541,0.651256,0.280997,22.988264,1308.958252,0.717285,0.496296,0.533447,1308.424805,0.121890,87019.703125,0.278489,0,0.000000,0, 202
66, 101,208711,-1110347476,1,208702,-0.195744,9.943098,0.004602,-0.023141,0.144518,1.578395,-4.241947,9.242851,10.234858,-0.236140,-0.857888,569.838038,-178.824120,-48.681026,16.347989,-0.297552,0.639305,0.649108,0.285944,23.074137,1308.960449,0.806641,0.622321,0.535645,1308.424805,0.016064,87018.867188,0.053804,0,0.000000,0, 202
67, 101,212963,-1111907682,1,212926,-0.208272,9.943227,-0.008646,0.011165,0.144810,1.576151,-4.722473,9.242851,10.401125,-0.371164,0.283963,569.853611,-178.690630,-50.005283,16.774658,-0.304967,0.635463,0.646116,0.292343,23.160007,1308.640137,0.806641,0.622321,0.215332,1308.424805,-0.340435,87020.992188,-0.924617,0,0.000000,0, 202
68, 101,217147,-1106767982,1,217140,-0.203224,9.951165,-0.007045,-0.042279,0.153001,1.577840,-5.683524,9.723377,11.282635,-1.137781,-0.048682,570.329484,-178.765599,-50.239699,16.786206,-0.307351,0.635551,0.644807,0.294342,23.272995,1308.648804,0.806641,0.622321,0.223999,1308.424805,0.010128,87024.500000,0.101813,0,0.000000,0, 202
69, 101,221352,-1113014523,1,221329,-0.218287,9.945423,-0.013002,0.038031,0.147086,1.574235,-4.241947,9.723377,10.610126,0.203929,-0.047628,569.987592,-178.703881,-51.284274,17.185144,-0.312070,0.631802,0.643021,0.299308,23.354343,1308.589355,0.806641,0.622321,0.164551,1308.424805,0.085140,87024.734375,-0.011099,0,0.000000,0, 202
70, 101,-1083842680,1059175817,-1069044275,-1096797165,0.642159,0.000000,0.000000,0.000000,0.000000,-0.060042,0.000000,0.000000,0.000000,5729.577951,0.000000,0.000000,-13.175955,569.245068,1.016378,-0.038353,-0.004822,9.938044,18.125000,0.013801,0.119129,0.000000,0.060051,0.000000,0.000000,0.016479,0.000000,0.622321,-1096778019,0.300928,37, 202
71, 101,1050363972,1059315591,-1083722213,1059173112,0.010000,0.120000,100.000000,0.000000,-0.089873,-0.240420,0.000000,0.000000,0.000000,0.000000,0.000000,0.000000,570.001307,-0.770350,1.022736,-0.023004,9.951711,18.125000,87027.937500,0.622321,-0.111537,0.000000,0.150667,0.000000,0.000000,0.027920,0.063367,0.000000,1059173112,-0.315098,135, 202
72, 101,229902,-1113443021,1,229902,-0.211472,9.934770,0.004968,0.005686,0.136301,1.576982,-4.722473,10.203903,11.263780,0.228069,0.016939,569.367411,-178.904852,-52.166465,17.482675,-0.316663,0.629583,0.640504,0.305793,23.521553,1308.461304,0.806641,0.622321,0.036499,1308.424805,-0.234963,87023.101562,0.109542,0,0.000000,0, 202
73, 101,234134,-1109796797,1,234106,-0.224484,9.938921,-0.020474,0.010621,0.141011,1.575052,-5.202998,9.242851,10.627927,0.298647,-0.816105,569.636028,-178.527963,-52.343059,17.469496,-0.318848,0.629069,0.640034,0.304379,23.598379,1308.513428,0.806641,0.622321,0.088623,1308.424805,-0.102221,87022.421875,-0.124209,0,0.000000,0, 202
74, 101,238392,-1107935102,1,238359,-0.192544,9.952837,-0.005994,0.012992,0.153558,1.571293,-5.683524,9.723377,11.380368,-0.152467,-6.564705,570.403851,-179.449984,-53.482925,17.856799,-0.324654,0.627506,0.635377,0.315219,23.684240,1308.395996,0.806641,0.622321,-0.028809,1308.424805,-0.040501,87023.523438,0.578129,0,0.000000,0, 202
75, 101,0,893460246,0,-1967242601,-952683682427918847569600102531072.000000,466607700776179493146359496704.000000,-62418060869938625842835620575647367168.000000,-0.000000,1816031801971254958751744.000000,-0.000000,-256779483758608499811279534414727479296.000000,-28529999556345252104110080.000000,3007.549072,0.000000,-204592575783008766787584.000000,0.000000,-0.000000,-0.000000,909737342658637014386164031647236751360.000000,236611395872691646080852426752.000000,-921860023309778862118797312.000000,-0.000000,-946396546437208465927510687744.000000,0.000000,0.000000,0.000000,0.000000,inf,-122068605655970914897704972713984.000000,-0.000000,12697018.000000,-0.000000,16777216,0.000000,0, 202
76, 101,-1082827846,1059032984,-1069040323,-1096152424,0.631551,0.000000,0.000000,0.000000,0.000000,0.086170,0.000000,0.000000,0.000000,5729.577951,0.000000,0.000000,-2.726213,569.262827,-1.797925,0.027145,0.107741,9.935998,18.500000,-0.141737,-0.133692,0.000000,-0.081828,0.000000,0.000000,-0.468708,0.000000,0.622321,-1096110460,0.319938,81, 202
77, 101,246885,-1106230150,1,246847,-0.151113,9.946823,0.001457,0.062593,0.163127,1.563598,-3.280895,9.242851,9.875347,0.802607,-5.324970,570.033928,-178.432804,-53.543687,17.685224,-0.328225,0.629179,0.633346,0.308665,23.842400,1308.073730,0.806641,0.622321,-0.351074,1308.424805,0.097820,87030.937500,-0.293702,0,0.000000,0, 202
78, 101,251058,-1096984423,1,251018,-0.250391,9.962637,0.030679,-0.237408,0.164226,1.580503,-3.761421,11.164955,11.800672,-1.715695,9.393883,571.268771,-179.144128,-59.957279,20.080643,-0.356193,0.606856,0.618078,0.350473,23.910181,1308.123657,0.806641,0.622321,-0.301147,1308.424805,-0.086437,87024.507812,0.470710,0,0.000000,0, 202
79, 101,-566312758,0,-130082468,4376576,0.000000,0.000000,0.000000,-0.000000,-0.000000,-31518720011906269820662257874303451136.000000,-2252067443834880.000000,-0.000000,-0.000000,0.000000,105259295644663779182581383168.000000,-11482433573.550804,0.000000,0.042311,-196535959446759.125000,14509401167786764402688.000000,49600.039062,0.000000,0.000000,0.000000,36893488147419103232.000000,0.000000,15473088065370364464160922522353664.000000,0.000000,0.000000,-6581689253888.000000,0.000000,0.000000,-515959047,0.000000,17, 202
80, 101,257425,-1103716714,1,257401,-0.096380,9.479038,-0.001268,-0.043544,-0.323214,1.562948,-3.280895,9.723377,10.391084,1.672634,-0.395848,543.233085,-177.487083,-63.961976,20.977447,-0.382631,0.599650,0.599971,0.359745,24.032187,1309.013794,0.806641,0.622321,0.588989,1308.424805,0.221481,87014.890625,0.545199,0,0.000000,0, 202
81, 101,1100349440,1151569304,1092585463,1049980928,-0.671822,-2.800369,9.723377,0.000000,100.000000,0.000000,-0.372106,0.603645,0.608493,581.029713,-4.483088,1.846980,0.000000,0.000000,0.000000,0.458660,0.070467,0.622321,0.000000,-1.082156,-3.118792,-0.369453,-0.003935,0.604069,0.608109,9.952173,1.565095,0.358898,1151571695,0.806641,247, 202
82, 101,263800,-1107271539,1,263774,-0.150997,9.960765,0.008141,0.002412,0.161696,1.566275,-4.722473,9.242851,10.443177,-0.790838,-0.508807,570.820547,-178.935506,-62.844639,20.743351,-0.375190,0.601152,0.605620,0.362176,24.176779,1308.628052,0.806641,0.622321,0.203247,1308.424805,-0.087628,87022.562500,-0.131925,0,0.000000,0, 202
83, 101,268014,-1106894962,1,268000,-0.155950,9.939981,-0.014494,0.020240,0.141047,1.564158,-5.202998,9.242851,10.669086,1.201896,-1.175658,569.638542,-178.862232,-62.957631,20.758410,-0.376109,0.600787,0.605256,0.361986,24.271666,1308.763550,0.806641,0.622321,0.338745,1308.424805,0.048686,87023.414062,0.171123,0,0.000000,0, 202
84, 101,272244,-1104662431,1,272237,-0.157082,9.951088,0.010078,-0.030668,0.152370,1.566178,-4.722473,10.684429,11.685137,0.273187,0.005486,570.304021,-179.187199,-63.429358,20.859423,-0.379304,0.599853,0.603126,0.366574,24.352995,1308.639282,0.806641,0.622321,0.214478,1308.424805,-0.401889,87022.585938,-0.839481,0,0.000000,0, 202
85, 101,276489,-1086184786,1,276482,-0.113520,9.560183,-0.002560,-0.665097,-0.239812,1.568782,-4.722473,9.242851,10.592380,-1.366572,-6.684809,549.517187,179.942194,-71.701120,23.720772,-0.414261,0.573929,0.572357,0.414006,24.438841,1308.488525,0.806641,0.622321,0.063721,1308.424805,-0.002363,87023.625000,0.176836,0,0.000000,0, 202
86, 101,280864,-1103934649,1,280838,-0.195524,9.931130,0.002301,0.019857,0.133557,1.558731,-4.722473,10.203903,11.302624,0.428427,0.102653,569.210535,-178.718170,-70.551831,22.873134,-0.417387,0.575256,0.579222,0.399372,24.520168,1308.401001,0.806641,0.622321,-0.023804,1308.424805,-0.123826,87026.750000,-0.991900,0,0.000000,0, 202
87, 101,285012,-1123372642,1,284983,-0.116728,10.001602,-0.008988,-0.006902,0.201338,1.573134,-4.722473,9.723377,10.870773,-0.367420,-27.657676,573.091885,-179.307847,-66.030690,21.888880,-0.388512,0.590085,0.595742,0.382143,24.592457,1308.702026,0.806641,0.622321,0.277222,1308.424805,0.397194,87017.187500,1.021334,0,0.000000,0, 202
88, 101,289199,-1106610176,1,289177,0.031343,10.012207,-0.019564,-0.103297,0.211590,1.567797,-5.202998,10.684429,11.885488,-0.063954,-14.091701,573.712340,-179.603622,-60.791580,20.299093,-0.361221,0.612912,0.606910,0.355123,24.673780,1308.710205,0.806641,0.622321,0.285400,1308.424805,-0.060443,87023.265625,-0.221446,0,0.000000,0, 202
89, 101,293377,-1101866785,1,293336,-0.205181,9.938787,-0.008261,0.075999,0.140868,1.556119,-3.280895,9.242851,9.942880,-0.582438,0.043325,569.694058,-178.434676,-74.009157,23.888981,-0.434102,0.561652,0.567682,0.414649,24.737032,1308.823853,0.806641,0.622321,0.399048,1308.424805,0.064623,87018.859375,-0.304076,0,0.000000,0, 202
90, 101,-1092710059,0,1054402376,1058050826,0.000000,100.000000,0.000000,-0.190141,-0.133004,9.954386,0.000000,0.000000,0.000000,0.000000,0.000000,0.000000,0.183159,0.786664,-0.340389,9.957089,19.500000,87017.992188,1309.058594,0.000000,0.622321,0.000000,1.550470,0.000000,0.000000,0.156003,-0.032424,0.000000,1058007542,0.559021,242, 202
91, 101,299726,-1109609267,1,299689,-0.166809,9.959077,0.001894,0.022565,0.160022,1.565266,-5.683524,9.723377,11.459188,-0.147638,-1.264633,570.726509,-178.950014,-66.561238,21.858098,-0.394474,0.589198,0.593040,0.381496,24.863531,1309.072144,0.806641,0.622321,0.647339,1308.424805,0.219550,87018.937500,0.431432,0,0.000000,0, 202
92, 101,303925,-1102921904,1,303916,-0.147883,9.950713,0.005087,-0.030565,0.152575,1.558637,-4.722473,10.684429,11.795128,-1.255083,0.354712,570.300961,-178.991049,-76.859887,24.693608,-0.447898,0.553938,0.553888,0.431904,24.962919,1308.866699,0.806641,0.622321,0.441895,1308.424805,0.164567,87019.632812,0.810138,0,0.000000,0, 202
93, 101,0,-314499322,0,-1094840431,0.000000,0.000011,0.000000,-2.996537,-0.000000,-110491709082093748224.000000,-14946533120156294888076345344.000000,0.000000,0.000011,0.000000,818535446972844736512000.000000,0.000000,-716688039.560838,0.083447,3081170643716431872.000000,-230969450490884376928190464.000000,204938608640.000000,5.965558,215106204295233536.000000,0.000000,0.000000,0.000000,0.000000,inf,-122068605655970914897704972713984.000000,-0.000000,0.000000,-0.000000,16777216,-0.000006,0, 202
94, 101,584957669,-1030800349,397164252,-687194355,0.000000,0.000000,0.000000,-0.000000,69101024863024316416.000000,-0.084597,0.000000,0.000000,-0.007080,0.000000,0.000000,-0.000000,0.000000,1605.939322,188661761152891824699204435968.000000,0.000000,-14948647147127505964502657536098304.000000,-0.000000,-1304724.375000,-423553092194287815632697163776.000000,-1938499015300672292651008.000000,-0.007416,-1376580113726250680320.000000,0.000000,0.000000,-4045445092906453308470428958720.000000,15887655936.000000,0.000000,1506361101,-0.000000,220, 202
95, 101,312376,-1103677345,1,312349,-0.122973,9.943487,0.013296,0.019653,0.144835,1.553996,-3.761421,9.723377,10.489054,0.064698,0.127454,569.855632,-179.040281,-77.271112,24.847321,-0.449191,0.552935,0.551745,0.433088,25.143621,1308.549438,0.806641,0.622321,0.124634,1308.424805,0.096098,87026.367188,0.153273,0,0.000000,0, 202
96, 101,1042430215,1057816291,1027616343,1057833244,0.433863,-0.451624,0.552973,0.000000,0.000000,0.000000,0.000000,0.000000,0.000000,31.487596,0.000000,0.000000,0.000000,0.000000,-11.000569,-0.134331,9.947447,0.002938,-0.005824,0.000000,0.000000,0.275288,9.723377,0.269282,0.622321,-3.761421,0.000000,0.000000,-1069023104,-0.450743,76, 202
97, 101,318817,-1103070356,1,318802,-0.133104,9.956850,-0.001012,0.003428,0.158508,1.554746,-4.241947,11.164955,12.129171,0.214256,-0.439072,570.638099,-178.966789,-78.078782,25.044395,-0.453499,0.549734,0.548697,0.436776,25.270109,1308.822876,0.806641,0.622321,0.398071,1308.424805,-0.079430,87024.421875,-0.288023,0,0.000000,0, 202
98, 101,323072,-1102450152,1,323037,-0.130956,9.937845,0.002666,-0.024394,0.153971,1.556168,-4.241947,10.203903,11.110430,-0.660955,-0.210926,569.558109,-179.025569,-78.635982,25.212945,-0.455906,0.547232,0.546849,0.440049,25.369490,1309.208618,0.895020,0.703418,0.783813,1308.424805,0.095157,87013.179688,0.355986,0,0.000000,0, 202
99, 101,-1091934019,0,1054992752,0,0.000000,0.000000,0.515304,0.034738,-0.009972,9.948622,-0.194471,-0.154455,9.945521,-10.774127,41.075795,0.000000,1153.077563,4985916.781207,74998.650666,25.473385,-0.113918,0.895020,0.548584,0.000000,0.000000,0.000000,-0.458503,0.000000,0.000000,0.441198,0.000000,0.000000,1057727915,100.000000,134, 202
100, 101,329313,-1102093861,1,329310,-0.127357,9.958799,-0.006760,-0.010110,0.160667,1.554153,-4.722473,9.723377,10.870773,-1.599574,-0.845054,570.761753,-179.065075,-79.490069,25.418568,-0.460429,0.544777,0.542595,0.443839,25.532106,1308.859863,0.895020,0.716908,0.435059,1308.424805,-0.019554,87022.265625,0.850665,0,0.000000,0, 202
101, 101,-36880441,-1917239580,477445644,1583103754,-896083454590976.000000,-0.000000,0.000000,0.000000,0.000000,0.000000,0.000000,0.000000,0.000000,0.000000,0.000000,0.000000,-14993380246033842.000000,0.000000,0.000000,0.113405,159624656.000000,1307249308525207224320.000000,0.000000,-13978204789294149832540160.000000,0.000000,-0.000000,1376576208896.000000,-0.000000,-423566541494031028382265769984.000000,-0.000000,0.000000,0.000000,542031794,-0.000000,228, 202
102, 101,335636,-1102563068,1,335617,-0.134820,9.950330,0.010982,-0.000996,0.152163,1.553719,-4.241947,9.242851,10.234858,-0.151595,0.182699,570.274296,-179.026403,-80.625336,25.725320,-0.465800,0.540011,0.538354,0.448910,25.667616,1308.572266,0.895020,0.716908,0.147461,1308.424805,-0.124412,87023.039062,-0.265384,0,0.000000,0, 202
103, 101,1202320767,-1087636339,1101135872,1151569304,-2.800369,10.203903,10.602502,100.000000,0.000000,0.000000,0.538776,0.537188,0.010000,-0.786847,-0.163718,7.857679,0.000000,0.000000,6.204741,-0.066302,0.716908,0.000000,0.000000,0.450121,-1.412412,0.538776,0.006818,0.537188,0.450121,-0.001056,-3.124368,-0.467484,1103999945,0.222290,177, 202
104, 101,341924,-1102591076,1,341913,-0.144041,9.934776,-0.002386,0.007243,0.136722,1.552737,-3.280895,9.242851,9.942880,0.482272,0.258617,569.390360,-179.100729,-81.679063,25.998502,-0.470920,0.535662,0.534231,0.453963,25.780539,1308.337646,0.895020,0.716908,-0.087158,1308.424805,-0.175192,87026.320312,-0.786565,0,0.000000,0, 202
105, 101,346176,-1102790071,1,346153,-0.126056,9.944073,-0.005672,0.006279,0.145721,1.552662,-4.241947,9.723377,10.629653,-0.701578,-0.518780,569.905520,-179.076919,-82.513992,26.224860,-0.474729,0.532633,0.530505,0.457710,25.839256,1308.660889,0.895020,0.716908,0.236084,1308.424805,0.109005,87019.960938,-0.827164,0,0.000000,0, 202
106, 101,350465,-1102538799,1,350438,-0.141640,9.943141,-0.005500,0.000048,0.145075,1.552959,-4.722473,8.762325,10.020379,1.734741,-0.609839,569.868364,-179.104868,-83.063973,26.369878,-0.477297,0.530191,0.528454,0.460453,25.925074,1308.889648,0.895020,0.716908,0.464844,1308.424805,0.359646,87019.898438,0.354767,0,0.000000,0, 202
107, 101,354755,-1102953422,1,354753,-0.129563,9.934349,0.004687,0.008139,0.135998,1.552522,-3.280895,10.684429,11.178456,0.535678,-0.018904,569.348450,-179.078940,-83.354734,26.445779,-0.478648,0.529181,0.527088,0.461566,25.992823,1308.643921,0.895020,0.716908,0.219116,1308.424805,-0.101320,87022.250000,0.131552,0,0.000000,0, 202
108, 101,359045,-1102219356,1,359018,-0.144944,9.961583,0.001183,-0.015059,0.163642,1.553870,-5.202998,9.723377,11.048375,-0.906582,0.238887,570.932835,-179.101016,-83.762216,26.577453,-0.480114,0.527212,0.525707,0.463864,26.065086,1308.636841,0.895020,0.716908,0.212036,1308.424805,-0.090814,87020.523438,0.155616,0,0.000000,0, 202
109, 101,1103675553,-767508721,1885815467,-1906884845,-81209381560177288751576907130077184.000000,-0.000000,-263054163968000.000000,0.000000,0.000000,0.000000,-1763116843008.000000,-0.000000,0.000000,-0.000000,-0.033713,0.000000,0.000000,0.000000,-0.000000,0.000000,3478925657243648.000000,175361.968750,-1.908280,0.000000,0.000000,0.000000,0.000000,0.000000,171802886144000.000000,0.000000,0.000000,0.000000,1405239970,-0.000000,198, 202
110, 101,-2080374784,2113930630,17826032,2030043136,26578627722215424.000000,14197391785602536439808.000000,-0.000185,6.004400,-0.000734,-911341791296042081189888.000000,12859745280.000000,-0.000000,0.000000,0.000000,3449017738632533351836475677736960.000000,-102288232291066458406912.000000,-228206022193111403468062075898115915776.000000,0.000000,0.335925,-0.000000,95.589447,-779948.750000,0.002906,-51558836.000000,-0.000000,56227239037581131776.000000,919360144187800588124160.000000,56112599557222694912.000000,-0.000000,3671089420412699384217600.000000,-251370043422856977399190258813239296.000000,-213102872231936.000000,33554432,0.000000,0, 202
111, 101,362288,-1085649150,1,362268,1.454636,0.827103,0.203837,-0.106709,-8.953325,1.577264,-4.722473,-9.497657,10.747229,12.781024,-1015.083481,106.029521,-179.260965,57.980233,19.926367,-0.337587,-0.618710,-0.618290,0.347781,26.069603,1401.631958,93.207153,57.687157,93.207153,1308.424805,91.407784,85885.890625,142.662109,2,0.000000,0, 202
112, 101,362505,-1120442815,1,362501,-0.316159,-8.638713,0.013046,-0.726220,-18.405741,1.523222,-3.280895,-8.056079,8.724450,30.603667,-958.202212,495.299801,-177.638481,-163.921986,-39.022797,0.718450,-0.087109,-0.111253,-0.681076,26.037989,1416.314209,107.889404,65.653046,107.889404,1308.424805,96.398567,85662.242188,121.268356,3,0.000000,0, 202
113, 101,362737,-1090317398,1,362733,0.123039,-8.433111,0.063450,-0.289934,-18.212402,1.562114,-4.722473,-6.614501,8.208611,17.020512,-908.289047,484.122770,-178.178913,-10.811322,3.155888,-0.078033,0.705868,0.701874,0.055081,26.037989,1434.701050,126.276245,70.475967,126.276245,1308.424805,96.436485,85505.304688,102.290024,3,0.000000,0, 202
114, 101,363264,-1092713286,1,363242,-0.073239,-6.693434,-0.027970,-0.546356,-16.472095,1.551300,-4.241947,-6.133976,7.460320,16.975703,-808.582164,384.335974,-177.465978,-80.358719,-25.185619,0.472355,-0.535368,-0.545013,-0.439572,26.092186,1482.387939,173.963135,121.661888,173.963135,1308.424805,118.087631,85117.445312,169.786011,3,0.000000,0, 202
115, 101,363516,-1087481701,1,363484,-0.024464,-6.315171,0.017649,0.536427,-16.129894,1.548414,-3.280895,-5.172924,6.162366,19.991550,-787.824236,363.933270,-179.879357,93.785587,-29.275072,0.521484,0.489127,0.477225,-0.510946,26.047022,1493.437500,185.012695,133.255020,185.012695,1308.424805,121.277092,84921.062500,141.211227,3,0.000000,0, 202
116, 101,-851245759,0,1229123937,0,0.000000,0.000000,0.125021,-0.000000,0.005879,244287756426406800337277756112896.000000,0.000000,-0.000000,0.000000,0.334060,0.330908,-0.000000,-0.000000,-0.000327,26799548828107417359623389184.000000,0.000000,-6764945542742016.000000,0.023441,0.000000,0.000000,-0.023596,-0.000000,0.000000,206294304.000000,-3.028343,0.000000,3435714077177937920.000000,-0.000000,17826032,0.000000,0, 202
117, 101,363913,-1090139900,1,363913,0.065744,-5.249641,-0.024924,0.086648,-15.067894,1.520241,-3.280895,-4.692398,5.764913,19.786713,-722.205242,302.292452,-178.977526,145.133406,37.773460,-0.689593,-0.222989,-0.200246,0.659271,26.051537,1515.272583,206.847778,156.720993,206.847778,1308.424805,117.020271,84734.226562,95.471207,3,0.000000,0, 202
118, 101,16523,-1919401107,821936441,362824557,0.000000,0.000000,-86913.179688,0.000000,0.000000,0.000000,6.304551,-0.000190,0.000000,-0.000006,-136112339840701421767867651806199808.000000,-0.000000,0.000000,0.000000,0.000000,0.001602,-0.000000,0.001604,451377406935040.000000,-0.000000,-28820649868618273435638824960.000000,6.304551,3036.033203,-0.000190,0.000000,-0.000000,-74687787935812482868697572544427851776.000000,0.000000,810305444,0.000000,193, 202
119, 101,364641,-1093080409,1,364623,-0.054755,-3.722299,0.037933,0.252442,-13.521206,1.550771,-4.722473,-3.250821,5.736391,15.410831,-641.386838,214.671944,-178.590104,42.560572,-15.023899,0.251143,0.668533,0.649025,-0.262217,26.042505,1557.924438,249.499634,204.761108,249.499634,1308.424805,115.782951,84317.398438,96.408035,3,0.000000,0, 202
120, 101,364989,-1089177091,1,364982,0.053919,-3.148097,0.067196,-0.175610,-12.960966,1.510154,-3.761421,-2.289769,4.696552,19.758861,-619.802675,183.434279,-178.203938,-176.284724,39.220698,-0.728095,0.012867,0.033621,0.684530,26.047022,1574.110352,265.685547,218.777390,265.685547,1308.424805,106.774460,84132.562500,63.158020,3,0.000000,0, 202
121, 101,365385,-1090411689,1,365288,-0.079891,-2.578537,0.064764,0.118489,-12.355919,1.565681,-4.722473,-2.289769,5.251798,14.153416,-569.321402,150.630957,-177.482138,5.903930,2.971804,-0.021024,-0.708599,-0.703388,0.051868,26.083153,1596.931396,288.506592,249.090118,288.506592,1308.424805,98.702217,83954.710938,99.084854,3,0.000000,0, 202
122, 101,-1923170552,-171655418,-1655030062,-320913671,3.683535,7632493206534463634791313330340364288.000000,-2159102701882196621128630272.000000,0.000000,0.000000,0.000000,-423586148759667903149193035776.000000,0.000000,-0.000000,-28579755894956602051658620212346880.000000,0.000000,0.000000,0.000000,-0.000000,-128342.616050,-14988352835947545251439772046458880.000000,-0.000000,1.693362,188828220391424.000000,0.000000,0.000000,-8318957063997755447322114785280.000000,-0.000000,-0.000000,-8329288544052182068249153765376.000000,163993027343338310005252233301682290688.000000,0.000000,0.000000,-1638645819,7632493206534463634791313330340364288.000000,68, 202
123, 101,365700,-1093700685,1,365683,-0.179246,-2.261298,0.007291,-0.217370,-12.057160,1.493674,-2.800369,-2.770295,4.104206,25.435524,-503.654488,132.026273,-179.343501,161.691888,-38.464203,0.723864,0.120587,0.103920,-0.671327,26.028955,1607.498291,299.073486,260.567230,299.073486,1308.424805,95.318184,83779.617188,73.019295,3,0.000000,0, 202
124, 101,2076261903,-331414111,-1304524823,-1757476885,-1803211170724838744522752.000000,0.000000,-0.000000,0.000000,0.000000,0.000000,0.000000,-0.000000,0.000000,0.000000,0.000000,0.000000,30039489.649355,-0.000000,25681896450838702095073280.000000,-115172209730717438095392768.000000,0.000000,-6346189312.000000,-0.000000,0.000000,0.000000,0.000000,0.000000,0.000000,-205014128.000000,-0.000000,0.000000,0.000000,1161840680,0.000000,29, 202
125, 101,366325,1017668334,1,366325,-0.241396,-1.392300,-0.074941,0.257843,-11.189796,1.582026,-4.722473,-2.770295,5.713367,-7.024318,-54.297702,80.971626,178.002735,-5.880135,2.790550,-0.023682,0.702729,0.709393,0.048704,26.101219,1636.425171,328.000366,294.770721,328.000366,1308.424805,83.362953,83561.906250,74.353127,3,0.000000,0, 202
126, 101,366569,1030712219,1,366565,-0.238642,-1.220147,-0.023961,0.279665,-11.011865,1.598902,-4.241947,-0.848191,4.330142,-8.045936,41.848415,71.312571,177.201554,-11.630215,5.131165,-0.053191,0.695080,0.711347,0.089556,26.028955,1641.060181,332.635376,301.733032,332.635376,1308.424805,80.900330,83500.609375,59.936924,3,0.000000,0, 202
127, 101,366827,1031970798,1,366815,-0.155421,-1.042793,-0.110848,0.206344,-10.826223,1.618980,-4.722473,-1.809243,5.101613,-7.128481,27.361478,60.518051,175.161048,-1.201425,2.103013,0.023333,0.689535,0.722945,0.036704,26.042505,1646.343140,337.918335,308.198273,337.918335,1308.424805,76.744888,83435.656250,46.871441,3,0.000000,0, 202
128, 101,367375,1024310467,1,367371,-0.080351,-0.716428,-0.079680,0.117075,-10.490356,1.631423,-5.202998,-0.367666,5.219479,-12.622659,14.848884,41.353206,169.154143,7.570157,0.960954,0.113711,0.676252,0.727648,0.016772,26.092186,1664.276855,355.852051,331.691223,355.852051,1308.424805,62.556992,83282.171875,53.335041,3,0.000000,0, 202
129, 101,367650,987821648,1,367636,-0.126729,-0.625368,0.067558,0.146624,-10.391305,1.612971,-4.241947,-1.328717,4.495658,-16.268758,38.821180,36.559380,165.337679,15.591327,-0.551307,0.184362,0.667545,0.721320,-0.009622,26.051537,1667.263672,358.838867,336.699768,358.838867,1308.424805,60.261520,83247.710938,44.226448,3,0.000000,0, 202
130, 101,367945,1024382356,1,367943,-0.155940,-0.516688,0.035851,0.109504,-10.254774,1.561589,-4.722473,-0.367666,4.784169,-18.644554,66.356524,30.987428,161.160909,32.044878,-4.578447,0.304142,0.641759,0.699469,-0.079909,26.047022,1672.912720,364.487915,342.991913,364.487915,1308.424805,55.774086,83183.320312,29.496130,3,0.000000,0, 202
131, 101,69632,-1623654400,-257223183,65536,-0.000648,83397209316336146477551190016.000000,8171089381294080.000000,5526991279316180181173323150917632.000000,32572284648744433042218338660384768.000000,-76585125793718278815744.000000,-5868047800775590674389249145371099136.000000,0.000183,0.000000,-0.000000,-11102954887013696.000000,2359003769654221362316713470327783424.000000,0.000000,-910.461484,-919863342869203230664699305862671368192.000000,-0.000000,125170600.000000,0.000000,452733828115035097923584000.000000,0.000000,33982666244096.000000,0.002613,0.000000,561437380238681889005283862848208896.000000,561454889662597541423892036061233152.000000,26172456960.000000,0.000000,-0.000000,5,0.000000,0, 202
132, 101,368536,-1136149974,1,368441,0.015678,-0.404983,0.325384,-0.063219,-10.181031,1.391444,-2.800369,0.112860,2.882039,-16.320409,62.431187,23.231688,159.135293,68.481560,-13.738153,0.520705,0.558760,0.599300,-0.239776,26.074120,1681.384521,372.959717,358.630951,372.959717,1308.424805,43.025753,83115.929688,32.057781,3,0.000000,0, 202
133, 101,368806,1017730920,1,368709,0.007905,-0.375429,0.407857,-0.115246,-10.145236,1.306207,-3.280895,-0.848191,3.394156,-11.910784,57.449083,21.547850,163.865623,85.637356,-18.745529,0.597011,0.518829,0.517061,-0.327171,26.051537,1683.049805,374.625000,360.013916,374.625000,1308.424805,41.120422,83096.796875,26.440865,3,0.000000,0, 202
134, 101,369023,1006834852,1,369001,0.041311,-0.347353,0.479108,-0.105983,-10.134298,1.260175,-2.800369,-0.848191,3.350787,-8.939147,55.349066,20.047377,171.417599,102.270601,-24.038948,0.655015,0.471242,0.415760,-0.419559,26.037989,1684.675903,376.251099,364.118683,376.251099,1308.424805,37.898129,83081.351562,19.134003,3,0.000000,0, 202
135, 101,1096400388,-1996996229,-721928447,1470579152,-0.000000,-0.000000,-3325359730083502227456.000000,-0.016998,-152002164162560.000000,-71.617455,-0.016998,0.000000,-124105009397760.000000,-7.595228,19.779584,270302213382835737198592.000000,0.000000,0.000000,0.000000,0.000000,0.000000,-7241728.000000,-1293711769520308224000.000000,992878394343424.000000,-168413641265158902871506910806278144.000000,-0.000000,-0.000404,0.000000,-124105009397760.000000,0.000000,-1519388704374784.000000,-0.000000,16043,0.000000,166, 202
136, 101,369581,-1114676099,1,369535,0.037184,-0.316257,0.603401,0.014495,-10.125971,1.372911,-4.241947,-1.809243,4.753459,4.760648,45.068115,18.680849,-173.537854,127.856620,-33.664858,0.677986,0.371496,0.238949,-0.587563,26.083153,1688.047241,379.622437,371.812256,379.622437,1308.424805,25.739548,83060.039062,10.045952,3,0.000000,0, 202
137, 101,0,1084643793,1,5029,0.271964,-8.403571,-0.007650,-0.007078,0.084239,1.217255,-3.280895,-6.614501,8.706581,-0.302740,-0.471624,566.382618,24.988853,38.209209,41.057746,0.585320,-0.014857,0.379045,0.716402,27.699759,1312.457031,0.351929,0.137568,0.014771,1312.442261,0.404915,86978.960938,-0.874261,0,0.000000,0, 202
138, 101,7765,1084669355,1,7745,0.266514,-8.424172,-0.002761,-0.001373,0.108014,1.217295,-3.280895,-7.095027,9.077023,-1.104670,0.172300,567.744831,24.964857,38.198301,41.047217,0.585496,-0.014874,0.379118,0.716500,27.713303,1312.377686,0.351929,0.138332,-0.064575,1312.442261,-0.211910,86982.601562,0.084829,0,0.000000,0, 202
139, 101,11996,-1067845061,1,11976,0.868419,-10.830192,0.087369,-0.630547,1.492209,1.546180,-2.800369,-7.575553,9.497191,-106.322242,-162.235544,652.385682,-10.785099,-0.672422,40.805548,0.695642,-0.063185,-0.069810,0.712191,27.762966,1312.884277,0.442017,0.152747,0.442017,1312.442261,0.587787,86975.343750,0.688385,0,0.000000,0, 202
140, 101,16308,-1058380541,1,16278,-1.451198,-3.807145,0.285857,0.538412,-1.444023,2.515714,-4.241947,-3.731347,10.491716,-17.185979,-56.457357,480.237977,36.192561,97.124020,-2.256874,0.657346,-0.639041,0.397457,-0.027886,27.762966,1312.235718,0.453613,0.272951,-0.206543,1312.442261,-0.408699,86984.312500,-0.607774,0,0.000000,0, 202
141, 101,-1087401254,1055408128,1061001633,1056180514,-0.361694,1312.442261,-6.438133,0.159987,0.000000,0.000000,0.134000,0.037700,0.723630,-243.045643,-103.662000,453.748673,5729.577951,0.000000,0.000000,0.000000,0.000000,-0.485757,-0.155622,2.864491,-2.560191,1.519810,-6.960180,-0.003831,0.769330,-6.926666,0.682098,0.182004,1102315520,27.771996,139, 202
142, 101,5014,-1057211315,1,5387,-6.200637,0.333509,0.394817,-0.064519,0.196566,3.113041,-9.047205,1.554438,12.416189,32.239562,-46.636224,574.933250,-178.908623,46.867641,22.789725,0.003061,-0.016885,-0.917331,0.397756,27.844231,1311.251099,0.671997,0.489416,0.493286,1310.757812,0.150017,86995.187500,0.387774,0,0.000000,0, 202
143, 101,-659111564,-2147467476,1341636722,134266151,-845496188928000.000000,-0.000000,-1825461902057257779077316608.000000,-156950822125568.000000,-116.117455,0.000000,54114083242111926272.000000,0.000000,0.000000,-67184664064560394276128375433068544.000000,-5876622416155459964633088.000000,1364813907420018176.000000,0.000000,0.000000,0.000000,0.000000,4543259751217974174964184288067584.000000,-1018951655076378331975141687304388608.000000,-0.000000,-0.000000,1169411.000000,54114553833088614400.000000,0.000000,0.000000,0.000000,0.001886,-9648.169922,-131.747284,-384220746,5629762317492158464.000000,169, 202
144, 101,5225,-1131696520,1,5597,8.332410,6.206066,0.069918,0.145274,0.913015,2.244033,3.446467,7.801274,8.555079,-128.878430,-27.976892,595.282460,136.591202,-143.486497,48.428080,-0.278433,0.442709,0.109869,0.845229,27.925493,1311.867676,0.000000,0.000000,-0.348877,1312.216553,0.568519,86988.109375,-0.053876,0,0.000000,0, 202
145, 101,9809,1086084838,1,9806,5.400094,6.049647,-0.025264,-0.454882,0.177593,2.238006,2.485415,6.359696,8.814977,16.210310,25.876694,574.101497,143.402499,-89.281023,40.874980,-0.086989,0.506654,0.476226,0.697721,27.916466,1311.710449,0.000000,0.000000,-0.506104,1312.216553,-0.089137,86990.335938,-0.468467,0,0.000000,0, 202
146, 101,13992,1073463815,1,13978,7.086242,6.150788,0.111707,-1.287976,-0.305925,1.684494,4.888044,6.840222,8.442402,30.541013,62.124068,549.309549,131.811654,-72.910254,35.571581,-0.143715,0.693686,0.335711,0.623340,27.920979,1311.879761,0.000000,0.000000,-0.336792,1312.216553,0.158840,86988.226562,0.084770,0,0.000000,0, 202
147, 101,18282,1077098613,1,18257,6.785836,6.645811,-0.028621,0.019809,0.100668,1.641124,4.407518,7.801274,9.355865,-3.902608,3.115411,567.361794,131.636119,-73.169132,35.535941,-0.133001,0.677028,0.373191,0.622005,27.939037,1311.469604,0.000000,0.000000,-0.746948,1312.216553,-0.287586,86991.750000,-0.833937,0,0.000000,0, 202
148, 101,116309449,-391070181,1073741824,1763752907,-0.000000,-0.000000,54175071301828901584502784.000000,98935825793810432.000000,0.000000,-121010641123534658600960.000000,0.000000,0.000000,0.000000,16167491299039923666944.000000,-0.000000,-159303754267694555727401058304.000000,-24258302105440504519037531717632.000000,0.000000,36538477962331880.000000,0.000000,0.000000,0.000000,0.000000,-2780375022759238300296282112.000000,-0.000000,-7576000216758298749029274615808.000000,-0.000000,-71.618439,0.000000,-55583512715673731484491777254096896.000000,281595465592874205184.000000,0.003132,-771997683,0.000000,61, 202
149, 101,24654,1076429830,1,24616,7.384912,6.207087,-0.052862,-0.061432,0.186430,1.601559,4.407518,6.840222,8.570937,1.787042,-4.810474,573.069646,125.304069,-72.118649,35.840554,-0.115802,0.692354,0.340502,0.633875,27.966125,1312.041870,0.000000,0.000000,-0.174683,1312.216553,0.143370,86985.062500,0.445730,0,0.000000,0, 202
150, 101,28883,1068655295,1,28862,6.742024,7.036295,-0.050352,0.059615,0.042914,1.423068,2.485415,7.320748,8.186376,-0.431376,0.882411,564.026148,136.106108,-66.672953,32.631109,-0.181238,0.719891,0.352926,0.569337,27.993212,1312.090088,0.000000,0.000000,-0.126465,1312.216553,-0.090110,86982.367188,-0.098609,0,0.000000,0, 202
151, 101,33200,1093045225,1,33161,0.583958,2.014137,0.490561,0.922236,0.509545,2.856239,-3.280895,0.593386,10.446117,-36.084760,-27.001884,608.383855,-179.919955,-106.335062,41.946261,-0.090900,0.049279,0.673304,0.792199,28.038357,1312.126221,0.130981,0.000000,-0.090332,1312.216553,0.274286,86986.187500,0.012205,0,0.000000,0, 202
152, 101,37448,1089796443,1,37415,0.709727,5.744092,-0.098975,-1.120360,-0.281898,2.618805,-1.358791,5.398644,9.728024,-1.649222,-4.509244,549.872521,175.322678,-95.423302,39.915520,-0.206815,0.232598,0.646370,0.721139,28.060930,1312.199463,0.354736,0.219237,-0.017090,1312.216553,-0.151255,86984.609375,-0.350312,0,0.000000,0, 202
153, 101,4109728,2042572225,4060070,1866535400,-7212764554854784802226176.000000,-3687920003732937076170031104.000000,51574702080.000000,-8.000000,-253005312697151393327121005948174336000.000000,-0.000000,0.000000,0.000000,0.000000,0.000000,0.000000,50512719150847979683840.000000,-11437652109.015850,-0.000000,0.000000,-2361183241434822606848.000000,0.000000,0.000000,0.000000,0.000000,-12528021.000000,194633.609375,-0.000000,-0.000000,0.000000,-0.000012,-0.000000,0.000000,-79387642,0.000000,198, 202
154, 101,0,-1086456362,1,4909,-10.062043,1.011483,-0.479313,-1.361310,-0.341781,3.071015,-12.891412,1.073912,12.937480,61.535777,66.995181,580.976383,163.988238,26.445203,-3.550691,0.155486,0.039503,0.985101,-0.221581,28.169275,1312.385132,1.349731,1.072211,0.786255,1311.598877,0.286013,86983.781250,-0.757111,0,0.000000,0, 202
155, 101,11206740,65536,1103970185,0,0.000000,39304596247310823728047194112.000000,0.000000,-143711222827385706529161216.000000,-163222430070915580559360.000000,0.000000,-13488484655803918544045959282688.000000,-414.536224,-0.000000,-0.000000,351874565783862496524385648640.000000,-314800181210.613831,216137112.564263,57907548.036861,-25607858425856952.000000,1244119161380885548268341166080.000000,0.000000,-10652811264.000000,0.000000,-64349371014381043712.000000,0.000000,-0.000000,-0.000000,0.000000,-512.982910,0.000000,-121464946688.000000,0.000000,499056640,0.000000,0, 202
156, 101,0,1074080778,1,5040,9.673247,0.187385,0.003907,-0.024283,0.093791,3.125271,6.329622,-0.367666,6.386847,0.585850,3.214293,567.015804,-179.457196,-166.882012,56.966489,-0.009774,-0.003580,0.106551,0.993406,21.803947,1309.911133,0.766113,0.555773,0.574707,1309.336426,0.684744,87007.640625,0.038698,0,0.000000,0, 202
157, 101,7677,1072427483,1,7640,9.691442,0.122024,-0.006100,0.031979,0.064866,3.125977,6.810148,-0.367666,7.169609,0.921602,0.203229,565.276728,179.855519,-169.108066,57.041147,-0.006199,0.001865,0.093950,0.995456,21.745174,1309.681152,0.766113,0.555773,0.344727,1309.336426,-0.071899,87010.789062,-0.751368,0,0.000000,0, 202
158, 101,14100,1072678044,1,14070,9.687243,0.182589,0.000872,-0.009702,0.067368,3.124059,6.810148,-0.848191,6.905800,-0.717721,-0.490086,565.416283,179.230092,-168.994480,57.030406,-0.008519,0.007573,0.095457,0.995337,21.623108,1309.755737,0.766113,0.592582,0.419312,1309.336426,-0.103970,87009.289062,-0.701725,0,0.000000,0, 202
159, 101,18306,1072784232,1,18301,9.676487,0.178784,0.006968,0.004804,0.059157,3.122981,6.329622,-0.367666,6.572289,0.103231,-0.384455,564.945601,179.315593,-169.007225,57.027213,-0.008475,0.006812,0.096097,0.995347,21.663797,1310.058960,0.825806,0.709533,0.722534,1309.336426,-0.065843,87003.554688,0.097787,0,0.000000,0, 202
160, 101,22537,1072791428,1,22530,9.680535,0.186963,0.001768,0.006367,0.063418,3.122021,7.290674,-2.289769,7.743396,1.289617,-0.164525,565.191324,179.299528,-169.097971,57.033203,-0.009160,0.007014,0.094929,0.995417,21.672840,1309.928955,0.825806,0.709533,0.592529,1309.336426,0.018399,87005.343750,-0.190382,0,0.000000,0, 202
161, 101,26779,1072748558,1,26778,9.700604,0.207902,-0.004210,-0.012047,0.082571,3.121761,7.290674,0.112860,7.619492,-0.680321,-0.097241,566.287979,179.498191,-168.926042,57.025335,-0.009447,0.005315,0.096439,0.995280,21.681881,1309.612061,0.825806,0.709533,0.275635,1309.336426,0.019074,87015.992188,-0.869317,0,0.000000,0, 202
162, 101,31093,1072776658,1,31080,9.692334,0.208969,-0.010779,-0.002117,0.075128,3.120630,6.810148,0.112860,7.027556,-1.830714,0.251941,565.860791,-179.245515,-169.072672,57.027999,-0.011153,-0.005552,0.095762,0.995374,21.654755,1310.062134,0.828369,0.709533,0.725708,1309.336426,0.300338,87009.640625,1.195520,0,0.000000,0, 202
163, 101,0,1085429306,1,4613,8.180354,0.047338,-0.009473,-0.005453,0.097420,3.137532,2.965941,-1.809243,5.399580,0.073438,0.477678,567.138638,-173.483786,-145.664221,54.652356,-0.018713,-0.053703,0.294805,0.953864,20.433901,2081.675049,0.285156,0.000000,-0.082275,2081.757324,1.519204,79112.640625,-0.774585,0,0.000000,0, 202
164, 101,0,1085720309,1,4789,7.880385,-1.775853,-0.010505,-0.003161,0.092362,0.683350,2.965941,-4.211873,8.322069,0.471114,-0.920196,566.847945,73.480541,-2.022270,43.456112,0.258519,0.568261,0.187077,0.758452,12.562558,656.195190,0.293762,0.092184,0.173889,656.021301,1.029450,94186.859375,0.439696,0,0.000000,0, 202
165, 101,0,4652,1,1,5.677684,7.917764,-1.779263,0.014941,-0.037097,0.103104,5.575014,2.965941,-3.731347,0.675477,-1.420993,-0.283613,10.584602,3.156589,34.978567,0.948539,0.094584,-0.000978,0.302202,664.697449,94180.640625,-0.608323,0.348050,0.334839,-0.009460,0.030310,8.250000,12.992926,0,2.910000,8, 202
166, 101,4776,6364,1,1,5.653075,-7.931649,1.797910,-0.009100,-0.010804,0.103574,4.613962,-2.965941,4.211873,-0.428129,-0.325346,0.798441,169.583174,176.684112,-34.811975,0.300679,0.000241,0.095671,0.948915,664.495361,94186.601562,-0.947442,-0.228190,0.334839,-0.211548,-0.065328,8.375000,13.038225,0,2.910000,0, 202
167, 101,8563,8551,1,1,5.655973,-7.917789,1.772218,-0.000762,0.010527,0.089503,6.536066,-3.926993,3.250821,0.304750,1.316662,0.050144,169.602968,177.076506,-35.002223,0.301594,-0.003010,0.094024,0.948784,665.010742,94176.976562,0.822199,0.228618,0.334839,0.303833,0.041688,8.375000,13.056345,0,2.910000,0, 202
168, 101,0,4591,1,1,-3.197239,7.152016,-3.982473,-0.125999,1.268381,-1.105651,-4.035503,3.926993,-4.692398,-13.382774,-14.263583,79.836346,29.467458,-40.945533,3.452035,0.908302,0.227967,-0.345284,-0.061624,663.662231,94198.570312,-0.274088,0.428361,0.516479,-0.093994,0.152000,7.250000,12.340563,0,2.910000,8, 202
169, 101,4782,6378,1,1,-2.012959,-12.748112,0.963653,-1.643783,2.801573,2.726735,3.652910,0.878266,7.575553,41.030797,-48.783141,174.401463,170.580218,-124.006210,15.695372,0.062794,0.458339,-0.075831,-0.883307,663.880737,94188.898438,0.385444,0.035215,0.516479,0.124512,0.038143,7.250000,12.340563,0,2.910000,0, 202
170, 101,8506,8468,1,1,-0.040886,-9.709104,1.492904,0.280618,0.131742,0.017402,-0.191296,-5.368570,3.731347,15.042452,8.793732,-7.158468,161.535599,-125.238444,-15.289365,-0.043467,0.468862,-0.080808,-0.878493,663.717102,94189.742188,-0.184722,-0.208784,0.516479,-0.039124,-0.119823,7.250000,12.308847,0,2.910000,0, 202
171, 101,10626,10602,1,1,1.668217,-9.670487,0.685445,-1.081160,1.143103,-0.090412,2.211333,-4.888044,1.809243,-4.870027,7.421830,25.487382,174.527603,-130.440398,-4.745131,-0.017552,0.420090,-0.025974,-0.906941,663.812744,94191.507812,-0.039432,0.168547,0.516479,0.056519,0.083428,7.250000,12.268071,0,2.910000,0, 202
172, 101,12825,12802,1,1,0.927715,-9.837498,0.082023,-0.000239,-0.014373,0.080474,0.769756,-6.329622,-0.112860,0.058137,-2.127410,-0.215685,179.298586,-127.204077,-6.011510,-0.044250,0.444271,0.017838,-0.894621,663.733887,94194.265625,0.170025,-0.000435,0.516479,-0.022339,0.037312,7.375000,12.231826,0,2.910000,0, 202
173, 101,14945,14900,1,1,0.931789,-9.832287,0.062309,0.020133,0.011212,0.075510,1.250281,-5.849096,1.809243,-0.000894,0.276720,0.105510,179.186188,-127.355776,-6.079710,-0.044386,0.443120,0.017158,-0.895199,663.786072,94193.335938,0.331336,0.130184,0.516479,0.029846,-0.034511,7.250000,12.240888,0,2.910000,0, 202
174, 101,17070,17055,1,1,0.921747,-9.828511,0.077901,-0.003083,-0.003420,0.070945,0.289230,-5.849096,1.328717,-0.088745,-1.734799,-0.639940,179.299337,-127.430662,-5.918986,-0.043587,0.442516,0.017388,-0.895532,663.588501,94190.265625,-0.414969,-0.211492,0.516479,-0.167725,-0.229819,7.250000,12.200110,0,2.910000,0, 202
175, 101,19208,19166,1,1,0.901777,-9.833654,0.095069,-0.023905,-0.014981,0.074333,0.769756,-6.329622,1.809243,-0.161360,-0.785675,0.168468,179.364210,-127.687422,-5.726696,-0.042395,0.440513,0.017047,-0.896583,663.958252,94188.085938,-0.295098,0.051663,0.516479,0.202026,0.135787,7.125000,12.141210,0,2.910000,0, 202
176, 101,21342,21287,1,1,0.887323,-9.829350,0.079043,0.000629,-0.015618,0.068624,1.250281,-6.329622,0.367666,0.290063,-0.979666,0.659120,179.343897,-128.193922,-5.747442,-0.042263,0.436581,0.016130,-0.898527,663.880432,94192.539062,-0.388157,0.071036,0.516479,0.124207,0.222847,7.250000,12.050592,0,2.910000,0, 202
177, 101,23489,23464,1,1,0.871693,-9.837322,0.060647,0.007877,0.001846,0.075050,0.769756,-5.368570,0.367666,0.072186,-1.122111,-0.765715,179.370781,-128.789077,-5.574538,-0.041481,0.431895,0.016069,-0.900826,663.819092,94194.375000,0.298206,0.012115,0.516479,0.062866,0.057403,7.125000,12.027937,0,2.910000,0, 202
178, 101,25649,25646,1,1,0.871384,-9.836334,0.064123,0.000573,0.008411,0.074061,1.250281,-7.290674,-0.112860,-0.420226,-1.250867,0.174035,179.362666,-129.533076,-5.518556,-0.041317,0.426033,0.015854,-0.903625,663.882568,94193.921875,0.518647,0.074772,0.516479,0.126343,0.135502,7.000000,11.923724,0,2.910000,0, 202
179, 101,27812,27769,1,1,0.934450,-9.838519,0.073736,0.006018,0.006530,0.082067,2.211333,-5.368570,1.328717,0.071756,0.005409,0.014655,179.237305,-128.847748,-6.012013,-0.044432,0.431421,0.016643,-0.900902,663.738831,94194.703125,-0.186362,0.121082,0.516479,-0.017395,0.093633,7.000000,11.882944,0,2.910000,0, 202
180, 101,30111,30058,1,1,0.927066,-9.831967,0.070317,-0.034922,0.021501,0.053377,1.250281,-5.368570,0.848191,0.383727,-1.389510,0.405319,179.394536,-128.366903,-5.813363,-0.043350,0.435166,0.017333,-0.899139,663.888489,94192.304688,-0.310719,0.229931,0.516479,0.132263,0.234810,7.000000,11.778728,0,2.910000,0, 202
181, 101,32193,32143,1,1,0.949079,-9.822701,0.068367,-0.001793,0.005918,0.072278,2.211333,-6.810148,-0.112860,-0.439991,-0.348341,0.707299,179.378622,-129.121735,-5.972533,-0.044719,0.429217,0.017488,-0.901924,663.956787,94190.312500,0.300654,0.061227,0.516479,0.200562,0.129285,6.875000,11.765134,0,2.910000,0, 202
182, 101,34278,34246,1,1,0.963937,-9.835411,0.067126,-0.000646,-0.004530,0.081761,1.250281,-4.888044,0.848191,0.145810,-3.624486,-0.597894,179.419029,-129.504908,-6.063639,-0.045678,0.426170,0.017980,-0.903310,663.754578,94193.992188,-0.091161,0.047655,0.516479,-0.001648,0.056515,6.875000,11.724353,0,2.910000,0, 202
183, 101,36381,36351,1,1,0.953697,-9.816965,0.073640,-0.009123,0.016027,0.062439,1.250281,-4.888044,0.848191,-0.251089,0.208449,0.620210,179.306673,-130.183064,-5.973124,-0.045394,0.420850,0.016950,-0.905835,663.743408,94194.703125,-0.325942,0.012191,0.516479,-0.012817,0.009594,6.750000,11.669977,0,2.910000,0, 202
184, 101,38475,38454,1,1,0.938636,-9.828057,0.069533,0.025056,-0.007360,0.071988,1.730806,-5.368570,-0.112860,0.240077,0.351056,-0.282308,179.253493,-130.627559,-6.149206,-0.044840,0.417352,0.016662,-0.907485,664.219482,94184.625000,0.651638,0.227347,0.516479,0.463257,0.236038,6.750000,11.579350,0,2.910000,0, 202
185, 101,40573,40563,1,1,0.942731,-9.828440,0.080407,-0.005917,-0.009297,0.072870,1.730806,-4.407518,1.809243,-0.326141,-1.113745,0.732766,179.372174,-130.235943,-5.977270,-0.045062,0.420455,0.016476,-0.906044,663.880127,94190.289062,-0.394102,-0.273991,0.577393,0.123901,0.233081,6.750000,11.552161,0,2.910000,0, 202
186, 101,0,4773,1,1,0.378810,9.865064,-0.079092,0.012769,0.002179,0.067920,1.730806,5.368570,-1.809243,-0.270513,0.870708,-1.109467,0.480290,-1.260408,2.091242,0.999765,0.003990,-0.011073,0.018201,663.461121,94198.281250,-0.083330,0.241352,0.336426,-0.203430,-0.026524,3.750000,8.515045,0,2.910000,8, 202
187, 101,4998,6590,1,1,0.349160,-9.861941,0.076989,0.001967,0.003651,0.067420,1.250281,-6.329622,0.848191,-0.618515,2.230335,0.343029,179.531727,-179.656214,-2.041801,0.017805,-0.003072,0.004032,0.999829,663.981201,94186.468750,0.514552,0.318772,0.336426,0.316650,0.106793,3.750000,8.601201,0,2.910000,0, 202
188, 101,8702,8679,1,1,0.338920,-9.880832,0.065206,-0.022627,0.013439,0.085823,0.769756,-5.368570,0.367666,-0.039975,-0.968764,0.564759,179.544910,-179.702291,-1.835348,0.017037,-0.002647,0.003320,0.999846,663.728271,94192.125000,-0.541937,-0.108624,0.336426,0.063721,0.129969,3.750000,8.587598,0,2.920000,0, 202
189, 101,10804,10761,1,1,0.351799,-9.864055,0.085307,-0.000564,-0.012634,0.078327,1.250281,-4.888044,-0.112860,-0.279530,-0.288689,-0.085058,179.581943,-178.773426,-2.006544,0.017469,-0.010766,0.003460,0.999783,663.731934,94195.484375,-0.434662,0.231697,0.336426,0.067383,0.192480,3.750000,8.651080,0,2.910000,0, 202
190, 101,12906,12903,1,1,0.337571,-9.875353,0.062391,-0.006825,0.002936,0.080315,1.250281,-7.771200,0.848191,0.703788,-1.104890,0.218619,179.621940,-178.823778,-1.925635,0.017081,-0.010315,0.002996,0.999796,663.560547,94197.609375,-0.345101,-0.173143,0.336426,-0.104004,-0.048737,3.875000,8.678287,0,2.920000,0, 202
191, 101,15011,15011,1,1,0.344951,-9.879640,0.072008,0.001362,-0.002257,0.084922,0.769756,-5.849096,0.848191,-0.244614,0.669538,-0.578978,179.595671,-179.576957,-2.010667,0.017532,-0.003753,0.003463,0.999833,663.885498,94189.007812,0.807378,-0.052845,0.336426,0.220947,-0.010645,3.875000,8.682821,0,2.910000,0, 202
192, 101,17123,17119,1,1,0.303331,-9.883969,0.072171,-0.002270,0.010997,0.087880,0.289230,-6.329622,1.328717,-0.019986,-0.075309,0.836106,179.518203,-179.631434,-1.747345,0.015234,-0.003280,0.004155,0.999870,663.715332,94191.031250,-0.133475,-0.060838,0.336426,0.050781,0.006855,3.875000,8.696424,0,2.910000,0, 202
193, 101,19236,19231,1,1,0.316158,-9.864069,0.079047,0.008361,0.003194,0.068447,-0.191296,-5.849096,1.328717,0.590243,-0.291846,-0.647763,179.521987,-179.358801,-1.889464,0.016464,-0.005663,0.004079,0.999840,663.843201,94192.195312,0.138042,0.278331,0.336426,0.178650,0.075486,3.875000,8.723630,0,2.910000,0, 202
194, 101,21443,21440,1,1,0.251871,-9.869475,0.067981,0.007434,-0.003482,0.071919,1.730806,-4.888044,0.367666,-0.440403,-0.095553,-0.105653,179.624823,-178.939509,-1.512336,0.013166,-0.009297,0.003151,0.999865,663.618286,94200.070312,-0.176342,0.090820,0.339478,-0.046265,0.164582,3.875000,8.750836,0,2.910000,0, 202
195, 101,23563,23560,1,1,0.256508,-9.871006,0.081789,0.008979,-0.014135,0.073663,-0.191296,-5.368570,1.328717,0.292557,-0.817437,-0.366638,179.606791,-179.309090,-1.546379,0.013473,-0.006075,0.003350,0.999885,663.864258,94186.609375,0.471591,-0.040533,0.339478,0.199707,-0.017936,3.875000,8.746302,0,2.910000,0, 202
196, 101,25686,25682,1,1,0.247213,-9.881231,0.068890,-0.004075,-0.000141,0.083562,0.769756,-5.849096,0.367666,-0.199909,-1.257718,0.569385,179.601723,-179.407732,-1.413656,0.012318,-0.005211,0.003412,0.999905,663.709534,94194.351562,-0.552319,0.164080,0.339478,0.044983,0.177939,3.875000,8.755370,0,2.910000,0, 202
197, 101,0,4662,1,1,0.236115,9.885088,-0.072500,-0.009593,-0.000751,0.087169,0.769756,4.407518,-1.328717,-0.057734,-0.101587,0.631003,0.423867,0.621367,1.419344,0.999907,0.003734,0.005375,0.011969,663.711853,94194.046875,-0.071869,0.295945,0.401794,-0.073853,-0.065004,3.625000,8.714561,0,2.920000,8, 202
198, 101,4840,6447,1,1,0.245003,-9.866953,0.083937,0.006896,-0.008770,0.069345,-0.191296,-5.368570,1.809243,-0.289933,-0.552153,-0.304700,179.562846,-178.953880,-1.471336,0.012804,-0.009177,0.003697,0.999869,664.012573,94190.343750,0.805468,0.337756,0.401794,0.226868,0.132399,3.750000,8.732698,0,2.910000,0, 202
199, 101,8748,8729,1,1,0.242796,-9.885262,0.069594,-0.013725,0.000564,0.087479,1.250281,-4.888044,-0.112860,-0.747560,-1.282604,0.720195,179.594428,-179.304200,-1.332348,0.011605,-0.006113,0.003468,0.999908,663.561157,94195.687500,-0.294518,-0.100202,0.401794,-0.224548,-0.082535,3.625000,8.678287,0,2.910000,0, 202
200, 101,10829,10806,1,1,0.247360,-9.888967,0.080669,-0.026743,-0.002225,0.091352,-0.191296,-4.888044,1.328717,0.013391,0.620570,1.264674,179.546972,-179.503136,-1.282035,0.012386,-0.004376,0.004011,0.999906,663.706726,94188.906250,-0.383900,0.047737,0.401794,-0.078979,-0.065991,3.750000,8.669218,0,2.910000,0, 202
201, 101,12916,12889,1,1,0.242326,-9.868748,0.073299,0.005856,0.014530,0.070982,0.769756,-4.407518,-0.112860,0.215993,2.538905,-0.428445,179.490159,-179.854017,-1.441681,0.012575,-0.001330,0.004433,0.999910,663.673950,94193.875000,-0.216999,-0.133582,0.401794,-0.111755,-0.043980,3.750000,8.691890,0,2.910000,0, 202
202, 101,15011,14977,1,1,0.236122,-9.874427,0.089918,0.003656,-0.020259,0.076637,0.769756,-4.407518,0.367666,-0.627270,0.283017,0.634716,179.595726,-179.490555,-1.395670,0.012163,-0.004488,0.003473,0.999910,663.647888,94192.945312,-0.272724,-0.158161,0.401794,-0.137817,-0.141208,3.750000,8.696424,0,2.910000,0, 202
203, 101,17121,17072,1,1,0.731694,-9.866009,0.048572,-0.019147,-0.000068,0.078873,0.769756,-7.771200,1.328717,0.151643,0.681778,1.987719,179.738190,-178.588970,-4.098298,0.035726,-0.012387,0.001843,0.999283,663.816101,94191.921875,0.009706,0.046621,0.401794,0.030396,-0.090542,3.750000,8.687355,0,2.910000,0, 202
204, 101,19226,19225,1,1,0.694821,-9.850415,0.056597,-0.036046,-0.008948,0.073983,0.769756,-6.329622,1.328717,-0.492544,-1.362533,1.185225,179.727317,-178.946640,-3.831660,0.033408,-0.009267,0.002071,0.999397,663.570618,94197.539062,-0.415414,-0.050300,0.401794,-0.215088,-0.097242,3.750000,8.669218,0,2.910000,0, 202
205, 101,21346,21301,1,1,0.674869,-9.850262,0.058627,0.013937,0.006726,0.072515,0.769756,-5.849096,0.848191,0.533733,0.195819,-0.848745,179.620219,-179.624809,-4.002477,0.034276,-0.003379,0.002889,0.999403,663.697449,94195.625000,0.270980,0.177856,0.401794,-0.088257,-0.123079,3.625000,8.669218,0,2.910000,0, 202
206, 101,23468,23457,1,1,0.677741,-9.857317,0.057940,0.001230,-0.012332,0.079751,1.730806,-5.849096,0.367666,-1.026396,-0.027899,0.998442,179.735431,-179.359019,-3.944077,0.034398,-0.005670,0.002115,0.999390,663.648560,94195.445312,-0.031696,0.183771,0.401794,-0.137146,-0.059491,3.625000,8.646545,0,2.920000,0, 202
207, 101,25671,25621,1,1,0.677870,-9.853378,0.049761,-0.027706,0.007711,0.084846,1.250281,-5.849096,1.328717,-0.250129,-0.279375,0.052488,179.668864,179.957617,-3.844479,0.033544,0.000273,0.002900,0.999433,663.759216,94193.500000,0.179544,0.131719,0.401794,-0.026489,-0.023196,3.625000,8.642011,0,2.910000,0, 202
208, 101,27789,27781,1,1,0.692587,-9.865986,0.057180,-0.003848,-0.001009,0.089430,0.769756,-5.368570,3.250821,-0.620936,1.109664,1.211563,179.674779,-179.478930,-3.996266,0.034854,-0.004643,0.002678,0.999378,663.800964,94189.656250,-0.243916,-0.156234,0.401794,0.015259,-0.022089,3.625000,8.642011,0,2.910000,0, 202
209, 101,29910,29886,1,1,0.701895,-9.833625,0.060026,0.001679,0.003677,0.057825,1.730806,-6.329622,0.367666,-0.230976,-1.060416,-0.529600,179.629699,-179.625410,-4.094720,0.035715,-0.003382,0.003113,0.999351,663.715759,94195.273438,-0.625287,-0.281167,0.552185,-0.069946,0.138987,3.625000,8.623874,0,2.910000,0, 202
210, 101,32049,32025,1,1,3.722183,-9.229298,0.536544,0.485368,-0.165860,0.151857,3.652910,-2.965941,1.328717,3.219264,2.585755,-12.746432,177.729800,-177.305249,-24.908517,0.215103,-0.027227,0.014268,0.976107,663.716187,94193.460938,-0.036013,0.044921,0.552185,-0.069519,-0.072526,3.625000,8.637477,0,2.910000,0, 202
211, 101,34183,34134,1,1,3.717329,-9.175227,0.113342,0.000702,-0.005296,0.099311,4.133436,-4.888044,0.367666,-0.975405,-0.090522,-0.378452,179.373813,-177.366858,-22.089493,0.191399,-0.023597,0.000960,0.981228,663.620728,94193.460938,-0.654646,-0.112770,0.552185,-0.164978,-0.088398,3.625000,8.637477,0,2.910000,0, 202
212, 101,36330,36308,1,1,3.710675,-9.176745,0.098224,0.004890,-0.003578,0.098059,4.613962,-4.407518,0.848191,-0.633546,-1.008895,-0.237044,179.450025,-177.110302,-22.073295,0.191255,-0.025667,-0.000118,0.981205,663.636597,94195.484375,0.015429,-0.115559,0.552185,-0.149109,-0.067527,3.625000,8.651080,0,2.910000,0, 202
213, 101,38475,38427,1,1,3.719106,-9.182773,0.121711,-0.005630,-0.009629,0.107065,4.133436,-3.926993,1.328717,-0.292803,0.884556,-0.336618,179.352585,-177.556081,-22.045844,0.191037,-0.022012,0.001467,0.981335,663.792969,94193.390625,0.407303,0.086968,0.552185,0.007263,-0.035678,3.625000,8.628407,0,2.920000,0, 202
214, 101,40833,40814,1,1,3.727692,-9.187118,0.114064,-0.003256,-0.009693,0.114227,4.613962,-3.446467,0.848191,-0.161227,0.094142,0.280752,179.397132,-177.985427,-22.089317,0.191451,-0.018261,0.001795,0.981331,663.841675,94189.828125,-0.038305,-0.015230,0.552185,0.055969,0.013216,3.625000,8.664683,0,2.910000,0, 202
215, 101,43075,43043,1,1,3.717832,-9.169863,0.115279,-0.004067,0.005736,0.094549,3.652910,-4.888044,1.809243,-0.322692,1.855907,-0.043550,179.299692,-177.472166,-22.075513,0.191273,-0.022819,0.001774,0.981270,663.944702,94187.640625,0.603456,-0.062929,0.552185,0.158997,-0.028021,3.625000,8.628407,0,2.920000,0, 202
216, 101,45230,45220,1,1,3.723686,-9.196836,0.110203,-0.002994,-0.004161,0.121688,3.652910,-4.888044,0.848191,0.081444,-0.621390,0.064319,179.387829,-177.503325,-22.052866,0.191228,-0.022441,0.001264,0.981288,663.921570,94191.546875,0.194119,0.010821,0.552185,0.135864,0.020598,3.625000,8.637477,0,2.910000,0, 202
217, 101,47391,47344,1,1,3.720288,-9.189012,0.118974,0.015494,-0.001442,0.113252,4.133436,-3.926993,1.328717,0.385525,-0.541528,-1.050638,179.316344,-177.574878,-22.159941,0.192009,-0.021913,0.001787,0.981147,663.928284,94188.593750,-0.200636,0.144246,0.552185,0.142578,0.118004,3.625000,8.628407,0,2.910000,0, 202
218, 101,49603,49578,1,1,3.719556,-9.166945,0.116756,-0.001941,0.003484,0.092513,4.613962,-5.849096,0.848191,0.381940,-0.447340,0.415916,179.303380,-177.187989,-22.107179,0.191519,-0.025246,0.001260,0.981163,663.835571,94194.453125,0.495366,0.125994,0.552185,0.049866,0.035628,3.625000,8.642011,0,2.910000,0, 202
219, 101,51688,51640,1,1,3.719929,-9.177996,0.132152,-0.013130,-0.027348,0.103041,3.652910,-5.368570,1.809243,-0.619823,-1.141040,0.196590,179.396298,-177.464871,-22.020991,0.191382,-0.022956,0.002178,0.981245,663.921143,94188.562500,0.000767,0.086890,0.552185,0.135437,0.007478,3.500000,8.623874,0,2.910000,0, 202
220, 101,53785,53781,1,1,3.714847,-9.175704,0.105555,0.000842,0.004724,0.098735,4.613962,-5.368570,0.367666,0.131228,0.503130,0.654950,179.361287,-178.214430,-22.064824,0.191253,-0.016360,0.002488,0.981401,663.935059,94191.437500,0.148519,-0.064492,0.552185,0.149353,0.119303,3.500000,8.623874,0,2.910000,0, 202
221, 101,55883,55869,1,1,3.713280,-9.171487,0.129929,0.007065,-0.008007,0.094523,4.613962,-4.407518,0.848191,-0.166952,-1.140801,-1.436350,179.292575,-178.366975,-22.104027,0.191591,-0.015169,0.003327,0.981352,664.028625,94190.484375,-0.177430,0.030589,0.552185,0.242920,0.219031,3.750000,8.623874,0,2.920000,0, 202
222, 101,57984,57953,1,1,3.723837,-9.180183,0.109465,-0.002333,0.003065,0.106305,3.652910,-3.446467,1.328717,0.327357,-0.829358,0.253145,179.349334,-178.301719,-22.084645,0.191427,-0.015633,0.002734,0.981378,663.957397,94192.398438,0.034868,0.033586,0.552185,0.171692,0.267239,3.500000,8.623874,0,2.910000,0, 202
223, 101,60176,60152,1,1,3.709299,-9.175911,0.115622,0.004859,-0.006327,0.096957,4.613962,-4.407518,1.328717,-0.110730,-0.700115,0.370150,179.366245,-178.376005,-22.057797,0.191205,-0.014968,0.002717,0.981432,663.865356,94193.429688,-0.309850,0.008175,0.552185,0.079651,0.162557,3.625000,8.632942,0,2.910000,0, 202
224, 101,62278,62268,1,1,3.718606,-9.176833,0.118470,0.003830,0.016238,0.101326,4.133436,-4.407518,0.848191,-0.447003,2.797428,-0.277435,179.219424,-178.074588,-22.103833,0.191555,-0.017795,0.003464,0.981315,664.052307,94185.750000,0.042456,-0.027819,0.552185,0.266602,0.172072,3.500000,8.632942,0,2.910000,0, 202
225, 101,64384,64359,1,1,3.718363,-9.168868,0.120216,-0.012177,-0.014734,0.093870,4.133436,-4.407518,-0.593386,-0.745885,-1.806291,0.314546,179.390971,-178.307648,-22.024654,0.190920,-0.015511,0.002395,0.981480,663.840393,94192.468750,-0.076451,-0.135740,0.552185,0.054688,0.109146,3.625000,8.632942,0,2.910000,0, 202
226, 101,66499,66500,1,1,3.710114,-9.163198,0.119596,0.003259,-0.003177,0.085528,3.652910,-4.888044,2.289769,0.454325,0.216292,0.379341,179.324349,-178.189814,-22.083485,0.191257,-0.016661,0.002900,0.981394,663.839233,94189.656250,-0.269922,-0.074462,0.552185,0.053528,0.070020,3.625000,8.642011,0,2.910000,0, 202
227, 101,68618,68586,1,1,3.721106,-9.172512,0.130848,-0.005018,-0.021931,0.098405,4.613962,-4.407518,0.848191,-0.407140,-0.453467,-0.102356,179.370139,-178.034604,-22.078349,0.191357,-0.017885,0.002110,0.981355,664.088623,94188.492188,0.074609,0.228062,0.552185,0.302917,0.280145,3.625000,8.614804,0,2.910000,0, 202
228, 101,70754,70733,1,1,3.749672,-9.177629,0.110308,-0.020497,-0.010844,0.113663,4.613962,-4.888044,0.848191,-0.844665,-2.916992,0.861739,179.427130,-179.017469,-22.115743,0.192657,-0.009465,0.003753,0.981213,664.133301,94185.515625,0.176845,0.113872,0.552185,0.347595,0.280140,3.500000,8.601201,0,2.910000,0, 202
229, 101,72890,72853,1,1,3.723334,-9.173208,0.122835,0.003455,-0.001297,0.099810,4.133436,-4.888044,1.328717,-0.499403,0.790272,0.592159,179.296099,-178.845061,-22.126181,0.191816,-0.011070,0.004094,0.981360,663.993958,94191.335938,0.355195,0.173969,0.552185,0.208252,0.148305,3.500000,8.610270,0,2.920000,0, 202
230, 101,75032,75003,1,1,3.736140,-9.163261,0.112537,-0.003396,0.015166,0.095289,4.133436,-3.926993,0.848191,0.479572,0.202417,0.237798,179.260610,179.923848,-22.161688,0.192194,-0.000588,0.006460,0.981336,664.126831,94185.445312,-0.127581,0.074668,0.552185,0.341125,0.238822,3.500000,8.592132,0,2.910000,0, 202
231, 101,77262,77212,1,1,3.742181,-9.177348,0.111876,0.005908,0.005161,0.108336,5.094488,-2.965941,-0.593386,0.368165,-1.304814,0.166153,179.326221,179.735608,-22.195492,0.192493,0.001132,0.006214,0.981278,664.136841,94188.390625,0.089408,0.102033,0.552185,0.351135,0.289763,3.500000,8.601201,0,2.910000,0, 202
232, 101,79399,79360,1,1,3.738787,-9.171873,0.118413,0.006993,-0.008500,0.104336,4.613962,-4.407518,0.848191,0.568810,-1.156473,-0.487634,179.364620,179.355905,-22.210337,0.192635,0.004447,0.006523,0.981239,664.211975,94187.359375,0.343964,0.086384,0.552185,0.426270,0.313485,3.375000,8.592132,0,2.910000,0, 202
233, 101,81662,81657,1,1,3.736559,-9.167869,0.118461,0.007175,0.001393,0.099791,3.652910,-5.849096,0.848191,-0.269792,1.185561,0.046080,179.306577,179.734980,-22.212743,0.192641,0.001104,0.006383,0.981248,663.909424,94191.367188,-0.020432,-0.004671,0.552185,0.123718,0.135373,3.375000,8.614804,0,2.910000,0, 202
234, 101,83811,83811,1,1,5.502256,-8.388852,0.924982,-2.966972,-0.512193,-0.186532,4.613962,-0.563312,5.172924,28.223665,25.270197,83.186165,178.723197,-176.128271,-16.392314,0.272678,-0.037154,0.033757,0.960795,663.807312,94191.093750,-0.810366,-0.179283,0.552185,0.021606,0.109176,3.500000,8.578528,0,2.910000,0, 202
235, 101,85967,85915,1,1,9.395797,-0.313334,2.729880,0.287770,0.361456,0.075598,9.419221,5.202998,4.211873,0.184707,-4.316183,-15.939872,163.009486,157.908373,-85.809941,0.681573,0.040092,0.235206,0.691758,664.034302,94191.304688,0.083592,0.181183,0.552185,0.248596,0.231533,3.500000,8.605736,0,2.910000,0, 202
236, 101,88127,88077,1,1,9.160628,-2.808468,2.169745,-1.154120,-0.374348,-0.157311,9.899747,2.800369,4.211873,6.283678,1.864294,39.637808,167.800358,169.562260,-60.181514,0.504829,0.025201,0.136906,0.851921,664.167969,94190.375000,0.412217,0.030437,0.552185,0.382263,0.311303,3.500000,8.610270,0,2.910000,0, 202
237, 101,90345,90293,1,1,8.584614,-3.931538,3.057668,-0.131202,-0.000458,0.108151,8.938695,1.839317,4.211873,2.472719,0.270109,2.256706,161.548864,169.470012,-60.719139,0.509476,-0.002534,0.183532,0.840680,664.034607,94186.539062,-0.597143,-0.105477,0.552185,0.248901,0.324179,3.625000,8.610270,0,2.910000,0, 202
238, 101,92441,92401,1,1,5.075061,-8.308504,0.980561,-1.252991,0.028910,-0.096457,5.094488,-4.407518,1.328717,-5.144422,3.001737,26.861321,174.775361,-174.031854,-24.590805,0.266172,-0.058194,0.035536,0.961511,663.884399,94188.703125,-0.529682,-0.155774,0.552185,0.098694,0.192863,3.625000,8.642011,0,2.910000,0, 202
239, 101,94617,94579,1,1,3.796854,-9.113046,1.624686,0.111317,-0.071429,0.203290,4.133436,-4.407518,2.770295,-1.057750,0.289643,7.063298,170.937041,-173.785762,-24.295338,0.205279,-0.069425,0.065754,0.974021,664.002197,94192.539062,0.002534,0.169714,0.552185,0.216492,0.270902,3.500000,8.642011,0,4.930000,0, 202
240, 101,96735,96703,1,1,1.805706,-9.126675,1.891966,-1.383768,-0.043199,-0.408470,2.211333,-4.407518,2.770295,-4.687799,-7.003386,40.165003,169.570443,-173.317526,-3.957150,0.094207,-0.055234,0.094547,0.989513,664.012390,94185.000000,-0.125814,-0.082686,0.552185,0.226685,0.171940,3.625000,8.660149,0,4.920000,0, 202
241, 101,98837,98833,1,1,4.723135,-8.725312,0.086578,0.014797,0.003727,0.121013,5.575014,-2.965941,0.848191,0.394310,-0.139381,0.508952,179.468043,-174.528163,-28.561051,0.245529,-0.047354,-0.007476,0.968203,663.886841,94188.703125,-0.737320,-0.211490,0.552185,0.101135,0.195999,3.625000,8.642011,0,4.920000,0, 202
242, 101,100935,100909,1,1,4.717912,-8.676201,0.183130,0.081772,0.106240,0.075777,5.094488,-4.407518,-0.112860,-0.872930,1.011707,2.136260,178.231041,-170.830722,-29.188346,0.249941,-0.081221,-0.005247,0.964834,663.901367,94188.937500,-0.258449,-0.022754,0.552185,0.115662,0.171408,3.625000,8.673752,0,4.920000,0, 202
243, 101,103066,103024,1,1,6.477480,-6.690835,2.709015,0.620434,-0.157584,-0.123499,7.497117,-4.888044,4.692398,-4.268041,-2.142286,-39.106754,164.157040,-173.724687,-49.754107,0.409190,-0.107071,0.102035,0.900382,663.791626,94192.984375,-0.570596,-0.083852,0.558716,0.005920,0.203560,3.625000,8.700958,0,4.920000,0, 202
244, 101,105183,105161,1,1,8.071185,-4.594938,3.317422,0.007134,-0.020871,0.061165,7.016591,0.878266,4.211873,2.738071,3.398453,9.902220,160.456634,178.244305,-59.763773,0.492837,-0.071977,0.155453,0.853092,664.080261,94190.312500,-0.197741,0.033615,0.558716,0.294556,0.353552,3.750000,8.728165,0,4.920000,0, 202
245, 101,107308,107295,1,1,4.171785,-8.809010,2.126806,0.214770,0.020658,0.172926,6.055540,-3.926993,3.250821,-5.318422,0.340434,4.939116,166.506925,-161.936682,-30.754826,0.233242,-0.181527,0.067885,0.952910,664.267029,94185.617188,0.021009,0.074997,0.558716,0.481323,0.398246,3.625000,8.741768,0,4.920000,0, 202
246, 101,109430,109377,1,1,1.299307,-9.022925,3.690116,0.114237,0.059461,0.032705,2.691859,-4.407518,5.653450,15.090009,2.072388,-2.940854,155.303667,-157.084406,-18.839538,0.114786,-0.225737,0.175004,0.951441,664.362244,94187.601562,0.395568,0.276531,0.786133,0.576538,0.545926,3.625000,8.750836,0,4.920000,0, 202
247, 101,111657,111640,1,1,0.527428,-6.356696,7.609811,-0.008567,-0.133496,0.127600,0.769756,-1.043838,6.614501,-2.843908,-2.572733,5.223815,127.543565,-163.029813,-26.006972,0.135060,-0.227986,0.401519,0.876678,664.231323,94186.640625,0.032818,-0.010354,0.786133,0.445618,0.444174,3.625000,8.750836,0,4.920000,0, 202
248, 101,113785,113743,1,1,-1.292482,-6.531463,7.526309,0.184246,0.005945,0.245983,-2.593925,-9.212777,6.133976,2.821790,5.181634,29.680604,121.728150,-152.980910,-26.215757,0.081833,-0.306095,0.414802,0.852965,664.217102,94184.789062,-0.165338,-0.019819,0.786133,0.431396,0.375048,3.625000,8.759905,0,4.920000,0, 202
249, 101,115919,115892,1,1,-4.940801,-5.422145,6.752186,0.101160,1.506589,0.054108,-4.996555,0.397740,6.614501,-6.715303,-9.386240,66.717978,86.911630,-133.466391,-40.033678,-0.053137,-0.483544,0.533589,0.691842,664.330811,94184.859375,0.432483,0.099875,0.786133,0.545105,0.363618,3.625000,8.768973,0,4.920000,0, 202
250, 101,118077,118034,1,1,-0.539483,-6.515268,7.711626,0.184271,-0.271160,0.303526,2.691859,-4.407518,6.133976,0.425830,-3.340866,7.485867,127.761106,-162.284325,-19.245404,0.071662,-0.213316,0.414699,0.881695,664.037598,94190.648438,-0.452155,-0.002007,0.786133,0.251892,0.371802,3.625000,8.773508,0,4.920000,0, 202
251, 101,120220,120186,1,1,1.115225,-5.756851,7.826762,-0.252365,0.012908,-0.024528,2.211333,-2.004889,7.095027,2.046063,0.050239,14.405296,126.404084,-172.509309,-18.554219,0.114524,-0.130069,0.434599,0.883793,663.952209,94192.570312,-0.587221,0.003033,0.786133,0.166504,0.374250,3.750000,8.773508,0,4.920000,0, 202
252, 101,122375,122338,1,1,2.243320,-6.071117,7.766740,-0.055822,0.149450,0.307796,2.211333,-1.043838,8.056079,1.485557,2.665566,9.998767,128.932060,178.794777,-18.338510,0.148255,-0.059315,0.427027,0.890028,663.952515,94188.726562,-0.555785,0.128945,0.786133,0.166809,0.260870,3.750000,8.773508,0,4.920000,0, 202
253, 101,124536,124516,1,1,1.964544,-6.069478,7.599207,0.134874,-0.001515,0.120076,2.691859,-1.524364,6.614501,3.753401,2.141518,-2.996930,130.017282,179.924477,-19.056962,0.144838,-0.071906,0.416381,0.894695,663.970215,94192.804688,-0.414063,-0.092618,0.786133,0.184509,0.295601,3.625000,8.805248,0,4.910000,0, 202
254, 101,126701,126676,1,1,-0.267027,-6.012009,7.873981,0.303679,0.071931,0.104440,0.289230,-2.004889,8.056079,0.802318,10.005104,3.291563,123.628610,-165.587514,-20.308765,0.084447,-0.197210,0.436236,0.873885,664.133545,94188.140625,0.335475,0.051127,0.786133,0.347839,0.275375,3.875000,8.823385,0,4.920000,0, 202
255, 101,128943,128889,1,1,-0.382517,-5.896421,7.474662,-0.157400,-0.076275,-0.274507,-0.191296,-2.004889,7.575553,-1.806559,3.715757,-5.402704,124.766191,-160.595533,-20.955406,0.082009,-0.229930,0.422153,0.873037,664.071716,94191.054688,0.252206,0.087677,0.786133,0.286011,0.269703,3.750000,8.827919,0,4.920000,0, 202
256, 101,131150,131101,1,1,-0.737149,-6.419283,7.617022,-0.200172,-0.204662,-0.064684,-0.671822,-0.082786,6.614501,-3.656982,-2.553247,2.516722,125.298154,-159.089955,-21.569164,0.081541,-0.242872,0.413672,0.873636,663.985779,94189.234375,-0.449539,-0.096243,0.786133,0.200073,0.306392,3.750000,8.841522,0,4.910000,0, 202
257, 101,133371,133348,1,1,-3.018760,-6.061847,7.475763,0.042074,0.141326,0.284842,-1.632874,0.878266,7.095027,5.163206,-9.035600,71.151419,110.366247,-142.889347,-30.986717,0.032818,-0.396348,0.451819,0.798556,664.080078,94190.328125,0.784753,0.093884,0.786133,0.294373,0.201422,3.875000,8.859659,0,4.920000,0, 202
258, 101,135467,135457,1,1,3.346802,-9.279330,0.772029,-0.004290,0.018895,0.093580,3.652910,-4.407518,1.328717,-0.215682,0.037546,0.796198,175.108319,-159.073617,-21.521277,0.176169,-0.185931,0.006557,0.966618,663.866516,94188.171875,-0.231255,-0.280000,0.786133,0.080811,0.136446,3.750000,8.827919,0,4.920000,0, 202
259, 101,137561,137529,1,1,3.388990,-9.257421,0.763810,0.012500,0.001681,0.086787,4.613962,-3.446467,1.809243,0.278373,0.307512,-0.466492,175.239240,-159.709425,-21.825861,0.179013,-0.180550,0.006826,0.967114,664.000000,94191.085938,0.526508,0.173424,0.786133,0.214294,0.097073,3.750000,8.832454,0,4.920000,0, 202
260, 101,139670,139649,1,1,6.995069,-4.566481,4.965670,-1.555242,-0.529436,-0.222768,8.458169,-0.082786,5.172924,5.621261,-1.553991,36.965961,149.905386,171.314122,-40.653716,0.416165,-0.010588,0.290968,0.861413,663.840454,94191.156250,-0.226364,-0.128312,0.786133,0.054749,0.088763,3.750000,8.841522,0,4.920000,0, 202
261, 101,141783,141778,1,1,-0.361823,-7.067285,6.960798,-0.001738,-0.026600,0.125199,-0.671822,-1.043838,6.614501,2.803030,11.486503,10.027786,123.570621,-147.143066,-36.489729,0.137238,-0.378797,0.353702,0.844141,664.082214,94188.273438,0.188435,0.039565,0.786133,0.296509,0.211947,3.750000,8.841522,0,4.910000,0, 202
262, 101,143891,143842,1,1,0.043183,-6.423655,7.613688,0.137452,0.196297,0.157716,-1.152348,-2.004889,5.653450,4.003475,-2.951646,10.657323,119.699571,-153.798703,-37.764334,0.162700,-0.344764,0.389890,0.838244,663.943665,94192.382812,-0.094111,0.043311,0.786133,0.157959,0.223959,3.750000,8.877795,0,4.920000,0, 202
263, 101,146091,146042,1,1,4.276783,-5.113722,7.420800,0.075498,0.121345,0.173411,4.133436,-0.082786,6.614501,-0.036291,-0.123537,-11.230412,130.867039,173.257666,-33.003471,0.281326,-0.066609,0.413126,0.863566,664.018433,94188.539062,0.246233,-0.048548,0.786133,0.232727,0.162383,3.750000,8.877795,0,4.910000,0, 202
264, 101,148209,148188,1,1,4.384096,-3.718256,7.838976,0.226545,-0.395214,-0.090812,5.094488,0.397740,7.095027,-7.149323,0.784925,-1.483644,125.872723,163.728199,-28.783326,0.281474,0.010124,0.467590,0.837872,663.831421,94193.343750,0.167744,-0.117469,0.786133,0.045715,0.127547,3.750000,8.877795,0,4.910000,0, 202
265, 101,150334,150323,1,1,2.214219,-6.223874,7.589131,1.144791,-0.058679,0.195014,3.172385,-0.563312,8.056079,4.956390,-0.613583,-19.979652,129.635119,-174.465967,-36.167272,0.215851,-0.193936,0.383316,0.876850,663.848816,94191.492188,-0.501086,0.108450,0.786133,0.063110,0.157746,3.875000,8.886864,0,4.910000,0, 202
266, 101,152455,152407,1,1,1.723989,-5.770043,7.817092,0.091907,-0.302356,-0.124483,1.250281,-1.043838,7.095027,-25.450161,9.664270,-5.678352,124.076315,-168.292829,-33.841480,0.209981,-0.221937,0.420028,0.854534,663.872803,94193.406250,-0.318084,0.061594,0.786133,0.087097,0.193415,3.875000,8.886864,0,4.910000,0, 202
267, 101,154586,154567,1,1,0.834803,-6.571093,7.238699,-0.258406,-0.009695,0.007571,0.289230,-1.524364,6.614501,2.155542,3.404200,20.327427,128.020162,-157.402365,-31.607578,0.157446,-0.286487,0.365513,0.871514,663.856628,94193.437500,-0.602273,-0.109635,0.786133,0.070923,0.224733,3.750000,8.891398,0,4.910000,0, 202
268, 101,156725,156712,1,1,0.853203,-6.702866,7.648641,0.493957,0.215829,0.390540,1.250281,-1.043838,6.133976,-2.185937,6.094994,-20.636098,124.738720,-161.128138,-34.912225,0.173548,-0.282472,0.378581,0.864157,664.309998,94185.695312,0.282257,0.206726,0.786133,0.524292,0.415579,3.750000,8.882330,0,4.910000,0, 202
269, 101,158869,158859,1,1,-0.258601,-6.229966,7.885664,0.053861,0.016604,0.251854,-0.671822,-0.563312,9.497657,-0.818516,5.221059,-3.616259,119.596626,-154.902775,-34.627758,0.144943,-0.326286,0.411488,0.838574,664.014038,94190.562500,0.372119,-0.143131,0.786133,0.228333,0.226344,3.750000,8.891398,0,4.910000,0, 202
270, 101,161024,161014,1,1,0.187420,-6.368176,7.870327,-0.423703,0.200949,0.313887,1.250281,-1.524364,8.056079,0.271065,-11.077943,41.554454,124.136216,-159.172477,-25.188261,0.125424,-0.247487,0.411797,0.868011,663.907837,94191.656250,0.155300,-0.089037,0.786133,0.122131,0.135482,3.875000,8.909534,0,4.910000,0, 202
271, 101,163254,163221,1,1,3.989524,-5.094654,6.827196,-0.314869,-0.699456,-0.425819,6.055540,0.397740,6.614501,-13.207182,-51.089730,95.380955,134.530589,164.458415,-17.947427,0.194156,0.063451,0.397681,0.894499,663.995667,94191.687500,0.301967,-0.147766,0.786133,0.209961,0.249149,3.750000,8.914069,0,4.910000,0, 202
272, 101,165407,165407,1,1,6.494133,-5.201963,5.492136,0.176888,0.399589,0.159260,7.016591,-1.043838,5.653450,1.798004,3.124850,-2.866901,132.302294,139.246110,-18.569326,0.277269,0.253141,0.425439,0.823434,663.966492,94191.921875,-0.556031,-0.017708,0.786133,0.180786,0.311478,4.000000,8.945808,0,4.910000,0, 202
273, 101,167555,167509,1,1,3.928909,-9.049434,1.028184,-0.097452,0.007138,0.117477,2.691859,-2.485415,2.289769,0.005842,0.652108,0.122179,173.791582,169.156793,-21.748309,0.192558,0.082481,0.070740,0.975251,663.768555,94193.968750,-0.245845,-0.042995,0.786133,-0.017151,0.095064,3.875000,8.963944,0,4.910000,0, 202
274, 101,169773,169729,1,1,3.982610,-9.031569,1.019776,0.013197,0.006556,0.122213,5.575014,-3.446467,1.809243,-0.291931,-1.496422,0.225165,173.964276,168.821007,-22.704017,0.200656,0.085049,0.070517,0.973412,664.070129,94188.242188,-0.033408,0.066965,0.786133,0.284424,0.215743,3.875000,8.968478,0,4.910000,0, 202
275, 101,171865,171851,1,1,-0.364930,-9.333690,-1.398302,0.477518,-0.557772,-0.384682,-1.152348,-5.368570,1.809243,-5.424428,4.470462,0.444401,13.555302,20.155883,175.958063,0.013840,0.177754,-0.109996,0.977810,663.962402,94191.390625,-0.106049,0.111615,0.786133,0.176697,0.222569,4.000000,9.004751,0,4.910000,0, 202
276, 101,173950,173918,1,1,-0.316532,-9.861743,-1.976851,0.386813,-0.333647,0.248933,-1.632874,-5.849096,-0.593386,-10.741083,7.962462,10.777315,13.698135,8.426979,177.863836,0.009697,0.075153,-0.117552,0.990172,664.214905,94182.812500,0.068054,0.124463,0.786133,0.429199,0.328839,4.000000,9.013820,0,4.910000,0, 202
277, 101,176053,176035,1,1,-0.959122,-1.438951,9.999721,0.046767,-0.916838,0.305539,0.289230,4.722473,9.017131,-1.623479,-10.296133,-17.978274,102.619392,-173.847179,-6.899081,0.008548,-0.081140,0.651625,0.754141,664.086792,94185.187500,-0.084207,-0.170598,0.786133,0.301086,0.282513,4.125000,9.077295,0,4.910000,0, 202
278, 101,178150,178120,1,1,-0.624503,2.981694,9.787729,0.185782,0.642539,0.428017,-0.191296,7.125102,9.497657,-13.950710,-40.693348,25.533032,69.486663,-177.463054,-0.093626,-0.017725,-0.013287,0.821501,0.569776,663.966553,94189.921875,-0.355986,-0.033560,0.786133,0.180847,0.217987,4.125000,9.068228,0,4.910000,0, 202
279, 101,180338,180318,1,1,4.363531,1.338886,8.990976,-0.128565,-0.009034,0.281364,5.094488,8.086153,9.017131,38.127765,-41.711955,16.820910,93.376472,154.007843,-24.419043,0.300717,0.018574,0.687885,0.660332,663.978882,94191.210938,-0.273335,0.047281,0.786133,0.193176,0.240977,4.125000,9.113567,0,4.910000,0, 202
280, 101,182447,182412,1,1,4.058625,0.019446,9.383821,-0.067292,0.030303,0.422672,4.613962,6.164050,7.575553,17.027615,-10.826797,-8.144220,102.937795,160.842417,-35.112418,0.331506,-0.061175,0.624909,0.704167,664.246826,94187.398438,0.099142,0.197580,0.786133,0.461121,0.379033,4.125000,9.118101,0,4.910000,0, 202
281, 101,184609,184592,1,1,3.232305,-9.297585,-1.365583,3.820423,3.965215,-1.528204,2.691859,-4.407518,-2.034964,-5.635712,12.923532,-104.981886,6.397514,39.084409,123.045434,0.205792,0.368402,0.009600,0.906553,664.449097,94185.062500,0.216846,0.103196,0.826294,0.663391,0.617283,4.125000,9.195178,0,4.910000,0, 202
282, 101,186720,186677,1,1,-2.717096,-9.004526,-2.177654,0.718029,3.359824,-0.778678,-2.113400,-3.926993,-1.554438,17.571497,-2.589660,-59.715162,46.911952,71.237801,130.020314,-0.021818,0.631668,-0.168873,0.756307,664.405518,94188.078125,0.525587,0.184282,0.826294,0.619812,0.580632,4.125000,9.213313,0,4.910000,0, 202
283, 101,188837,188823,1,1,7.616496,3.707333,-5.098528,0.210029,0.085224,0.083277,7.016591,8.086153,-5.398644,16.003072,-43.468082,8.780118,34.008905,22.353111,48.124318,0.828007,0.340261,0.053815,0.442416,664.297546,94188.140625,0.208918,0.034370,0.826294,0.511841,0.561877,4.125000,9.222381,0,4.910000,0, 202
284, 101,190962,190941,1,1,4.470983,-7.937320,-3.560926,-0.097809,0.101093,-0.020860,4.613962,-2.965941,-2.996016,0.664561,3.351434,-5.849191,129.544209,62.313045,16.813790,0.292394,0.798056,0.104967,0.516327,664.200195,94189.609375,-0.026118,-0.077152,0.826294,0.414490,0.520008,4.250000,9.294922,0,4.910000,0, 202
285, 101,193097,193055,1,1,4.497413,8.000402,3.565539,-0.023038,0.301861,0.040472,5.094488,4.407518,2.515490,0.308494,0.722476,-2.385907,47.444997,118.755365,-16.152684,0.509321,0.100094,0.804808,0.287848,664.246460,94184.804688,0.063875,-0.072446,0.826294,0.460754,0.411648,4.250000,9.294922,0,4.910000,0, 202
286, 101,195249,195241,1,1,4.233168,8.623782,2.015029,0.209282,-1.897251,-0.172588,3.652910,3.446467,1.073912,25.831559,-17.855721,37.418563,45.882028,108.963927,-6.768612,0.563807,0.125428,0.785345,0.222764,664.161194,94184.156250,0.181115,-0.063372,0.826294,0.375488,0.326267,4.250000,9.340260,0,4.910000,0, 202
287, 101,197473,197458,1,1,1.733607,9.175824,0.850304,0.085237,-1.972636,-0.634452,1.250281,3.926993,0.112860,12.188766,-17.890176,18.797481,26.609278,109.189276,-2.825973,0.575790,0.055812,0.809620,0.099327,664.106323,94188.187500,0.190217,0.030773,0.826294,0.320618,0.287045,4.375000,9.367461,0,4.910000,0, 202
288, 101,199607,199607,1,1,7.256137,0.155162,6.151611,1.049572,0.563903,-0.361808,7.497117,-4.241947,5.879170,-4.746080,20.283556,-84.881513,133.364102,150.477291,-72.936988,0.608925,-0.039345,0.446891,0.654180,663.955811,94192.367188,0.035715,-0.164385,0.826294,0.170105,0.306768,4.375000,9.417332,0,4.910000,0, 202
289, 101,201743,201707,1,1,-6.421480,6.761249,-2.592602,-4.558949,0.457833,-1.275869,-6.438133,0.563312,-2.770295,11.758448,-41.701221,102.254298,18.638360,-6.844217,-11.802024,0.926870,0.175089,-0.075044,-0.323458,664.310303,94182.078125,0.294059,0.166006,0.826294,0.524597,0.325822,4.250000,9.458135,0,4.910000,0, 202
290, 101,203914,203913,1,1,5.390561,6.685884,-4.916037,0.011959,0.158091,0.093517,5.094488,1.043838,-5.653450,7.813605,-0.218774,19.384005,29.158153,-7.676765,43.222243,0.903957,0.209635,-0.152733,0.339981,664.333496,94187.492188,0.746189,0.024874,0.826294,0.547791,0.411317,4.500000,9.548805,0,4.910000,0, 202
291, 101,206072,206048,1,1,4.955901,6.884008,-5.152063,-0.117090,0.047301,0.122625,5.094488,1.043838,-5.653450,7.832001,5.099514,19.316600,31.560511,-8.968988,42.056671,0.904328,0.227105,-0.169409,0.319242,664.359253,94182.453125,0.081054,0.130130,0.826294,0.573547,0.532764,4.625000,9.657608,0,4.910000,0, 202
292, 101,208252,208209,1,1,6.852035,-5.179348,5.047419,-1.943085,-0.109557,-0.030387,7.016591,-0.082786,5.172924,52.580736,-9.047869,47.215230,149.011327,177.834439,-38.519972,0.401056,-0.049465,0.267915,0.874602,664.343994,94186.250000,0.667866,0.109751,0.826294,0.558289,0.509367,4.750000,9.798141,0,4.900000,0, 202
293, 101,210470,210423,1,1,7.454803,5.931518,4.217154,-0.680216,-1.868637,0.204767,7.016591,10.008257,5.172924,94.877365,12.856896,109.426563,102.659628,120.993837,-28.011618,0.463022,0.241455,0.620703,0.584840,663.952515,94191.781250,0.332430,-0.260417,0.826294,0.166809,0.157425,4.875000,9.911471,0,4.910000,0, 202
294, 101,212566,212549,1,1,4.969958,8.405329,1.122031,0.058993,-0.193148,0.025912,5.094488,12.410886,1.809243,6.301663,1.860887,8.926187,12.934956,122.208709,20.745093,0.454539,0.210169,0.845913,0.183452,663.862000,94191.453125,0.182577,-0.102397,0.826294,0.076294,0.050019,5.000000,10.011199,0,4.910000,0, 202
295, 101,214753,214738,1,1,6.431113,7.061215,2.175183,-0.386673,0.764742,-0.043077,7.977643,11.930360,2.770295,-1.563931,8.204272,-17.820643,26.289031,120.080203,14.033836,0.455187,0.246384,0.810040,0.275561,663.886230,94191.492188,0.265582,0.087389,0.826294,0.100525,0.093038,5.000000,10.174385,0,4.900000,0, 202
296, 101,216840,216790,1,1,5.560138,7.877646,1.951074,0.136834,-0.194632,0.073206,7.497117,11.930360,2.770295,-0.953672,0.901178,2.085108,18.495387,127.906548,21.374437,0.399768,0.224884,0.861670,0.217113,663.914185,94194.132812,0.115092,0.027992,0.826294,0.128479,0.215578,5.000000,10.292238,0,4.910000,0, 202
297, 101,218936,218918,1,1,7.615816,-1.533281,6.264791,-0.441353,-1.532347,0.050717,7.497117,3.761421,6.133976,48.746340,6.404455,30.326569,134.124903,143.334921,-36.461032,0.389911,0.159387,0.441996,0.791962,664.060730,94190.015625,-0.025131,0.053338,0.826294,0.275024,0.259628,5.000000,10.410088,0,4.900000,0, 202
298, 101,221035,220989,1,1,5.567791,-5.868459,6.280858,0.302706,-0.158648,0.434794,4.133436,-1.043838,5.653450,-2.800760,11.759223,4.104943,142.852013,171.303740,-38.853528,0.337145,-0.037863,0.323433,0.883341,664.002686,94190.804688,0.415102,-0.228607,0.826294,0.216980,0.163351,5.250000,10.546064,0,4.900000,0, 202
299, 101,223146,223119,1,1,8.343218,-1.572068,5.403588,-1.333113,-0.436456,0.164528,8.458169,2.319843,5.172924,5.625910,1.868434,-4.167217,133.224001,144.736148,-39.362100,0.407806,0.134365,0.449838,0.783126,664.348816,94182.882812,0.541599,0.090522,0.826294,0.563110,0.350741,5.250000,10.677505,0,4.900000,0, 202
300, 101,225425,225401,1,1,7.398229,-3.297067,6.283971,0.052227,-0.004184,0.450340,7.977643,0.878266,5.653450,1.918283,-6.164676,4.769166,134.500946,148.804263,-38.447599,0.390642,0.111503,0.433338,0.804477,664.243896,94185.578125,0.418610,-0.011370,0.826294,0.458191,0.339796,5.250000,10.818005,0,4.900000,0, 202
301, 101,227565,227522,1,1,7.487084,-2.802794,6.032122,0.216573,-0.540652,0.196968,7.977643,-2.485415,5.172924,-10.168709,4.273716,1.800634,137.207053,145.278725,-40.141305,0.402752,0.127395,0.443007,0.790763,664.299011,94188.265625,-0.153009,0.088501,0.826294,0.513306,0.542981,5.375000,10.958501,0,4.900000,0, 202
302, 101,229691,229661,1,1,8.805170,0.514441,4.331891,-1.096632,-1.111068,-0.099254,8.458169,7.125102,4.692398,89.706946,62.389127,70.979319,137.166072,133.744584,-49.479055,0.488546,0.191566,0.458012,0.717531,664.188843,94182.890625,-0.126543,-0.127799,0.826294,0.403137,0.403217,5.500000,11.035545,0,4.900000,0, 202
303, 101,231899,231851,1,1,5.833853,7.585268,1.508069,0.193243,-0.309383,-0.028360,7.016591,10.488783,1.328717,13.170600,-6.631644,5.564057,21.087891,120.172397,21.350973,0.452408,0.247533,0.820487,0.246688,664.006958,94189.289062,-0.812268,-0.087864,0.826294,0.221252,0.404593,5.500000,11.153376,0,4.900000,0, 202
304, 101,234022,233989,1,1,7.578086,-2.773728,6.155530,0.212145,-0.261098,0.342882,7.497117,1.358791,7.095027,-4.988808,5.964712,6.740301,133.882172,143.587747,-37.893435,0.399535,0.151092,0.445251,0.786953,664.183472,94186.070312,0.257814,-0.005581,0.826294,0.397766,0.375037,5.625000,11.280266,0,4.900000,0, 202
305, 101,236158,236145,1,1,6.134447,-4.201284,6.211193,-0.622723,-0.201188,-0.134932,6.055540,1.839317,6.133976,-2.722345,-18.273140,15.784260,137.483471,163.101885,-35.637338,0.357773,0.028592,0.390615,0.847703,664.593384,94188.648438,0.243758,0.640329,1.010620,0.807678,0.761455,5.875000,11.411684,0,4.900000,0, 202
306, 101,238294,238288,1,1,7.091769,-4.173555,6.386730,-0.177501,0.244826,0.611042,8.938695,1.839317,6.614501,23.153877,-17.860598,3.555099,133.911760,151.953213,-33.550279,0.353704,0.110843,0.418383,0.829194,664.494019,94182.289062,-0.377959,-0.121195,1.010620,0.708313,0.722049,5.875000,11.493252,0,4.900000,0, 202
307, 101,240429,240380,1,1,8.628711,-1.509785,4.217202,0.652945,0.099785,0.414653,8.458169,5.683524,3.731347,2.006903,11.350991,-3.921278,130.043441,120.392917,-39.696878,0.464482,0.299362,0.497628,0.668585,664.335388,94185.679688,0.290193,-0.051409,1.010620,0.549683,0.516421,6.000000,11.597475,0,4.900000,0, 202
308, 101,242572,242531,1,1,6.837760,-3.505557,5.771829,-0.276729,-0.393032,-0.202727,7.016591,2.319843,5.653450,5.943698,-22.335577,21.618201,135.416451,147.529777,-31.479488,0.343060,0.150190,0.420714,0.826288,664.169861,94187.171875,0.047670,-0.007490,1.010620,0.384155,0.381467,6.000000,11.710758,0,4.900000,0, 202
309, 101,244731,244692,1,1,6.551625,-3.430376,4.710627,0.420379,0.462254,-1.055094,6.536066,1.839317,4.692398,-4.900665,-24.027438,25.457297,135.474931,139.913707,-34.859155,0.384298,0.196011,0.434571,0.790597,664.180908,94186.578125,-0.176066,-0.071539,1.010620,0.395203,0.459032,6.125000,11.792321,0,4.900000,0, 202
310, 101,246901,246861,1,1,8.738696,-1.221585,3.761987,0.306439,0.380936,-0.221302,8.938695,3.280895,5.172924,-5.939947,-10.701054,-8.147831,124.646253,117.080248,-32.790372,0.430297,0.332098,0.503456,0.671630,664.345581,94184.984375,0.058326,0.007721,1.010620,0.559875,0.484798,6.250000,11.869350,0,4.900000,0, 202
311, 101,249150,249111,1,1,10.595882,-1.419226,1.251882,-1.628732,-2.251195,0.597725,9.419221,2.800369,1.809243,85.014484,-40.338278,72.921415,164.677951,122.301340,-54.315129,0.536734,0.348688,0.364936,0.676132,664.534607,94180.414062,0.785082,0.134147,1.010620,0.748901,0.563465,6.125000,11.928255,0,4.900000,0, 202
312, 101,251362,251342,1,1,5.858452,-8.651478,-0.384381,-0.294422,-0.275588,0.646710,10.380273,-3.446467,-2.515490,-3.275629,10.306305,121.294980,2.870282,52.887896,145.785620,0.252640,0.432082,0.109522,0.858768,664.203735,94186.390625,-0.142129,-0.174679,1.010620,0.418030,0.447417,6.250000,11.969034,0,4.900000,0, 202
313, 101,0,3712,1,1,3.839233,9.126788,0.102564,0.018057,0.009673,0.100923,4.613962,5.368570,0.112860,0.250864,-0.065695,-1.183364,179.350072,-179.739638,-157.292864,0.980251,-0.005576,-0.001203,0.197676,664.196289,94186.320312,0.507002,5.403745,0.435059,0.055054,-0.096137,6.250000,11.330114,0,2.910000,8, 202
314, 101,3865,5444,1,1,3.847091,9.121251,0.106848,0.015091,0.006803,0.098923,4.133436,4.407518,-1.328717,-0.398730,-0.358874,-0.177063,179.341807,-179.729434,-157.221597,0.980287,-0.006097,-0.001180,0.197482,664.271057,94185.554688,-1.137073,0.419925,0.455750,0.129822,0.178649,6.375000,11.370899,0,2.910000,0, 202
315, 101,7557,7542,1,1,3.844542,9.135501,0.117660,0.009959,0.008132,0.111192,4.133436,4.407518,-0.367666,-0.005007,-0.799138,0.273244,179.272672,-179.807571,-157.236774,0.980224,-0.006192,-0.000469,0.197792,664.174011,94187.257812,0.197140,-0.000700,0.455750,0.032776,-0.040282,6.375000,11.325583,0,2.910000,0, 202
316, 101,9640,9604,1,1,3.816016,9.131647,0.115717,0.017456,0.009662,0.096573,4.133436,4.407518,-1.328717,-0.323408,-1.093666,-0.018666,179.273369,-179.555155,-157.426735,0.980476,-0.006545,-0.002657,0.196513,664.331848,94184.968750,0.262812,0.259808,0.455750,0.190613,0.076338,6.250000,11.253075,0,2.910000,0, 202
317, 101,11806,11765,1,1,3.808782,9.138891,0.122276,-0.017896,-0.012644,0.101626,4.133436,4.888044,-1.328717,0.436330,1.705075,1.211134,179.365781,-179.533134,-157.103107,0.980076,-0.006233,-0.002894,0.198504,664.381165,94184.875000,-0.110451,-0.236501,0.455750,0.239929,0.154907,6.250000,11.234948,0,2.910000,0, 202
318, 101,13894,13874,1,1,3.809830,9.144810,0.118558,0.014106,0.001348,0.106381,4.133436,4.407518,-0.367666,0.467454,-0.980470,0.056401,179.304733,-178.820664,-157.478563,0.980542,-0.007894,-0.008925,0.195949,664.236267,94187.820312,-0.135997,0.038924,0.455750,0.095032,0.073904,6.250000,11.244012,0,2.910000,0, 202
319, 101,15983,15950,1,1,3.812968,9.153114,0.111184,0.007561,0.006685,0.115173,3.652910,5.368570,-0.848191,-0.131794,-2.394006,-0.877381,179.317341,-178.277213,-157.447595,0.980486,-0.008479,-0.013641,0.195933,664.377258,94183.546875,0.100122,-0.055956,0.455750,0.236023,0.136187,6.250000,11.162439,0,2.910000,0, 202
320, 101,18088,18053,1,1,3.812368,9.132063,0.130211,-0.000928,-0.003987,0.095750,4.613962,4.407518,-1.328717,-0.873648,0.041255,0.610532,179.268642,-177.302244,-157.371042,0.980250,-0.011053,-0.021794,0.196245,663.977295,94192.226562,0.218293,-0.062061,0.455750,-0.163940,-0.098798,6.125000,11.162439,0,2.910000,0, 202
321, 101,20197,20155,1,1,3.811388,9.123070,0.131968,0.021644,-0.008159,0.087072,3.652910,5.368570,-1.809243,-0.172351,0.630536,-0.913475,179.277357,-177.858590,-157.480175,0.980538,-0.009832,-0.017095,0.195338,664.497925,94182.351562,0.373193,0.238069,0.455750,0.356689,0.163195,6.125000,11.117120,0,2.910000,0, 202
322, 101,22310,22298,1,1,4.358428,8.878396,0.049020,-0.630879,0.024147,0.069442,5.094488,4.407518,-1.809243,2.653627,6.453430,8.236701,179.469914,178.353861,-150.186584,0.973240,0.000721,0.014804,0.229313,664.200073,94189.101562,0.150577,0.040100,0.455750,0.058838,0.110726,6.000000,11.117120,0,2.910000,0, 202
323, 101,24422,24409,1,1,3.176389,9.343319,-0.228637,-0.468801,0.805343,0.026053,4.133436,6.810148,-0.367666,-1.142663,-0.623891,9.486035,176.547167,177.953134,-158.546736,0.986070,0.010342,0.016871,0.165151,664.234497,94186.937500,-0.097639,0.071368,0.455750,0.093262,0.048446,6.125000,11.071801,0,2.910000,0, 202
324, 101,26535,26506,1,1,2.960495,-9.418063,-0.124215,-0.011971,-0.009006,0.072178,4.133436,-4.407518,0.367666,0.427880,-1.717455,0.576315,0.772311,0.715567,162.610343,0.151124,0.007191,-0.005718,0.988472,664.141785,94185.851562,-0.397500,-0.016395,0.455750,0.000549,0.042803,6.125000,11.049141,0,2.910000,0, 202
325, 101,28725,28725,1,1,5.328405,-9.734468,0.037957,0.546525,-0.272881,1.279616,4.613962,-5.368570,0.848191,-0.552739,3.661820,13.774511,1.022468,-3.879906,148.462153,0.271882,-0.030153,-0.017781,0.961694,664.230286,94185.828125,0.215401,0.030657,0.455750,0.089050,0.035082,6.250000,11.044609,0,2.910000,0, 202
326, 101,30838,30795,1,1,6.108356,7.790869,0.826615,0.014746,-1.451479,0.026815,6.536066,3.446467,-0.367666,-9.436816,-17.964234,-7.931360,3.586455,-6.612855,37.457341,0.945590,0.011076,-0.064626,0.318686,664.535889,94180.093750,-0.256657,0.101973,0.455750,0.394653,0.197017,6.125000,11.053673,0,2.910000,0, 202
327, 101,32962,32960,1,1,4.714944,8.801012,-0.154340,-0.190369,-0.079509,0.182475,4.133436,2.965941,0.112860,-10.942403,2.302516,14.814571,1.378171,-1.867499,29.301143,0.967337,0.007513,-0.018807,0.252682,664.164551,94189.539062,-0.687060,0.026957,0.455750,0.023315,0.142206,6.125000,11.017417,0,4.910000,0, 202
328, 101,35084,35076,1,1,4.952678,8.581822,0.144332,0.001838,0.014562,0.108456,6.055540,2.965941,-0.367666,-0.445322,0.375484,-0.158917,179.081153,-179.587380,-150.026854,0.965926,-0.008038,-0.001576,0.258690,664.286865,94187.664062,-0.277281,-0.072700,0.455750,0.145630,0.180572,6.125000,11.026482,0,4.910000,0, 202
329, 101,37212,37194,1,1,4.981792,-8.572593,-0.150268,-0.007690,-0.015361,0.115143,5.575014,-3.926993,0.848191,-0.006180,-0.564747,0.676124,0.957451,-0.487364,149.889662,0.259772,-0.001937,-0.009173,0.965625,664.274170,94188.718750,0.006917,-0.045765,0.455750,0.132935,0.118580,6.125000,11.044609,0,4.910000,0, 202
330, 101,39352,39312,1,1,7.195021,-6.800688,1.307287,-0.184613,-0.080060,0.183298,7.977643,-1.043838,1.809243,0.441519,-10.247965,11.925275,172.976672,-177.410667,-45.886529,0.387714,-0.044639,0.047601,0.919467,664.300171,94187.687500,0.253744,0.102012,0.455750,0.158936,0.130840,6.125000,11.031013,0,4.900000,0, 202
331, 101,41545,41519,1,1,8.292304,3.034102,3.960818,-1.375987,-1.046439,-0.279037,8.458169,9.047205,5.172924,-2.758375,5.003193,42.027329,149.163135,145.204481,-79.999827,0.694892,0.050063,0.406618,0.591000,664.495972,94182.937500,0.259465,0.022399,0.455750,0.354736,0.159371,6.125000,11.044609,0,4.910000,0, 202
332, 101,43624,43600,1,1,6.549272,6.471227,3.383060,0.383708,0.781942,-0.030833,7.016591,9.527731,4.211873,1.096600,-6.809159,-64.262627,142.945150,125.701777,-108.558958,0.769635,0.023043,0.516342,0.374863,664.222290,94185.921875,-0.069341,-0.035214,0.455750,0.081055,0.074145,6.125000,11.062737,0,4.900000,0, 202
333, 101,45784,45742,1,1,-0.276371,-4.646650,8.648010,-0.656944,0.187390,-0.003596,0.289230,-0.082786,7.575553,-2.880947,-6.379944,35.336479,116.349745,-168.258186,-10.601324,0.024373,-0.134998,0.514290,0.846574,664.273743,94186.937500,-0.515995,0.133271,0.455750,0.132507,0.223588,6.125000,11.071801,0,4.900000,0, 202
334, 101,47870,47826,1,1,0.553587,-4.125279,8.851333,-0.312186,-0.052829,-0.024998,2.211333,3.280895,7.095027,-6.069412,-21.164682,79.752656,115.498772,-178.690617,-6.129347,0.039123,-0.038177,0.532309,0.844783,664.327148,94187.007812,0.085047,-0.017817,0.455750,0.185913,0.212778,6.250000,11.085397,0,4.900000,0, 202
335, 101,49961,49915,1,1,3.542588,5.743002,7.223146,0.287222,0.145866,0.078376,3.652910,8.566679,7.575553,4.122989,0.258040,-5.677769,100.420194,136.469092,-74.954107,0.622522,-0.135511,0.645037,0.421936,664.406067,94186.109375,0.044894,0.067392,0.455750,0.264832,0.248731,6.250000,11.098992,0,4.900000,0, 202
336, 101,52055,52047,1,1,2.589636,6.141437,6.832123,0.166584,0.398924,-0.266092,2.211333,10.008257,5.653450,-20.798952,-11.174831,-36.016790,90.545892,134.785177,-71.350369,0.602139,-0.151046,0.678585,0.392603,664.404907,94184.367188,-0.136290,-0.004432,0.455750,0.263672,0.213596,6.125000,11.135248,0,4.900000,0, 202
337, 101,54145,54139,1,1,0.495208,7.187977,6.664005,-0.187398,0.205223,0.009402,0.289230,12.410886,5.653450,17.978842,-47.753295,-41.159249,64.976915,139.117853,-52.683141,0.487327,-0.182600,0.791553,0.320332,664.300171,94185.429688,-0.174427,-0.004031,0.487915,0.158936,0.187050,6.250000,11.153376,0,4.900000,0, 202
338, 101,56238,56231,1,1,-5.567247,-0.284261,8.961601,0.677073,0.027812,0.731148,-4.516029,4.241947,8.056079,-5.491172,-29.029257,30.574850,81.756401,-152.766593,-18.346984,-0.074326,-0.269257,0.700888,0.656301,664.158569,94188.390625,-0.241329,-0.077180,0.487915,0.017334,0.085251,6.125000,11.166971,0,4.900000,0, 202
339, 101,58334,58325,1,1,-3.572154,-2.336544,8.384077,0.472852,-0.349908,-0.411301,-4.035503,2.319843,5.653450,6.943397,-3.092111,8.641373,105.295952,-159.183077,-3.106377,-0.088379,-0.159736,0.592615,0.784526,664.234131,94188.507812,-0.338444,0.281510,0.523193,0.092896,0.207382,6.250000,11.189630,0,4.900000,0, 202
340, 101,60433,60423,1,1,-3.292219,-2.411866,9.194473,0.103098,0.021970,0.257978,-3.074451,2.800369,9.978183,2.993587,0.421531,1.613429,101.891089,-159.744642,-5.353645,-0.074969,-0.165368,0.613187,0.768788,664.231873,94190.437500,-0.270131,0.040611,0.523193,0.090637,0.147926,6.250000,11.189630,0,4.900000,0, 202
341, 101,62636,62598,1,1,-3.614886,5.487480,6.496979,-0.296784,-0.208947,-0.567429,-3.074451,13.852464,6.133976,15.365364,3.859698,-43.340836,46.347765,175.771694,-40.173909,0.166913,-0.301886,0.867793,0.357687,664.307617,94186.601562,-0.155255,0.085393,0.523193,0.166382,0.218979,6.125000,11.194161,0,4.900000,0, 202
342, 101,64758,64735,1,1,1.774509,7.735217,6.035022,0.530922,-0.068353,0.154772,2.211333,12.410886,5.653450,-0.116182,-4.193632,-2.515433,49.069298,139.561679,-21.147174,0.372611,-0.037485,0.865869,0.331703,664.285095,94182.859375,-0.418523,-0.035540,0.523193,0.143860,0.180112,6.125000,11.216821,0,4.900000,0, 202
343, 101,66890,66881,1,1,-3.614502,6.233056,6.797850,-0.695977,-0.084110,0.080038,-4.035503,10.488783,6.614501,10.408592,-12.905314,-22.677307,43.671376,-173.813793,-29.816699,0.057904,-0.229736,0.899665,0.366703,664.632446,94179.546875,0.797550,0.051764,0.523193,0.491211,0.239060,6.125000,11.325583,0,4.900000,0, 202
344, 101,69002,68975,1,1,2.117459,7.077337,5.797245,-0.425791,0.345493,-0.426582,2.211333,10.969309,6.133976,-10.281046,-18.117761,-26.087641,57.229602,138.862390,-32.986593,0.423028,-0.072003,0.835847,0.342377,664.822388,94182.351562,0.180567,0.231075,0.743958,0.681152,0.591157,6.250000,11.506846,0,4.900000,0, 202
345, 101,71137,71115,1,1,1.770648,7.278069,6.227483,0.673755,-0.763648,-0.113383,1.730806,10.969309,6.614501,-5.930583,8.206424,43.993488,58.129520,137.546513,-26.020248,0.397873,-0.052512,0.845221,0.352904,664.399170,94184.273438,0.511360,0.003749,0.743958,0.257935,0.211013,6.375000,11.710758,0,4.900000,0, 202
346, 101,73263,73225,1,1,-3.096967,7.635888,5.197492,-0.054065,-0.101172,-0.059401,-3.554977,11.930360,5.172924,-0.740373,0.764454,-0.260226,33.488534,169.796344,-28.980168,0.153887,-0.212245,0.931597,0.251790,664.412354,94187.804688,0.022771,0.051974,0.743958,0.271118,0.319778,6.375000,11.851226,0,4.900000,0, 202
347, 101,75404,75369,1,1,-2.217128,7.844620,5.168855,0.157771,-0.214950,-0.152182,-3.074451,13.852464,5.172924,-20.052163,-10.849416,-7.332938,35.183677,161.986679,-26.491563,0.213655,-0.169664,0.927275,0.256374,664.262085,94187.039062,0.013391,-0.196326,0.743958,0.120850,0.115601,6.375000,11.896538,0,4.900000,0, 202
348, 101,77542,77525,1,1,-2.787404,6.103276,6.980817,0.180101,0.035785,-0.120211,-2.113400,10.969309,7.575553,-7.343613,9.122164,7.402439,45.946099,176.623610,-26.523172,0.113097,-0.207240,0.896058,0.375954,664.240479,94188.148438,-1.032717,-0.080189,0.743958,0.099243,0.272635,6.500000,11.928255,0,4.900000,0, 202
349, 101,79754,79726,1,1,-4.051538,5.551834,7.446583,0.056599,-0.426727,0.323432,-4.035503,9.527731,7.095027,-1.156448,-12.550253,-5.576185,50.509881,-171.296541,-26.089142,0.029165,-0.235085,0.871233,0.429928,664.266602,94187.015625,-0.276623,-0.072902,0.743958,0.125366,0.203526,6.375000,11.892006,0,4.900000,0, 202
350, 101,82161,82153,1,1,-3.235383,4.768013,7.845391,0.118894,-0.062634,-0.067873,-3.554977,9.527731,8.056079,-1.173230,1.587860,9.551284,54.210983,-177.427168,-29.465170,0.096514,-0.236213,0.858085,0.445622,664.660217,94183.390625,0.385318,0.333311,0.743958,0.518982,0.431050,6.375000,11.946379,0,4.900000,0, 202
351, 101,84250,84222,1,1,-3.303395,5.242342,7.808148,-0.276550,-0.472619,0.151984,-3.074451,9.527731,8.056079,11.893193,-29.872358,-4.924672,54.328295,-175.605379,-29.231277,0.082108,-0.241274,0.855862,0.450051,664.450378,94185.343750,0.052335,-0.043159,0.743958,0.309143,0.349457,6.250000,11.950911,0,4.900000,0, 202
