index, checksum,uptime mp,uptime nav,missiontime,  errorflag mp,errorflag NAV,  accel x, accel y, accel z, accelworld x, accelworld y, accelworld z, mag x, mag y, mag z, accelhighg x, accelhighg y, accelhighg z, gyro x, gyro y, gyro z, euler x, euler y, euler z, quat w, quat x, quat y, quat z,quatadj w, quatadj x, quatadj y, quatadj z, altitude, presusre, verticalvel,filtered vvel, maxalt, altitudeagl, filtered alt, imutemp, barotemp,abs imu accel,abs adxl accel, pad altitude, baro max alt, mag raw x, mag raw y, mag raw z, cov x, cov y, cov z, sats, status, met, filtered accel ,state,battstate,pyros fired,pyros cont,pyros state, checksum2
1595, 101,20732,20706,-10407,0,0,1.384462,-9.697176,0.047346,0.026081,-0.060660,-0.005601,-208.462433,13.139433,-48.304592,0.961052,-9.129992,-5.285784,1.508298,-0.869734,0.492607,0.585941,146.864298,171.876219,0.015309,0.956166,0.066438,0.284778,0.015309,0.956166,0.066438,0.284778,1979.244019,80205.703125,-1.249020,-0.326483,0.241455,-0.394165,-0.378210,24.625000,28.320168,9.795621,10.593389,1979.638184,0.241455,-2.082870,0.131394,-0.483046,0.000955,0.000077,0.000335,0,1,0,0.004554,0,0.390000,0,14,0,202
1596, 101,20809,20774,-10330,0,0,1.371652,-9.720161,0.074275,-0.029181,0.028369,0.015661,-208.857056,13.636364,-48.012276,0.480526,-9.610518,-4.805259,-1.363079,2.381474,-2.007465,0.464218,146.775260,171.480232,0.017365,0.955692,0.070025,0.285391,0.017365,0.955692,0.070025,0.285391,1979.402710,80204.265625,-0.060546,-0.324700,0.241455,-0.235474,-0.376945,24.625000,28.288305,9.816745,10.755625,1979.638184,0.241455,-2.088571,0.136364,-0.480123,0.000955,0.000079,0.000335,0,1,0,0.041454,0,0.390000,0,14,0,202
1597, 101,20892,20876,-10247,0,0,1.412629,-9.733854,0.078786,0.011343,0.008921,0.035129,-208.389359,13.124818,-47.588425,1.441578,-9.610518,-4.324733,0.803621,-0.211217,0.477307,0.453252,146.802677,171.521240,0.016799,0.955754,0.070095,0.285200,0.017337,0.955783,0.069716,0.285162,1979.424927,80207.484375,0.890611,-0.322393,0.241455,-0.213257,-0.350825,24.625000,28.297409,9.836140,10.636893,1979.638184,0.241455,-2.083894,0.131248,-0.475884,0.000955,0.000080,0.000335,0,1,0,0.008120,0,0.390000,0,14,0,202
1598, 101,20969,20942,-10170,0,0,1.388964,-9.738405,0.045605,-0.036926,-0.027301,0.035957,-208.900909,13.066355,-48.436131,0.961052,-9.610518,-5.285784,1.060149,1.804532,-0.755162,0.617840,146.730195,171.451258,0.016185,0.955585,0.069873,0.285857,0.016185,0.955585,0.069873,0.285857,1979.411255,80205.929688,0.690130,-0.320645,0.241455,-0.226929,-0.339285,24.625000,28.283752,9.837065,11.010231,1979.638184,0.241455,-2.089009,0.130664,-0.484361,0.000956,0.000081,0.000335,0,1,0,0.020110,0,0.390000,0,14,0,202
1599, 101,21047,21046,-10092,0,0,1.357112,-9.744313,0.067219,-0.057784,0.024596,0.037392,-208.667068,13.300204,-48.202278,0.961052,-9.610518,-5.285784,-0.779408,1.991213,-1.857091,0.547883,146.577349,171.409744,0.016969,0.955168,0.070359,0.287082,0.016969,0.955168,0.070359,0.287082,1979.455566,80203.406250,-0.076568,-0.317105,0.241455,-0.182617,-0.332677,24.625000,28.283752,9.838593,11.010231,1979.638184,0.241455,-2.086671,0.133002,-0.482023,0.000956,0.000082,0.000335,0,1,0,0.007846,0,0.390000,0,14,0,202
1600, 101,21128,21111,-10011,0,0,1.401867,-9.715011,0.090118,0.004164,0.027006,0.015009,-208.564758,12.730196,-48.026894,2.402629,-9.610518,-5.766310,-1.117786,2.382157,-1.436952,0.457069,146.503282,171.469959,0.016385,0.955013,0.069894,0.287742,0.017622,0.955006,0.070068,0.287653,1979.321777,80207.640625,-0.338182,-0.315683,0.241455,-0.316406,-0.336253,24.625000,28.292856,9.816048,11.462330,1979.638184,0.241455,-2.081701,0.129202,-0.483046,0.000956,0.000083,0.000335,0,1,0,-0.016379,0,0.390000,0,14,0,202
1601, 101,21205,21176,-9934,0,0,1.370398,-9.700910,0.106961,-0.035932,0.037618,-0.003328,-208.360123,12.964046,-48.918446,0.480526,-9.610518,-3.844207,-0.356956,1.730310,-1.274380,0.669848,146.455484,171.292456,0.016325,0.954808,0.071002,0.288155,0.016325,0.954808,0.071002,0.288155,1979.450928,80202.593750,-0.085696,-0.315321,0.241455,-0.187256,-0.330492,24.625000,28.292856,9.797811,10.361992,1979.638184,0.241455,-2.083601,0.129640,-0.489184,0.000956,0.000084,0.000335,0,1,0,0.001524,0,0.390000,0,14,0,202
1602, 101,21287,21284,-9852,0,0,1.407202,-9.668192,0.096751,0.025613,0.008775,-0.030494,-208.652451,13.168664,-48.085358,0.480526,-10.091043,-5.766310,-0.600281,2.606342,-1.321484,0.530234,146.327049,171.521240,0.016994,0.954605,0.069418,0.289173,0.016994,0.954605,0.069418,0.289173,1979.552246,80202.093750,0.757938,-0.313676,0.241455,-0.085938,-0.294575,24.625000,28.292856,9.770544,11.632299,1979.638184,0.241455,-2.086378,0.129787,-0.483046,0.000957,0.000086,0.000335,0,1,0,-0.012894,0,0.390000,0,14,0,202
1603, 101,21375,21355,-9764,0,0,1.406577,-9.713288,0.071155,0.009033,-0.030799,0.013808,-208.886292,13.197896,-48.099972,0.961052,-9.610518,-4.805259,1.273896,0.106393,-0.069371,0.643905,146.302201,171.546676,0.015999,0.954574,0.068913,0.289452,0.015999,0.954574,0.068913,0.289452,1979.535400,80203.257812,0.875269,-0.314097,0.241455,-0.102783,-0.276343,24.625000,28.288305,9.814861,10.787779,1979.638184,0.241455,-2.088863,0.131979,-0.481000,0.000957,0.000087,0.000335,0,1,0,0.036444,0,0.390000,0,14,0,202
1604, 101,21452,21430,-9687,0,0,1.419291,-9.702063,0.080014,0.034791,-0.022959,0.004563,-208.696289,12.774043,-48.187664,0.961052,-9.610518,-5.285784,-1.787507,0.272767,-0.571935,0.560677,146.212097,171.609131,0.017133,0.954244,0.070412,0.290115,0.016591,0.954373,0.068583,0.290161,1979.472168,80203.914062,0.328557,-0.311912,0.241455,-0.166016,-0.273006,24.625000,28.283752,9.805652,11.010231,1979.638184,0.241455,-2.086963,0.127740,-0.481877,0.000957,0.000088,0.000335,0,1,0,0.041137,0,0.390000,0,14,0,202
1605, 101,21531,21508,-9608,0,0,1.404547,-9.704773,0.087750,0.004966,0.020759,0.005254,-208.973984,13.168664,-48.772285,0.961052,-9.610518,-6.246836,-0.015608,-0.296750,0.654358,0.476072,146.232055,171.456982,0.017668,0.954319,0.070068,0.289921,0.017668,0.954319,0.070068,0.289921,1979.354492,80207.171875,-0.315629,-0.310025,0.241455,-0.283691,-0.285391,24.625000,28.306513,9.806277,11.502549,1979.638184,0.241455,-2.089740,0.131687,-0.487723,0.000958,0.000089,0.000335,0,1,0,0.028307,0,0.390000,0,14,0,202
1606, 101,21607,21579,-9532,0,0,1.383209,-9.693553,0.062904,-0.008205,-0.000003,-0.009058,-208.447815,13.504823,-48.669979,1.922103,-9.129992,-6.727362,-1.587391,2.323218,-0.640104,0.475225,146.179435,171.574693,0.017410,0.954257,0.069079,0.290377,0.017410,0.954257,0.069079,0.290377,1979.383301,80206.320312,-0.496392,-0.308665,0.241455,-0.254883,-0.290844,24.625000,28.301960,9.791945,11.502549,1979.638184,0.241455,-2.084478,0.135048,-0.486700,0.000958,0.000090,0.000335,0,1,0,-0.012814,0,0.390000,0,14,0,202
1607, 101,21682,21653,-9457,0,0,1.398005,-9.732533,0.061954,-0.006396,0.039333,-0.011935,-208.667068,13.329436,-47.924583,0.480526,-10.571568,-5.285784,-0.875331,-0.270364,-0.197586,0.376488,146.119234,171.555528,0.016679,0.954130,0.068669,0.290935,0.018318,0.954078,0.069475,0.290815,1979.258911,80208.031250,-0.693971,-0.309170,0.241455,-0.379272,-0.303965,24.625000,28.311064,9.832622,11.829137,1979.638184,0.241455,-2.086671,0.133294,-0.479246,0.000958,0.000091,0.000335,0,1,0,0.038431,0,0.390000,0,14,0,202
1608, 101,21761,21757,-9378,0,0,1.426364,-9.705503,0.062392,0.045832,-0.057419,0.008679,-208.930130,12.481730,-47.997662,1.441578,-9.129992,-4.805259,0.850936,1.329224,2.431267,0.594503,146.081149,171.716939,0.018017,0.953920,0.070342,0.291141,0.016117,0.954110,0.067569,0.291287,1979.252686,80205.859375,-0.950619,-0.307754,0.241455,-0.385498,-0.348024,24.625000,28.315617,9.809955,10.417553,1979.638184,0.241455,-2.089301,0.124817,-0.479977,0.000958,0.000093,0.000335,0,1,0,0.019345,0,0.390000,0,14,0,202
1609, 101,21840,21821,-9299,0,0,1.377128,-9.696735,0.075806,-0.038344,0.033479,-0.006802,-209.061676,13.037125,-48.304592,2.402629,-9.129992,-5.285784,0.679874,-0.550312,-1.247539,0.489204,146.097596,171.348628,0.017919,0.953914,0.070907,0.291032,0.017919,0.953914,0.070907,0.291032,1979.179077,80208.421875,-1.075952,-0.307285,0.241455,-0.459106,-0.377269,24.625000,28.329271,9.794331,10.819838,1979.638184,0.241455,-2.090617,0.130371,-0.483046,0.000958,0.000093,0.000335,0,1,0,0.014205,0,0.390000,0,14,0,202
1610, 101,21916,21888,-9223,0,0,1.392708,-9.704997,0.082947,-0.031802,0.031541,0.003666,-208.827835,12.832504,-47.486115,0.961052,-9.129992,-5.766310,2.417950,0.666558,-0.997559,0.524277,146.124917,171.284301,0.016816,0.954076,0.069546,0.290893,0.017773,0.953948,0.071360,0.290816,1979.208252,80207.414062,-0.680851,-0.307135,0.241455,-0.429932,-0.398629,24.625000,28.329271,9.804769,10.841158,1979.638184,0.241455,-2.088278,0.128325,-0.474861,0.000958,0.000094,0.000335,0,1,0,0.004314,0,0.390000,0,14,0,202
1611, 101,21997,21990,-9142,0,0,1.373302,-9.695584,0.076423,-0.020091,0.022601,-0.008389,-208.506271,13.519439,-48.450745,1.922103,-9.610518,-6.246836,-1.971032,-0.783883,-0.470600,0.484475,146.208805,171.497444,0.016787,0.954367,0.068523,0.290182,0.017510,0.954286,0.069705,0.290126,1979.250244,80205.085938,-0.260805,-0.306599,0.241455,-0.387939,-0.426204,24.625000,28.338375,9.792659,11.622371,1979.638184,0.241455,-2.085063,0.135194,-0.484507,0.000958,0.000096,0.000335,0,1,0,0.040379,0,0.390000,0,14,0,202
1612, 101,22077,22056,-9062,0,0,1.376374,-9.690413,0.037951,-0.021887,-0.022034,-0.013305,-208.447815,13.110201,-48.991524,0.961052,-7.688414,-5.285784,0.225940,0.348164,-0.237184,0.482512,146.135217,171.612697,0.017280,0.954169,0.068734,0.290755,0.017280,0.954169,0.068734,0.290755,1979.162109,80207.609375,-0.270065,-0.305679,0.241455,-0.476074,-0.448017,24.625000,28.338375,9.787745,9.379490,1979.638184,0.241455,-2.084478,0.131102,-0.489915,0.000958,0.000097,0.000335,0,1,0,0.061841,0,0.390000,0,14,0,202
1613, 101,22153,22122,-8986,0,0,1.389775,-9.715081,0.068903,0.011558,-0.002499,0.029429,-208.798599,13.300204,-48.772285,0.961052,-9.610518,-5.766310,-1.053160,0.019142,-0.813411,0.452262,146.103962,171.656096,0.017441,0.954111,0.068442,0.291004,0.017441,0.954111,0.068442,0.291004,1979.304932,80203.921875,0.126389,-0.303991,0.241455,-0.333252,-0.460280,24.625000,28.342928,9.814226,11.248822,1979.638184,0.241455,-2.087986,0.133002,-0.487723,0.000958,0.000098,0.000335,0,1,0,0.021656,0,0.390000,0,14,0,202
1614, 101,22233,22226,-8906,0,0,1.384896,-9.728570,0.109879,0.023772,0.049192,0.026110,-208.579376,13.241742,-48.816135,1.922103,-8.649466,-5.766310,0.501669,3.006209,-0.172331,0.392669,145.961812,171.632695,0.015618,0.953690,0.069138,0.292321,0.018085,0.953727,0.068758,0.292148,1979.279297,80206.945312,0.548461,-0.301235,0.241455,-0.358887,-0.449009,24.625000,28.342928,9.827263,10.571568,1979.638184,0.241455,-2.085794,0.132417,-0.488161,0.000958,0.000099,0.000335,0,1,0,-0.003022,0,0.390000,0,14,0,202
1615, 101,22314,22298,-8825,0,0,1.420558,-9.772120,0.066706,0.000785,-0.068283,0.073822,-209.032440,13.110201,-48.947678,1.441578,-9.129992,-5.766310,0.557861,-0.742900,0.939842,0.859938,146.004227,171.473415,0.014575,0.953806,0.068903,0.292053,0.014575,0.953806,0.068903,0.292053,1979.200928,80205.593750,0.218284,-0.300613,0.241455,-0.437256,-0.467087,24.625000,28.338375,9.875058,10.894275,1979.638184,0.241455,-2.090324,0.131102,-0.489477,0.000958,0.000100,0.000335,0,1,0,0.005025,0,0.390000,0,14,0,202
1616, 101,22399,22374,-8740,0,0,1.406069,-9.724553,0.080418,-0.019967,0.011809,0.024981,-209.266312,13.241742,-49.049984,0.480526,-8.649466,-4.805259,-0.561628,-0.253146,-1.316824,0.575034,146.028557,171.316280,0.017331,0.953732,0.070942,0.291655,0.017331,0.953732,0.070942,0.291655,1979.126099,80208.460938,-0.502869,-0.298306,0.241455,-0.512085,-0.488031,24.625000,28.342928,9.826008,9.906295,1979.638184,0.241455,-2.092663,0.132417,-0.490500,0.000959,0.000101,0.000335,0,1,0,0.039987,0,0.390000,0,14,0,202
1617, 101,22474,22448,-8665,0,0,1.428900,-9.714540,0.093015,0.008458,0.012295,0.018494,-208.798599,12.481730,-49.093834,0.961052,-9.610518,-4.805259,-0.681181,-1.801890,0.337799,0.548764,146.136310,171.327646,0.016801,0.953990,0.071145,0.290790,0.017451,0.954008,0.070939,0.290743,1979.180054,80205.242188,-0.387650,-0.296202,0.241455,-0.458130,-0.504781,24.625000,28.333824,9.819506,10.787779,1979.638184,0.241455,-2.087986,0.124817,-0.490938,0.000959,0.000102,0.000335,0,1,0,0.041679,0,0.390000,0,14,0,202
1618, 101,22551,22521,-8588,0,0,1.444228,-9.750443,0.104808,0.015975,0.009289,0.056362,-209.061676,13.095586,-48.611515,0.480526,-9.129992,-5.766310,-0.647506,0.953831,0.196178,0.617537,146.108825,171.277266,0.017024,0.953918,0.071178,0.291007,0.017024,0.953918,0.071178,0.291007,1979.265991,80205.390625,0.086488,-0.293396,0.241455,-0.372192,-0.499254,24.625000,28.329271,9.857380,10.809162,1979.638184,0.241455,-2.090617,0.130956,-0.486115,0.000959,0.000103,0.000335,0,1,0,0.064718,0,0.390000,0,14,0,202
1619, 101,22625,22598,-8514,0,0,1.417753,-9.777508,0.066149,-0.013389,0.013007,0.078965,-208.681671,12.905582,-48.699211,1.441578,-10.091043,-5.766310,-0.514588,2.702380,-1.542694,0.440210,145.926623,171.396330,0.018314,0.953501,0.070596,0.292432,0.018314,0.953501,0.070596,0.292432,1979.215576,80209.164062,0.615649,-0.288528,0.241455,-0.422607,-0.492328,24.625000,28.352030,9.879983,11.711432,1979.638184,0.241455,-2.086817,0.129056,-0.486992,0.000959,0.000104,0.000335,0,1,0,0.043680,0,0.390000,0,14,0,202
1620, 101,22704,22702,-8435,0,0,1.395307,-9.728072,0.112100,0.034485,0.014167,0.027197,-208.696289,12.584040,-48.699211,0.480526,-7.688414,-4.324733,-0.567109,0.846816,-1.031527,0.570366,145.936923,171.638501,0.016607,0.953694,0.068251,0.292462,0.016607,0.953694,0.068251,0.292462,1979.187622,80207.492188,0.093794,-0.284266,0.241455,-0.450562,-0.495383,24.625000,28.356583,9.828268,8.834360,1979.638184,0.241455,-2.086963,0.125840,-0.486992,0.000959,0.000106,0.000335,0,1,0,0.000998,0,0.390000,0,14,0,202
1621, 101,22785,22767,-8354,0,0,1.427931,-9.712443,0.111152,0.049010,0.009754,0.016352,-208.623215,12.788658,-48.494591,1.922103,-9.610518,-5.766310,-0.160418,-0.260467,-1.986450,0.532808,145.909260,171.542578,0.016097,0.953410,0.071150,0.292724,0.017181,0.953560,0.069139,0.292656,1979.174438,80207.882812,-0.255123,-0.283177,0.241455,-0.463745,-0.499115,24.625000,28.374790,9.817479,11.371318,1979.638184,0.241455,-2.086232,0.127887,-0.484946,0.000959,0.000106,0.000335,0,1,0,0.044574,0,0.390000,0,14,0,202
1622, 101,22861,22833,-8278,0,0,1.415381,-9.723205,0.062395,-0.033721,-0.024977,0.024790,-208.652451,12.832504,-49.093834,2.883155,-9.610518,-7.207888,-0.899719,0.552503,-0.896576,0.717655,145.950091,171.234577,0.016403,0.953503,0.071240,0.292384,0.016403,0.953503,0.071240,0.292384,1979.238770,80206.218750,-0.155354,-0.280764,0.241455,-0.399414,-0.495085,24.625000,28.379341,9.825879,12.354281,1979.638184,0.241455,-2.087548,0.128325,-0.490938,0.000959,0.000107,0.000335,0,1,0,0.032894,0,0.390000,0,14,0,202
1623, 101,22940,22935,-8199,0,0,1.422435,-9.695865,0.107564,0.039317,0.038919,-0.000917,-208.637833,13.358667,-47.646885,0.961052,-9.129992,-5.285784,-0.226300,1.713358,0.825184,0.376181,145.935543,171.506200,0.018561,0.953581,0.069847,0.292336,0.018561,0.953581,0.069847,0.292336,1979.134155,80208.273438,-0.230894,-0.277957,0.241455,-0.504028,-0.506146,24.625000,28.392998,9.800239,10.593389,1979.638184,0.241455,-2.086378,0.133587,-0.476469,0.000959,0.000109,0.000335,0,1,0,0.006091,0,0.390000,0,14,0,202
1624, 101,23020,23002,-8119,0,0,1.428764,-9.793915,0.106420,0.036960,0.045687,0.096980,-208.564758,13.402514,-47.939198,1.441578,-9.610518,-6.246836,-0.092147,-0.285020,0.928785,0.334515,145.932633,171.541786,0.016347,0.953507,0.070652,0.292516,0.018819,0.953588,0.069657,0.292341,1979.174561,80206.609375,-0.411967,-0.277544,0.241455,-0.463623,-0.512680,24.625000,28.397549,9.898154,11.552626,1979.638184,0.241455,-2.085648,0.134025,-0.479392,0.000959,0.000109,0.000335,0,1,0,0.020043,0,0.390000,0,14,0,202
1625, 101,23095,23067,-8044,0,0,1.414752,-9.690011,0.077858,-0.013734,-0.013185,-0.007965,-208.593994,13.344051,-48.202278,0.480526,-10.091043,-5.285784,1.005165,1.804726,-0.523117,0.682681,145.780962,171.286459,0.016672,0.953099,0.070856,0.293776,0.016672,0.953099,0.070856,0.293776,1979.270508,80205.250000,-0.014257,-0.273739,0.241455,-0.367676,-0.502600,24.625000,28.392998,9.793054,11.401735,1979.638184,0.241455,-2.085940,0.133441,-0.482023,0.000959,0.000110,0.000335,0,1,0,0.016741,0,0.390000,0,14,0,202
1626, 101,23175,23170,-7964,0,0,1.446331,-9.825194,0.045423,-0.015422,-0.063144,0.129970,-208.973984,12.774043,-48.114586,1.922103,-9.610518,-5.766310,1.030173,1.570966,1.268679,0.741798,145.769870,171.339926,0.016050,0.953112,0.070257,0.293913,0.016050,0.953112,0.070257,0.293913,1979.321533,80203.117188,0.669648,-0.270146,0.241455,-0.316650,-0.481952,24.625000,28.411203,9.931182,11.371318,1979.638184,0.241455,-2.089740,0.127740,-0.481146,0.000959,0.000112,0.000335,0,1,0,0.066011,0,0.390000,0,14,0,202
1627, 101,23255,23237,-7884,0,0,1.318689,-9.667384,0.113296,-0.053569,0.044187,-0.043681,-209.076279,13.080971,-48.231514,0.961052,-9.610518,-4.805259,-0.445631,1.035213,1.799291,0.761206,145.659603,171.396904,0.014600,0.953066,0.066750,0.294951,0.015813,0.952867,0.069706,0.294849,1979.188599,80209.515625,0.273655,-0.264545,0.241455,-0.449585,-0.478485,24.625000,28.415756,9.757565,10.787779,1979.638184,0.241455,-2.090763,0.130810,-0.482315,0.000959,0.000112,0.000335,0,1,0,-0.057363,0,0.390000,0,14,0,202
1628, 101,23333,23308,-7806,0,0,1.385035,-9.765407,0.084410,0.013962,-0.036377,0.062422,-208.842438,12.876352,-47.997662,0.961052,-9.610518,-5.766310,-1.414172,-0.433214,-0.352484,0.750136,145.580537,171.689864,0.015201,0.952837,0.067279,0.295539,0.015201,0.952837,0.067279,0.295539,1979.201050,80205.984375,-0.165933,-0.267452,0.241455,-0.437134,-0.487699,24.625000,28.415756,9.863500,11.248822,1979.638184,0.241455,-2.088424,0.128764,-0.479977,0.000959,0.000113,0.000335,0,1,0,-0.003013,0,0.390000,0,14,0,202
1629, 101,23419,23384,-7720,0,0,1.361601,-9.717640,0.082104,-0.022386,0.009267,-0.030789,-208.360123,13.183279,-47.749199,2.402629,-11.532620,-6.246836,-0.823998,-1.685014,0.537546,0.623829,145.494258,171.400865,0.017051,0.952424,0.069987,0.296140,0.017051,0.952424,0.069987,0.296140,1979.260254,80206.648438,-0.203159,-0.265212,0.241455,-0.377930,-0.489254,24.625000,28.411203,9.812911,13.334051,1979.638184,0.241455,-2.083601,0.131833,-0.477492,0.000960,0.000114,0.000335,0,1,0,0.010540,0,0.390000,0,14,0,202
1630, 101,23488,23460,-7651,0,0,1.393969,-9.690023,0.084967,-0.003503,-0.002746,-0.010857,-208.535507,12.394037,-48.933064,1.441578,-8.649466,-5.285784,1.290934,1.323165,1.169595,0.633456,145.512481,171.447324,0.017007,0.952510,0.069464,0.295990,0.016839,0.952501,0.069580,0.296001,1979.260254,80206.140625,0.036107,-0.264995,0.241455,-0.377930,-0.483049,24.625000,28.411203,9.790144,10.238697,1979.638184,0.241455,-2.085355,0.123940,-0.489331,0.000960,0.000115,0.000335,0,1,0,0.010479,0,0.390000,0,14,0,202
1631, 101,23565,23534,-7574,0,0,1.382357,-9.666985,0.108509,0.009972,0.018053,-0.035098,-208.623215,13.139433,-48.085358,1.441578,-10.091043,-5.285784,0.529771,2.057132,0.395800,0.626155,145.526674,171.495846,0.016766,0.952566,0.069199,0.295886,0.016766,0.952566,0.069199,0.295886,1979.240479,80207.500000,0.284223,-0.264079,0.241455,-0.397705,-0.477780,24.625000,28.415756,9.765924,11.482457,1979.638184,0.241455,-2.086232,0.131394,-0.480854,0.000960,0.000116,0.000335,0,1,0,0.043631,0,0.390000,0,14,0,202
1632, 101,23640,23611,-7499,0,0,1.426913,-9.747322,0.077354,-0.066841,-0.009773,-0.003876,-209.163971,12.803274,-48.056122,1.441578,-8.168940,-5.766310,0.962477,0.915701,-0.000080,0.729605,145.417678,171.253087,0.016604,0.952151,0.070922,0.296820,0.016604,0.952151,0.070922,0.296820,1979.098267,80210.414062,-0.362373,-0.263026,0.241455,-0.539917,-0.481707,24.625000,28.433962,9.851515,10.102478,1979.638184,0.241455,-2.091640,0.128033,-0.480561,0.000961,0.000118,0.000335,0,1,0,0.000991,0,0.390000,0,14,0,202
1633, 101,23719,23714,-7420,0,0,1.390551,-9.779439,0.109935,0.004056,0.024174,0.077388,-208.199356,13.607132,-47.793041,0.961052,-10.571568,-5.285784,0.500210,0.848061,1.420202,0.618591,145.358201,171.495286,0.016936,0.952130,0.069183,0.297281,0.016936,0.952130,0.069183,0.297281,1979.167969,80208.898438,-0.359777,-0.261336,0.241455,-0.470215,-0.496185,24.625000,28.433962,9.878418,11.858381,1979.638184,0.241455,-2.081994,0.136071,-0.477930,0.000960,0.000119,0.000335,0,1,0,0.043734,0,0.390000,0,14,0,202
1634, 101,23800,23780,-7339,0,0,1.418654,-9.684083,0.111460,0.048693,-0.003072,-0.013044,-208.637833,13.665594,-48.085358,0.480526,-9.129992,-5.766310,0.007420,-2.183021,1.770202,0.613930,145.432090,171.562413,0.016225,0.952202,0.070829,0.296702,0.016755,0.952360,0.068655,0.296675,1979.218750,80205.718750,-0.208501,-0.257795,0.241455,-0.419434,-0.497028,24.625000,28.438515,9.788077,10.809162,1979.638184,0.241455,-2.086378,0.136656,-0.480854,0.000960,0.000120,0.000335,0,1,0,0.016986,0,0.390000,0,14,0,202
1635, 101,23875,23847,-7264,0,0,1.411026,-9.724574,0.093295,-0.001574,-0.025649,0.025819,-208.769363,12.715580,-47.719963,0.961052,-10.091043,-6.246836,0.945765,0.336747,1.552183,0.816040,145.484546,171.358832,0.015568,0.952401,0.069837,0.296332,0.015568,0.952401,0.069837,0.296332,1979.185303,80206.921875,-0.105535,-0.257202,0.241455,-0.452881,-0.501581,24.625000,28.447618,9.826853,11.906961,1979.638184,0.241455,-2.087694,0.127156,-0.477200,0.000960,0.000120,0.000335,0,1,0,0.025853,0,0.390000,0,14,0,202
1636, 101,23955,23949,-7184,0,0,1.419894,-9.778583,0.085260,0.058188,-0.012771,0.080321,-208.988602,12.584040,-48.406898,1.441578,-9.129992,-6.246836,0.635149,-2.232651,2.123345,0.442157,145.581521,171.808409,0.017455,0.952865,0.067087,0.295368,0.017455,0.952865,0.067087,0.295368,1979.315430,80205.296875,0.548996,-0.253830,0.241455,-0.322754,-0.476543,24.625000,28.465824,9.881500,11.156068,1979.638184,0.241455,-2.089886,0.125840,-0.484069,0.000960,0.000122,0.000335,0,1,0,0.026853,0,0.390000,0,14,0,202
1637, 101,24034,24015,-7105,0,0,1.419686,-9.764856,0.049506,0.042661,-0.040064,0.066469,-208.447815,13.007893,-48.246128,2.402629,-9.610518,-6.246836,-1.127199,-3.434436,-0.829194,0.411745,145.753819,171.831850,0.018714,0.953151,0.069399,0.293831,0.017544,0.953317,0.067008,0.293921,1979.323486,80203.273438,0.724181,-0.250297,0.241455,-0.314697,-0.466851,24.625000,28.465824,9.867642,11.711432,1979.638184,0.241455,-2.084478,0.130079,-0.482461,0.000960,0.000122,0.000335,0,1,0,0.037333,0,0.390000,0,14,0,202
1638, 101,24110,24081,-7029,0,0,1.338817,-9.665474,0.075954,-0.035867,0.063260,-0.043219,-208.360123,13.680211,-47.427650,0.961052,-9.610518,-5.766310,-0.381730,-1.351612,-0.030192,0.310105,145.868293,171.557085,0.019023,0.953429,0.069578,0.292864,0.019023,0.953429,0.069578,0.292864,1979.443604,80202.460938,0.908235,-0.246026,0.241455,-0.194580,-0.436249,24.625000,28.474928,9.758052,11.248822,1979.638184,0.241455,-2.083601,0.136802,-0.474277,0.000960,0.000123,0.000335,0,1,0,-0.087156,0,0.390000,0,14,0,202
1639, 101,24190,24185,-6949,0,0,1.370992,-9.713453,0.063292,-0.045906,-0.000129,0.008826,-208.900909,13.022508,-48.479977,0.961052,-9.129992,-5.766310,1.136115,-0.012567,-0.092420,0.627772,145.978601,171.393079,0.016728,0.953660,0.070157,0.292114,0.016728,0.953660,0.070157,0.292114,1979.224854,80207.195312,0.164551,-0.247752,0.241455,-0.413330,-0.440619,24.625000,28.484032,9.809934,10.841158,1979.638184,0.241455,-2.089009,0.130225,-0.484800,0.000960,0.000125,0.000335,0,1,0,0.087240,0,0.390000,0,14,0,202
1640, 101,24276,24258,-6863,0,0,1.383005,-9.693328,0.070256,-0.025569,-0.008902,-0.009294,-208.520889,13.124818,-47.939198,0.480526,-8.649466,-5.285784,0.416713,-0.891539,0.933361,0.648164,146.075903,171.423255,0.017152,0.954003,0.068875,0.291273,0.016420,0.953928,0.069877,0.291321,1979.299072,80205.875000,-0.385358,-0.244347,0.241455,-0.339111,-0.434222,24.625000,28.493135,9.791744,10.148088,1979.638184,0.241455,-2.085209,0.131248,-0.479392,0.000960,0.000125,0.000335,0,1,0,-0.028185,0,0.390000,0,14,0,202
1641, 101,24354,24329,-6785,0,0,1.396857,-9.707909,0.085866,0.019991,0.003410,0.007245,-208.988602,12.759428,-47.573807,0.480526,-10.571568,-4.805259,0.020414,-1.450886,0.448027,0.505642,146.171868,171.616426,0.017056,0.954267,0.068652,0.290465,0.017056,0.954267,0.068652,0.290465,1979.494019,80201.453125,0.411854,-0.243884,0.241455,-0.144165,-0.402869,24.625000,28.474928,9.808265,11.622370,1979.638184,0.241455,-2.089886,0.127594,-0.475738,0.000960,0.000126,0.000335,0,1,0,0.002211,0,0.390000,0,14,0,202
1642, 101,24437,24401,-6702,0,0,1.410551,-9.707217,0.105131,0.024210,0.046174,0.007624,-208.535507,13.227126,-46.799183,1.441578,-8.649466,-5.766310,-2.247516,0.466017,-0.746374,0.260611,146.329659,171.616836,0.018998,0.954627,0.069302,0.289003,0.018998,0.954627,0.069302,0.289003,1979.151367,80210.062500,0.009682,-0.242967,0.241455,-0.486816,-0.399942,24.625000,28.488583,9.809729,10.494843,1979.638184,0.241455,-2.085355,0.132271,-0.467992,0.000961,0.000127,0.000335,0,1,0,-0.008905,0,0.390000,0,14,0,202
1643, 101,24508,24483,-6631,0,0,1.392564,-9.719076,0.082825,0.020031,0.057868,0.017492,-207.819336,13.022508,-47.763813,1.922103,-9.610518,-6.246836,0.163173,-0.236183,0.784419,0.165284,146.306941,171.664306,0.016889,0.954568,0.069252,0.289343,0.019686,0.954583,0.069143,0.289143,1979.217651,80205.023438,-0.310917,-0.243340,0.241455,-0.420532,-0.423685,24.625000,28.488583,9.818683,11.622371,1979.638184,0.241455,-2.078193,0.130225,-0.477638,0.000961,0.000128,0.000335,0,1,0,0.008342,0,0.390000,0,14,0,202
1644, 101,24587,24554,-6552,0,0,1.412346,-9.722915,0.065800,-0.013015,0.011479,-0.007401,-208.038589,13.270972,-47.223034,1.441578,-8.168940,-5.285784,-1.357184,2.597511,-2.712937,0.607369,146.229473,171.504875,0.016455,0.954361,0.069337,0.290030,0.016455,0.954361,0.069337,0.290030,1979.333618,80204.171875,-0.451920,-0.241890,0.241455,-0.304565,-0.420707,24.625000,28.484032,9.825178,9.836119,1979.638184,0.241455,-2.080386,0.132710,-0.472230,0.000961,0.000129,0.000335,0,1,0,-0.006284,0,0.390000,0,14,0,202
1645, 101,24667,24662,-6472,0,0,1.400704,-9.672157,0.081543,0.001328,0.008876,-0.027609,-208.477051,12.978661,-47.719963,0.000000,-10.091043,-4.805259,1.005818,1.149820,1.218771,0.519431,145.987084,171.446586,0.017488,0.953698,0.069989,0.291985,0.017488,0.953698,0.069989,0.291985,1979.399414,80204.671875,0.403326,-0.239872,0.241455,-0.238770,-0.396541,24.625000,28.484032,9.773395,11.176746,1979.638184,0.241455,-2.084770,0.129787,-0.477200,0.000962,0.000131,0.000335,0,1,0,0.034535,0,0.390000,0,14,0,202
1646, 101,24746,24728,-6393,0,0,1.389601,-9.737478,0.057317,-0.040002,-0.003655,0.035216,-208.564758,13.358667,-48.246128,0.961052,-9.129992,-5.766310,2.245619,-3.521383,-1.230195,0.579936,146.117731,171.373476,0.017779,0.954118,0.068777,0.290881,0.017087,0.953994,0.070474,0.290924,1979.201172,80207.585938,-0.160156,-0.239699,0.241455,-0.437012,-0.411654,24.625000,28.502239,9.836298,10.841158,1979.638184,0.241455,-2.085648,0.133587,-0.482461,0.000961,0.000131,0.000335,0,1,0,-0.000966,0,0.390000,0,14,0,202
1647, 101,24822,24794,-6317,0,0,1.409719,-9.720832,0.072132,0.013776,-0.000812,0.021774,-208.550140,13.753289,-47.500729,0.480526,-9.610518,-6.246836,-0.057668,-0.246854,-1.520673,0.457367,146.172824,171.563246,0.017592,0.954231,0.069218,0.290420,0.017592,0.954231,0.069218,0.290420,1979.239868,80205.062500,-0.640380,-0.238873,0.241455,-0.398315,-0.425642,24.625000,28.502239,9.822783,11.472398,1979.638184,0.241455,-2.085501,0.137533,-0.475007,0.000961,0.000132,0.000335,0,1,0,0.004890,0,0.390000,0,14,0,202
1648, 101,24900,24896,-6239,0,0,1.399083,-9.772508,0.051403,-0.001818,-0.020029,0.071263,-208.944748,13.110201,-48.158436,0.480526,-11.052094,-5.766310,-2.618092,0.225251,0.333904,0.482915,146.066068,171.639157,0.017253,0.954010,0.068497,0.291335,0.017253,0.954010,0.068497,0.291335,1979.330078,80204.398438,0.107400,-0.235848,0.241455,-0.308105,-0.417857,24.625000,28.506790,9.872284,12.475177,1979.638184,0.241455,-2.089447,0.131102,-0.481584,0.000961,0.000133,0.000335,0,1,0,0.004375,0,0.390000,0,14,0,202
1649, 101,24981,24962,-6158,0,0,1.438226,-9.719157,0.065163,0.053343,-0.022070,0.024041,-208.403961,13.870214,-48.450745,0.961052,-10.091043,-5.766310,-0.114287,-0.025871,1.012747,0.377193,145.976647,171.701325,0.018280,0.953615,0.070855,0.292000,0.018030,0.953803,0.068229,0.292026,1979.442627,80203.937500,0.932480,-0.232475,0.241455,-0.195557,-0.389257,24.625000,28.520445,9.825211,11.662037,1979.638184,0.241455,-2.084040,0.138702,-0.484507,0.000961,0.000134,0.000335,0,1,0,-0.014841,0,0.390000,0,14,0,202
1650, 101,25057,25028,-6082,0,0,1.427671,-9.701786,0.027988,-0.021088,-0.039557,0.005206,-208.360123,13.402514,-48.377666,1.441578,-9.129992,-5.766310,0.228979,-1.167891,1.892472,0.511223,146.047121,171.370047,0.017713,0.953802,0.070661,0.291469,0.017713,0.953802,0.070661,0.291469,1979.379639,80205.140625,0.850525,-0.231387,0.241455,-0.258545,-0.376181,24.625000,28.529549,9.806308,10.894275,1979.638184,0.241455,-2.083601,0.134025,-0.483777,0.000961,0.000135,0.000335,0,1,0,-0.018318,0,0.390000,0,14,0,202
1651, 101,25136,25130,-6003,0,0,1.400482,-9.721352,0.072173,0.013135,-0.004647,0.020967,-208.433197,13.460976,-47.807659,0.961052,-8.168940,-5.285784,2.028656,1.479084,0.787692,0.483437,145.959777,171.610279,0.017388,0.953722,0.068713,0.292216,0.017388,0.953722,0.068713,0.292216,1979.604858,80202.968750,1.124146,-0.229749,0.241455,-0.033325,-0.315210,24.625000,28.534100,9.821978,9.777255,1979.638184,0.241455,-2.081847,0.134902,-0.480561,0.000961,0.000136,0.000335,0,1,0,0.063744,0,0.390000,0,14,0,202
1652, 101,25217,25196,-5922,0,0,1.374798,-9.687804,0.078094,0.007951,-0.000188,-0.015825,-208.491653,13.329436,-47.354576,1.441578,-11.052094,-5.285784,1.146476,-1.153787,1.638079,0.521498,145.957714,171.670330,0.016821,0.953734,0.068467,0.292270,0.016919,0.953759,0.068115,0.292265,1979.581299,80200.953125,1.260726,-0.225893,0.241455,-0.056885,-0.285891,24.625000,28.534100,9.785179,12.335577,1979.638184,0.241455,-2.084917,0.133294,-0.473546,0.000961,0.000137,0.000335,0,1,0,0.027140,0,0.390000,0,14,0,202
1653, 101,25299,25281,-5840,0,0,1.512980,-0.541668,-8.793261,-2.914891,-6.221220,-7.004647,-208.111664,13.694826,-48.421513,1.541347,0.378157,-9.664531,0.161296,-0.070098,0.014629,0.691215,146.056615,171.558123,0.015731,0.953967,0.068640,0.291527,0.015731,0.953967,0.068640,0.291527,1979.455078,80206.343750,-0.151829,-0.223228,0.241455,-0.183105,-0.274065,24.625000,28.538652,8.938900,9.793973,1979.638184,0.241455,-2.081117,0.136948,-0.484215,0.000960,0.000138,0.000335,0,1,0,0.053624,0,0.390000,0,14,0,202
1654, 101,25385,25385,-5754,0,0,1.506269,0.322790,-9.657474,-1.013324,-2.140795,-0.312586,-208.389359,13.066355,-47.719963,1.503052,0.325502,-9.664531,-0.017367,0.000470,0.003150,98.342669,13.924142,16.675395,0.628820,0.754642,-0.030502,0.184855,0.628820,0.754642,-0.030502,0.184855,1979.502075,80206.343750,-0.058469,-0.450893,0.241455,-0.136108,-0.250178,24.625000,28.538652,9.779562,9.786126,1979.638184,0.241455,-2.083894,0.130664,-0.477200,0.000957,0.000139,0.000335,0,1,0,-0.327550,0,0.390000,0,14,0,202
1655, 101,25473,25463,-5666,0,0,1.523196,0.342247,-9.661123,-0.119535,-0.180432,-0.016946,-208.199356,13.300204,-48.129200,1.507839,0.325502,-9.659744,0.009257,-0.002986,-0.000616,86.541570,8.702655,16.902410,0.710497,0.684169,-0.045804,0.158143,0.710497,0.684169,-0.045804,0.158143,1979.502075,80206.343750,0.072417,-0.467295,0.241455,-0.136108,-0.232786,24.625000,28.538652,9.786448,9.782136,1979.638184,0.241455,-2.081994,0.133002,-0.481292,0.000956,0.000140,0.000335,0,1,0,-0.017181,0,0.390000,0,14,0,202
1656, 101,25548,25544,-5591,0,0,1.503306,0.339610,-9.659756,-0.014395,-0.017617,-0.019097,-208.593994,12.788658,-47.544579,1.503052,0.339862,-9.659744,0.003977,-0.000588,-0.000593,85.642130,7.983903,16.852679,0.716868,0.678225,-0.048851,0.154030,0.716868,0.678225,-0.048851,0.154030,1979.492920,80206.343750,-0.005747,-0.467483,0.241455,-0.145264,-0.224353,24.625000,28.538652,9.781929,9.781888,1979.638184,0.241455,-2.088863,0.130810,-0.471207,0.000955,0.000141,0.000335,0,1,0,-0.021429,0,0.390000,0,14,0,202
1657, 101,25629,25609,-5510,0,0,1.483364,0.324242,-9.669295,-0.030186,0.003490,-0.013260,-208.579376,13.417130,-47.793041,1.483905,0.325502,-9.669318,-0.016210,0.002592,-0.000570,85.641461,7.983772,16.852747,0.716976,0.678267,-0.049817,0.153027,0.716872,0.678221,-0.048851,0.154030,1979.518799,80206.343750,0.082580,-0.467501,0.241455,-0.119385,-0.203735,24.625000,28.538652,9.787786,9.787933,1979.638184,0.241455,-2.086817,0.132564,-0.473400,0.000954,0.000142,0.000335,0,1,0,-0.013646,0,0.390000,0,14,0,202
1658, 101,25708,25696,-5431,0,0,1.495714,0.308913,-9.669318,0.005709,0.007422,-0.012529,-207.950897,12.978661,-47.778427,1.498266,0.306355,-9.669318,0.015506,-0.000165,-0.000443,85.662136,7.825320,16.840516,0.716972,0.678271,-0.049817,0.153027,0.716972,0.678271,-0.049817,0.153027,1979.527710,80206.343750,0.030711,-0.467500,0.241455,-0.110474,-0.192837,24.625000,28.538652,9.789193,9.789503,1979.638184,0.241455,-2.079509,0.129787,-0.477784,0.000954,0.000143,0.000335,0,1,0,-0.014881,0,0.390000,0,14,0,202
1659, 101,25788,25783,-5351,0,0,1.484272,0.376239,-9.678633,-0.032142,-0.060550,-0.002232,-207.936279,13.680211,-47.544579,1.483905,0.378157,-9.678891,0.002015,0.000013,0.000973,85.728341,7.905608,16.846554,0.716468,0.678725,-0.049429,0.153501,0.716468,0.678725,-0.049429,0.153501,1979.532349,80206.343750,0.034743,-0.467383,0.241455,-0.105835,-0.180200,24.625000,28.538652,9.799007,9.799281,1979.638184,0.241455,-2.079363,0.136802,-0.475446,0.000954,0.000144,0.000335,0,1,0,-0.002911,0,0.390000,0,14,0,202
1660, 101,25867,25849,-5272,0,0,1.531074,0.381503,-9.667916,-0.036761,0.000182,-0.005236,-208.009369,13.300204,-48.041508,1.512626,0.382943,-9.669318,-0.001771,-0.000097,-0.000691,85.259373,8.191014,16.869451,0.718835,0.675929,-0.047110,0.155492,0.718835,0.675929,-0.047110,0.155492,1979.522705,80206.343750,-0.007447,-0.466876,0.241455,-0.115479,-0.173413,24.625000,28.538652,9.795833,9.794407,1979.638184,0.241455,-2.080094,0.133002,-0.480415,0.000953,0.000146,0.000335,0,1,0,-0.002253,0,0.390000,0,14,0,202
1661, 101,25947,25935,-5192,0,0,1.509320,-0.379019,9.662613,-0.041338,0.048505,-0.008500,-207.848572,-13.095586,49.313065,1.507839,-0.397304,9.659744,0.005696,0.001949,0.001490,85.259899,8.191109,16.869319,0.718832,0.675932,-0.047109,0.155491,0.718832,0.675932,-0.047109,0.155491,1979.473633,80206.343750,-0.090653,-0.466705,0.241455,-0.164551,-0.171337,24.625000,28.538652,9.787124,9.784789,1979.638184,0.241455,-2.078486,-0.130956,0.493131,0.000953,0.000147,0.000335,0,1,0,-0.008340,0,0.390000,0,14,0,202
1662, 101,26025,26013,-5114,0,0,1.470582,-0.378629,9.692354,2.663725,-0.774258,-0.392485,-208.564758,-13.095586,48.538441,1.469545,-0.378157,9.693252,-0.003533,0.002637,0.001129,99.741567,156.686165,-18.561459,0.249284,0.050666,0.647872,0.718019,0.249284,0.050666,0.647872,0.718019,1979.473633,80206.343750,-0.121779,-0.655048,0.241455,-0.164551,-0.190520,24.625000,28.538652,9.810591,9.811304,1979.638184,0.241455,-2.085648,-0.130956,0.485384,0.000953,0.000148,0.000335,0,1,0,-0.396167,0,0.390000,0,14,0,202
1663, 101,26108,26107,-5031,0,0,1.470470,-0.324708,9.676075,0.280965,-0.080535,-0.012807,-208.710907,-13.358667,49.064602,1.464758,-0.330289,9.678891,-0.001356,0.001161,-0.001597,94.771723,170.612552,-16.718150,0.161443,-0.038517,0.676373,0.717616,0.161443,-0.038517,0.676373,0.717616,1979.423096,80206.343750,-0.188640,-0.674935,0.241455,-0.215088,-0.227804,24.625000,28.538652,9.792556,9.794669,1979.638184,0.241455,-2.087109,-0.133587,0.490646,0.000953,0.000150,0.000335,0,1,0,-0.017698,0,0.390000,0,14,0,202
1664, 101,26190,26185,-4949,0,0,1.511348,-0.372193,9.669570,0.023555,0.000824,-0.006985,-208.287048,-13.387897,48.786907,1.512626,-0.373370,9.669318,0.003601,0.001560,-0.003116,94.613570,171.960722,-16.606321,0.152914,-0.046698,0.676755,0.718637,0.152914,-0.046698,0.676755,0.718637,1979.447144,80206.343750,0.034126,-0.675278,0.241455,-0.191040,-0.242755,24.625000,28.538652,9.794044,9.794037,1979.638184,0.241455,-2.082870,-0.133879,0.487869,0.000953,0.000151,0.000335,0,1,0,-0.010353,0,0.390000,0,14,0,202
1665, 101,26276,26255,-4863,0,0,1.541857,-0.341362,9.657089,-0.015863,-0.019310,-0.015674,-208.287048,-13.241742,48.903828,1.546134,-0.344649,9.654958,0.012121,0.001102,-0.001067,94.613242,171.960722,-16.606370,0.152914,-0.046699,0.676757,0.718635,0.152914,-0.046699,0.676757,0.718635,1979.453735,80206.343750,0.034286,-0.675075,0.241455,-0.184448,-0.254181,24.625000,28.538652,9.785357,9.784044,1979.638184,0.241455,-2.082870,-0.132417,0.489038,0.000953,0.000152,0.000335,0,1,0,-0.012284,0,0.390000,0,14,0,202
1666, 101,26359,26351,-4780,0,0,1.536214,-0.395219,9.663720,0.019962,0.047686,-0.008096,-208.316284,-13.227126,48.655365,1.541347,-0.435598,9.669318,-0.002502,-0.001328,0.001139,94.512053,171.877298,-16.613037,0.153397,-0.046341,0.677431,0.717920,0.153397,-0.046341,0.677431,0.717920,1979.485229,80206.343750,0.054512,-0.675329,0.241455,-0.152954,-0.254337,24.625000,28.538652,9.793040,9.801082,1979.638184,0.241455,-2.083163,-0.132271,0.486554,0.000953,0.000153,0.000335,0,1,0,-0.026101,0,0.390000,0,14,0,202
1667, 101,26440,26438,-4699,0,0,1.518046,-0.342349,9.669305,-0.000943,-0.083740,-0.007629,-208.126282,-13.387897,48.830750,1.517413,-0.339862,9.669318,0.008145,0.000970,0.003719,94.951118,172.017017,-16.601200,0.152694,-0.046578,0.674608,0.720707,0.152694,-0.046578,0.674608,0.720707,1979.485229,80206.343750,0.073596,-0.675009,0.241455,-0.152954,-0.243917,24.625000,28.538652,9.793729,9.793557,1979.638184,0.241455,-2.081263,-0.133879,0.488308,0.000953,0.000155,0.000335,0,1,0,-0.007124,0,0.390000,0,14,0,202
1668, 101,26521,26518,-4618,0,0,1.446880,-0.355360,9.687161,0.024740,0.004108,0.000031,-208.740143,-12.642503,48.377666,1.440824,-0.363796,9.688466,0.024312,0.001940,0.002621,94.384697,172.296781,-16.577970,0.150697,-0.048979,0.678026,0.717755,0.150697,-0.048979,0.678026,0.717755,1979.531860,80206.343750,0.102113,-0.674479,0.241455,-0.106323,-0.226714,24.625000,28.538652,9.801064,9.801770,1979.638184,0.241455,-2.087401,-0.126425,0.483777,0.000953,0.000156,0.000335,0,1,0,-0.002446,0,0.390000,0,14,0,202
1669, 101,26602,26594,-4537,0,0,1.460102,-0.381086,9.683714,0.019032,0.032873,-0.000490,-208.403961,-12.627886,49.181526,1.474332,-0.392517,9.683678,0.013650,0.002658,-0.001111,94.383433,172.296535,-16.577742,0.150696,-0.048978,0.678034,0.717747,0.150696,-0.048978,0.678034,0.717747,1979.622192,80206.343750,0.180085,-0.673504,0.241455,-0.015991,-0.196241,24.625000,28.538652,9.800583,9.803129,1979.638184,0.241455,-2.084040,-0.126279,0.491815,0.000953,0.000157,0.000335,0,1,0,-0.006306,0,0.390000,0,14,0,202
1670, 101,26680,26671,-4459,0,0,1.488565,-0.354524,9.669435,-0.027545,-0.021992,-0.011051,-208.418579,-12.832504,48.640747,1.488692,-0.354223,9.669318,0.000628,0.000549,-0.002081,94.610305,172.358594,-16.572889,0.150403,-0.049048,0.676581,0.719174,0.150403,-0.049048,0.676581,0.719174,1979.582764,80206.343750,0.033244,-0.672464,0.241455,-0.055420,-0.161694,24.625000,28.538652,9.789763,9.789658,1979.638184,0.241455,-2.084186,-0.128325,0.486407,0.000953,0.000159,0.000335,0,1,0,-0.010113,0,0.390000,0,14,0,202
1671, 101,26760,26749,-4379,0,0,1.556966,-0.353221,9.656250,-0.041850,-0.015208,-0.011766,-208.667068,-12.920199,49.020756,1.560494,-0.349436,9.654958,-0.003942,0.002004,-0.002567,94.713537,172.110153,-16.593620,0.152012,-0.047446,0.676055,0.719438,0.152012,-0.047446,0.676055,0.719438,1979.628296,80206.343750,0.083540,-0.672013,0.241455,-0.009888,-0.141988,24.625000,28.538652,9.787343,9.786493,1979.638184,0.241455,-2.086671,-0.129202,0.490208,0.000953,0.000160,0.000335,0,1,0,-0.004933,0,0.390000,0,14,0,202
1672, 101,26839,26828,-4300,0,0,1.524740,-0.349160,9.666966,-0.046704,-0.050755,-0.023098,-208.725525,-13.212511,48.626133,1.517413,-0.359009,9.674106,0.011118,0.004152,0.001425,94.713605,172.110303,-16.593735,0.153447,-0.046349,0.677834,0.717528,0.152012,-0.047447,0.676055,0.719438,1979.660522,80206.343750,0.104947,-0.671697,0.241455,0.022339,-0.116070,24.625000,28.538652,9.792701,9.798966,1979.638184,0.241455,-2.087255,-0.132125,0.486261,0.000953,0.000161,0.000335,0,1,0,-0.022470,0,0.390000,0,14,0,202
1673, 101,26916,26906,-4223,0,0,1.508719,-0.306714,9.665375,0.025086,-0.021961,-0.011186,-208.667068,-13.314821,48.319206,1.507839,-0.301568,9.664531,-0.007212,0.002853,0.001739,94.448102,171.864840,-16.613402,0.153445,-0.046349,0.677838,0.717525,0.153445,-0.046349,0.677838,0.717525,1979.660522,80206.343750,0.078861,-0.671282,0.241455,0.022339,-0.088076,24.625000,28.538652,9.787226,9.786097,1979.638184,0.241455,-2.086671,-0.133148,0.483192,0.000953,0.000163,0.000335,0,1,0,-0.002282,0,0.390000,0,14,0,202
1674, 101,26995,26984,-4144,0,0,1.457580,-0.322811,9.671235,0.012573,0.030367,-0.013731,-208.360123,-13.124818,49.137680,1.436037,-0.315928,9.674106,-0.018062,0.000186,0.000216,94.250101,171.985051,-16.604248,0.152611,-0.047326,0.679019,0.716522,0.152611,-0.047326,0.679019,0.716522,1979.653931,80206.343750,-0.006390,-0.671017,0.241455,0.015747,-0.072774,24.625000,28.538652,9.785783,9.785210,1979.638184,0.241455,-2.083601,-0.131248,0.491377,0.000953,0.000164,0.000335,0,1,0,-0.013791,0,0.390000,0,14,0,202
1675, 101,27073,27062,-4066,0,0,1.552529,-0.138958,9.660125,-0.038908,-0.040748,-0.016215,-208.330887,-13.504823,49.152294,1.555707,-0.134030,9.659744,-0.003511,-0.002578,0.001602,93.672595,171.764887,-16.619711,0.153749,-0.046790,0.682725,0.712782,0.153749,-0.046790,0.682725,0.712782,1979.624146,80206.343750,-0.082808,-0.671159,0.241455,-0.014038,-0.069878,24.625000,28.538652,9.785074,9.785134,1979.638184,0.241455,-2.083309,-0.135048,0.491523,0.000953,0.000165,0.000335,0,1,0,-0.017013,0,0.390000,0,14,0,202
1676, 101,27152,27140,-3987,0,0,1.491275,-0.365095,9.678345,0.099510,0.168425,0.004694,-208.330887,-13.168664,49.298450,1.498266,-0.354223,9.674106,-0.001751,-0.004253,0.001113,93.671598,171.764532,-16.619505,0.153750,-0.046788,0.682732,0.712776,0.153750,-0.046788,0.682732,0.712776,1979.656372,80206.343750,0.005957,-0.671112,0.241455,0.018188,-0.073774,24.625000,28.538652,9.799365,9.795846,1979.638184,0.241455,-2.083309,-0.131687,0.492985,0.000953,0.000166,0.000335,0,1,0,0.004249,0,0.390000,0,14,0,202
1677, 101,27231,27219,-3908,0,0,1.582045,-0.354311,9.655509,-0.084805,0.031181,-0.010745,-208.667068,-13.124818,48.655365,1.584428,-0.354223,9.654958,-0.011672,-0.000650,-0.000961,94.453484,172.160601,-16.591168,0.151597,-0.048098,0.677661,0.717970,0.151597,-0.048098,0.677661,0.717970,1979.656372,80206.343750,0.105639,-0.670420,0.241455,0.018188,-0.064089,24.625000,28.538652,9.790672,9.790510,1979.638184,0.241455,-2.086671,-0.131248,0.486554,0.000953,0.000168,0.000335,0,1,0,-0.010264,0,0.390000,0,14,0,202
1678, 101,27316,27316,-3823,0,0,1.517950,-0.330483,9.654960,0.001074,-0.003893,-0.021858,-208.287048,-13.139433,49.488457,1.517413,-0.330289,9.654958,0.014205,0.000537,0.001623,94.424319,171.974601,-16.605629,0.152752,-0.047035,0.677934,0.717538,0.152752,-0.047035,0.677934,0.717538,1979.701904,80206.343750,0.118044,-0.670274,0.241455,0.063721,-0.050578,24.625000,28.538652,9.779142,9.779051,1979.638184,0.241455,-2.082870,-0.131394,0.494885,0.000953,0.000169,0.000335,0,1,0,-0.021621,0,0.390000,0,14,0,202
1679, 101,28310,28302,-2829,0,0,1.502528,-0.271492,9.676019,-0.012466,-0.128461,-0.006104,-208.491653,-13.563286,48.596901,1.483905,-0.229766,9.678891,-0.013491,0.002702,0.001103,94.787227,172.058749,-16.599771,0.152378,-0.047055,0.675617,0.719798,0.152378,-0.047055,0.675617,0.719798,1979.814087,80206.343750,0.013453,-0.664627,0.241455,0.175903,0.110539,24.625000,28.538652,9.795746,9.794677,1979.638184,0.241455,-2.084917,-0.135633,0.485969,0.000953,0.000190,0.000335,0,1,0,-0.001993,0,0.390000,0,14,0,202
1680, 101,28362,28345,-2777,0,0,1.527968,-0.301258,9.665411,0.000490,-0.025555,-0.006269,-208.608597,-12.949430,48.859985,1.546134,-0.330289,9.659744,0.009915,0.003503,0.000736,93.944423,172.016429,-16.603032,0.152294,-0.047925,0.680913,0.714750,0.152294,-0.047925,0.680913,0.714750,1979.875122,80206.343750,0.071199,-0.664486,0.241455,0.236938,0.105354,24.625000,28.538652,9.790077,9.788273,1979.638184,0.241455,-2.086086,-0.129494,0.488600,0.000953,0.000191,0.000335,0,1,0,-0.007294,0,0.390000,0,14,0,202
1681, 101,28430,28414,-2709,0,0,1.462150,-0.288136,9.683078,0.034400,0.023733,-0.004563,-208.433197,-12.569425,48.743057,1.459971,-0.287207,9.683678,0.019598,0.002711,-0.002013,93.943720,172.016374,-16.602952,0.152294,-0.047925,0.680917,0.714746,0.152294,-0.047925,0.680917,0.714746,1979.827637,80206.343750,0.043947,-0.664064,0.241455,0.189453,0.116785,24.625000,28.538652,9.797086,9.797327,1979.638184,0.241455,-2.084332,-0.125694,0.487431,0.000953,0.000192,0.000335,0,1,0,-0.006599,0,0.390000,0,14,0,202
1682, 101,28512,28511,-2627,0,0,1.476817,-0.280429,9.662316,-0.015045,0.000013,-0.022464,-208.140900,-12.905582,48.348434,1.474332,-0.272847,9.659744,-0.033257,-0.004937,-0.003011,94.048522,172.220201,-16.588779,0.151065,-0.048998,0.680164,0.715650,0.151065,-0.048998,0.680164,0.715650,1979.827637,80206.343750,-0.030371,-0.663083,0.241455,0.189453,0.119220,24.625000,28.538652,9.778547,9.775416,1979.638184,0.241455,-2.081409,-0.129056,0.483484,0.000953,0.000193,0.000335,0,1,0,-0.014363,0,0.390000,0,14,0,202
1683, 101,28592,28590,-2547,0,0,1.593038,-0.258621,9.659751,-0.044038,0.005692,-0.007458,-208.360123,-12.949430,48.991524,1.594001,-0.258487,9.659744,0.027213,0.000002,-0.003154,94.086600,171.707349,-16.625702,0.154289,-0.045903,0.680172,0.715160,0.154289,-0.045903,0.680172,0.715160,1979.833374,80206.343750,0.011664,-0.663180,0.241455,0.195190,0.122527,24.625000,28.538652,9.793643,9.793790,1979.638184,0.241455,-2.083601,-0.129494,0.489915,0.000953,0.000194,0.000335,0,1,0,-0.007831,0,0.390000,0,14,0,202
1684, 101,28674,28671,-2465,0,0,1.546412,-0.465569,9.655389,0.004499,0.048212,-0.011601,-207.936279,-12.598655,47.880737,1.550920,-0.478679,9.654958,0.001176,-0.001503,0.000566,94.922076,172.020309,-16.600647,0.152660,-0.046635,0.674789,0.720541,0.152660,-0.046635,0.674789,0.720541,1979.815186,80206.343750,-0.032827,-0.663248,0.241455,0.177002,0.120836,24.625000,28.538652,9.789518,9.790439,1979.638184,0.241455,-2.079363,-0.125987,0.478807,0.000953,0.000196,0.000335,0,1,0,-0.015194,0,0.390000,0,14,0,202
1685, 101,28754,28751,-2385,0,0,1.552307,-0.377542,9.657753,-0.025688,-0.034818,-0.012103,-208.272430,-13.314821,48.582287,1.550920,-0.378157,9.654958,0.009712,0.001864,0.002315,94.922609,172.020391,-16.600616,0.152660,-0.046634,0.674786,0.720545,0.152660,-0.046634,0.674786,0.720545,1979.744019,80206.343750,-0.119331,-0.663286,0.241455,0.105835,0.109734,24.625000,28.538652,9.788994,9.786039,1979.638184,0.241455,-2.082724,-0.133148,0.485823,0.000953,0.000197,0.000335,0,1,0,-0.005233,0,0.390000,0,14,0,202
1686, 101,28835,28831,-2304,0,0,1.397225,-0.396785,9.687568,0.153536,-0.030032,-0.006401,-208.316284,-12.949430,48.772285,1.392956,-0.397304,9.688466,0.024492,0.004287,0.003209,94.741308,171.889442,-16.611452,0.153409,-0.046102,0.675988,0.719292,0.153409,-0.046102,0.675988,0.719292,1979.758057,80206.343750,-0.144976,-0.663631,0.241455,0.119873,0.084727,24.625000,28.538652,9.795849,9.796150,1979.638184,0.241455,-2.083163,-0.129494,0.487723,0.000953,0.000198,0.000335,0,1,0,-0.007002,0,0.390000,0,14,0,202
1687, 101,28916,28913,-2223,0,0,1.493409,-0.386914,9.682849,-0.033046,0.017349,0.003904,-207.980133,-13.548671,48.596901,1.498266,-0.387730,9.683678,-0.012617,0.002320,-0.001106,94.559270,172.424547,-16.567539,0.149967,-0.049504,0.676869,0.718963,0.149967,-0.049504,0.676869,0.718963,1979.758057,80206.343750,-0.014736,-0.663672,0.241455,0.119873,0.071342,24.625000,28.538652,9.804975,9.806566,1979.638184,0.241455,-2.079801,-0.135487,0.485969,0.000953,0.000199,0.000335,0,1,0,-0.000179,0,0.390000,0,14,0,202
1688, 101,28998,28995,-2141,0,0,1.560263,-0.329355,9.666638,-0.115009,-0.018284,-0.004407,-208.462433,-13.665594,48.348434,1.550920,-0.330289,9.669318,-0.004816,0.001274,-0.004349,94.559748,172.424792,-16.567790,0.153721,-0.046056,0.677721,0.717595,0.149967,-0.049507,0.676865,0.718966,1979.702759,80206.343750,-0.170563,-0.663485,0.241455,0.064575,0.045620,24.625000,28.538652,9.797284,9.798477,1979.638184,0.241455,-2.084624,-0.136656,0.483484,0.000953,0.000201,0.000335,0,1,0,-0.007402,0,0.390000,0,14,0,202
1689, 101,29079,29074,-2060,0,0,1.585791,-0.369490,9.651887,-0.026468,0.044767,-0.012871,-208.520889,-13.241742,48.421513,1.589215,-0.373370,9.650170,-0.002690,0.001117,-0.002766,94.470245,171.821427,-16.616119,0.153722,-0.046058,0.677720,0.717596,0.153722,-0.046058,0.677720,0.717596,1979.660156,80206.343750,-0.133282,-0.663519,0.241455,0.021973,0.018361,24.625000,28.538652,9.788267,9.787277,1979.638184,0.241455,-2.085209,-0.132417,0.484215,0.000953,0.000202,0.000335,0,1,0,-0.010233,0,0.390000,0,14,0,202
1690, 101,29160,29156,-1979,0,0,1.583617,-0.352415,9.659115,-0.013041,-0.004059,-0.006596,-209.178619,-13.504823,48.830750,1.589215,-0.349436,9.654958,-0.001085,-0.000375,0.002194,94.654394,171.732963,-16.623268,0.154351,-0.045288,0.676608,0.718559,0.154351,-0.045288,0.676608,0.718559,1979.685791,80206.343750,0.001129,-0.663534,0.241455,0.047607,0.001039,24.625000,28.538652,9.794414,9.791114,1979.638184,0.241455,-2.091786,-0.135048,0.488308,0.000953,0.000203,0.000335,0,1,0,0.001097,0,0.390000,0,14,0,202
1691, 101,29246,29244,-1893,0,0,1.476281,-0.323977,9.678087,0.084392,-0.014831,-0.005981,-208.184738,-13.007893,48.523823,1.440824,-0.330289,9.683678,0.013296,0.001560,0.004008,94.377095,171.727266,-16.623468,0.154275,-0.045626,0.678347,0.716912,0.154275,-0.045626,0.678347,0.716912,1979.635254,80206.343750,-0.131593,-0.663528,0.241455,-0.002930,-0.020174,24.625000,28.538652,9.795394,9.795850,1979.638184,0.241455,-2.085794,-0.133587,0.478807,0.000954,0.000204,0.000335,0,1,0,-0.006398,0,0.390000,0,14,0,202
1692, 101,29333,29324,-1806,0,0,1.497739,-0.373797,9.679276,0.078335,0.038799,0.000209,-208.316284,-13.344051,48.377666,1.503052,-0.378157,9.678891,-0.001026,-0.001701,0.002802,94.376658,171.727157,-16.623215,0.154274,-0.045624,0.678350,0.716909,0.154274,-0.045624,0.678350,0.716909,1979.635254,80206.343750,-0.157229,-0.663534,0.241455,-0.002930,-0.043967,24.625000,28.538652,9.801599,9.802199,1979.638184,0.241455,-2.083163,-0.133441,0.483777,0.000954,0.000205,0.000335,0,1,0,-0.001358,0,0.390000,0,14,0,202
1693, 101,29411,29407,-1728,0,0,1.507473,-0.370565,9.682245,0.001898,0.046416,0.004789,-208.257812,-12.817889,48.026894,1.517413,-0.397304,9.683678,0.011423,-0.001920,-0.000620,94.324147,172.115877,-16.593274,0.151815,-0.047996,0.678493,0.717144,0.151815,-0.047996,0.678493,0.717144,1979.600952,80206.343750,-0.129254,-0.663336,0.241455,-0.037231,-0.070766,24.625000,28.538652,9.805899,9.809894,1979.638184,0.241455,-2.082578,-0.128179,0.480269,0.000954,0.000206,0.000335,0,1,0,-0.004114,0,0.390000,0,14,0,202
1694, 101,29493,29488,-1646,0,0,1.452183,-0.369293,9.665044,0.018161,-0.007121,-0.020514,-208.023972,-12.920199,48.363052,1.450398,-0.368583,9.664531,0.007583,-0.001042,-0.001528,94.547064,172.311562,-16.577930,0.150680,-0.048860,0.677001,0.718734,0.150680,-0.048860,0.677001,0.718734,1979.600952,80206.343750,-0.042940,-0.662744,0.241455,-0.037231,-0.084836,24.625000,28.538652,9.780506,9.779707,1979.638184,0.241455,-2.080240,-0.129202,0.483631,0.000954,0.000208,0.000335,0,1,0,-0.018421,0,0.390000,0,14,0,202
1695, 101,29574,29571,-1565,0,0,1.543226,-0.384168,9.668469,-0.063649,0.031812,-0.002869,-208.316284,-13.460976,48.041508,1.541347,-0.382943,9.669318,-0.017911,-0.001396,-0.001167,94.547221,172.311575,-16.578058,0.152852,-0.046661,0.676089,0.719279,0.150681,-0.048861,0.677000,0.718735,1979.572876,80206.343750,-0.098814,-0.663072,0.241455,-0.065308,-0.104340,24.625000,28.538652,9.798389,9.798883,1979.638184,0.241455,-2.083163,-0.134610,0.480415,0.000954,0.000209,0.000335,0,1,0,-0.004187,0,0.390000,0,14,0,202
1696, 101,29655,29651,-1484,0,0,1.519660,-0.360495,9.661692,0.008331,-0.025328,-0.013922,-208.667068,-13.446361,48.363052,1.483905,-0.359009,9.664531,0.007036,0.004626,0.001155,94.717901,171.977825,-16.605296,0.152851,-0.046662,0.676092,0.719277,0.152851,-0.046662,0.676092,0.719277,1979.522705,80206.343750,-0.177144,-0.663248,0.241455,-0.115479,-0.135811,24.625000,28.538652,9.787114,9.784376,1979.638184,0.241455,-2.086671,-0.134464,0.483631,0.000954,0.000210,0.000335,0,1,0,-0.007240,0,0.390000,0,14,0,202
1697, 101,29735,29733,-1404,0,0,1.525910,-0.363670,9.669182,-0.030979,0.011042,-0.005457,-208.930130,-13.475593,48.216896,1.526986,-0.363796,9.669318,0.002244,0.003805,0.000081,94.527086,172.183755,-16.588417,0.151477,-0.048132,0.677189,0.718438,0.151477,-0.048132,0.677189,0.718438,1979.461670,80206.343750,-0.190175,-0.663879,0.241455,-0.176514,-0.170979,24.625000,28.538652,9.795598,9.795905,1979.638184,0.241455,-2.089301,-0.134756,0.482169,0.000954,0.000211,0.000335,0,1,0,-0.006250,0,0.390000,0,14,0,202
1698, 101,29817,29815,-1322,0,0,1.510982,-0.319143,9.668899,-0.005167,0.000475,-0.009550,-209.427063,-13.417130,48.669979,1.512626,-0.320715,9.669318,-0.001957,-0.000525,-0.000836,94.316866,172.042152,-16.599469,0.152278,-0.047573,0.678574,0.716997,0.152278,-0.047573,0.678574,0.716997,1979.480225,80206.343750,-0.036047,-0.664288,0.241455,-0.157959,-0.197370,24.625000,28.538652,9.791451,9.792171,1979.638184,0.241455,-2.087401,-0.133002,0.484800,0.000954,0.000212,0.000335,0,1,0,-0.011526,0,0.390000,0,14,0,202
1699, 101,29898,29895,-1241,0,0,1.670379,-0.338564,12.643389,0.260897,-0.158643,2.953091,-207.190872,-11.341713,49.254604,1.751966,-0.378157,13.919988,0.020456,0.000738,-0.002517,94.316006,172.041919,-16.599421,0.152278,-0.047572,0.678580,0.716992,0.152278,-0.047572,0.678580,0.716992,1979.451294,80206.343750,-0.016395,-0.664515,0.241455,-0.186890,-0.211292,24.625000,28.538652,12.757745,14.034901,1979.638184,0.241455,-2.071909,-0.113417,0.492546,0.000954,0.000213,0.000335,0,1,0,-0.020860,0,0.390000,0,14,0,202
1700, 101,29979,29977,-1160,0,0,1.612041,3.995377,63.272923,4.695451,-7.358403,53.014851,-205.144684,-7.980123,48.801521,1.608362,4.116641,64.645615,-0.439478,0.061230,0.104123,93.624538,173.321801,-16.508762,0.143950,-0.056062,0.682248,0.714614,0.143950,-0.056062,0.682248,0.714614,1979.451294,80206.343750,-0.064312,-0.080697,0.241455,-0.186890,-0.223923,24.625000,28.538652,63.419434,64.796524,1979.638184,0.241455,-2.055978,-0.082432,0.488892,0.000954,0.000215,0.000335,0,1,0,49.470604,0,0.390000,0,14,0,202
1701, 101,30061,30058,-1078,0,0,9.433999,1.365085,77.891304,2.916526,-4.920109,68.462692,-195.586090,-3.010816,44.577606,7.400379,3.202363,79.317123,0.520943,0.104619,0.045327,94.620072,170.967517,-16.678229,0.159097,-0.040765,0.677173,0.717261,0.159097,-0.040765,0.677173,0.717261,1979.436890,80206.343750,-0.061719,3.063753,0.241455,-0.201294,-0.150910,24.625000,28.538652,78.472404,79.725945,1979.638184,0.241455,-1.955861,-0.030108,0.445776,0.000954,0.000216,0.000335,0,1,0,66.114670,0,0.390000,0,14,0,202
1702, 101,30141,30140,-998,0,0,9.371000,-1.730544,78.264351,3.909329,-2.012750,68.918663,-171.660324,11.064016,34.098217,9.382111,-1.766326,78.259247,-0.549147,-0.081183,0.019017,94.629286,170.969525,-16.677983,0.142556,-0.057694,0.684235,0.712861,0.159087,-0.040763,0.677115,0.717318,1979.579468,80206.343750,0.418188,6.723443,0.241455,-0.058716,0.077614,24.625000,28.538652,78.842369,78.839417,1979.638184,0.241455,-1.721426,0.105817,0.340105,0.000954,0.000217,0.000335,0,1,0,68.923920,0,0.390000,0,14,0,202
1703, 101,30226,30226,-913,0,0,5.771071,0.661994,76.745659,2.974766,-3.404749,67.031273,-156.401642,23.428822,27.199650,5.514383,0.406877,76.684395,0.226660,0.063318,-0.049417,93.285863,173.521229,-16.503527,0.142581,-0.057716,0.684246,0.712844,0.142581,-0.057716,0.684246,0.712844,1979.876099,80206.343750,0.651659,10.824578,0.241455,0.237915,0.485234,24.625000,28.538652,76.965187,76.883484,1979.638184,0.241455,-1.564016,0.234288,0.271996,0.000954,0.000218,0.000335,0,1,0,67.255547,0,0.390000,0,14,0,202
1704, 101,30306,30302,-833,0,0,8.956079,-0.363271,74.645584,-2.808765,1.506737,65.313225,-148.845367,26.308098,25.606548,8.994380,-0.296781,75.449402,0.736378,0.047832,0.044224,91.047801,175.655240,-16.419575,0.128105,-0.073204,0.696796,0.701930,0.128105,-0.073204,0.696796,0.701930,1981.248657,80206.343750,2.227402,14.294466,1.610474,1.610474,1.053879,24.625000,28.538652,75.181824,75.984207,1979.638184,1.610474,-1.488454,0.263081,0.256065,0.000954,0.000219,0.000335,0,1,0,63.466228,0,0.390000,0,14,0,202
1705, 101,30391,30387,-748,0,0,8.976646,-0.314744,74.589111,-0.337827,0.206799,65.325943,-145.162231,30.663549,25.255772,8.975233,-0.315928,74.511185,0.734148,-0.112154,0.048987,92.013180,173.741858,-16.463343,0.140373,-0.060433,0.692017,0.705518,0.140373,-0.060433,0.692017,0.705518,1981.248657,80206.343750,4.546362,18.168800,1.610474,1.610474,1.995599,24.625000,28.538652,75.127991,75.050461,1979.638184,1.610474,-1.451622,0.306635,0.252558,0.000954,0.000220,0.000335,0,1,0,65.524200,0,0.390000,0,14,0,202
1706, 101,30469,30459,-670,0,0,9.128041,-0.116389,74.313156,-0.502353,0.150124,65.286514,-138.541367,35.983631,28.047356,9.128410,-0.095736,74.219200,0.682895,-0.304598,-0.007951,91.979583,173.720725,-16.458838,0.142630,-0.058104,0.691782,0.705491,0.140453,-0.060315,0.692238,0.705295,1982.499512,80206.343750,4.766501,21.440462,2.861328,2.861328,3.050724,24.625000,28.538652,74.871758,74.778519,1979.638184,2.861328,-1.385414,0.359836,0.280474,0.000954,0.000221,0.000335,0,1,0,66.010872,0,0.390000,0,14,0,202
1707, 101,30548,30541,-591,0,0,9.216901,0.015878,73.921883,-0.218430,-0.075018,64.692909,-135.910553,37.518269,27.228880,9.219359,0.019147,73.912849,0.552055,-0.413093,-0.036505,92.056135,173.346240,-16.469230,0.142781,-0.057942,0.691971,0.705289,0.142781,-0.057942,0.691971,0.705289,1984.055908,80206.343750,5.495731,25.162437,4.417725,4.417725,4.375523,24.625000,28.538652,74.494270,74.485611,1979.638184,4.417725,-1.359105,0.375183,0.272289,0.000954,0.000222,0.000335,0,1,0,64.715538,0,0.390000,0,14,0,202
1708, 101,30627,30624,-512,0,0,8.942157,0.665190,73.059875,-0.035223,-0.365044,63.806171,-136.071320,37.737503,28.193510,8.922579,0.694085,72.936333,0.032661,-0.542997,-0.127150,91.762225,173.187465,-16.478873,0.143635,-0.057375,0.693859,0.703304,0.143635,-0.057375,0.693859,0.703304,1985.802002,80206.343750,5.644242,28.805052,6.163818,6.163818,5.846600,24.625000,28.538652,73.608078,73.483353,1979.638184,6.163818,-1.360713,0.377375,0.281935,0.000954,0.000223,0.000335,0,1,0,64.129005,0,0.390000,0,14,0,202
1709, 101,30709,30707,-430,0,0,8.996181,1.086880,73.735985,-0.102122,-0.551137,64.487587,-135.559769,38.146740,27.404266,8.999167,1.316368,73.903267,-0.028848,-0.456152,-0.182499,91.590610,173.169843,-16.488674,0.143714,-0.057540,0.694916,0.702230,0.143714,-0.057540,0.694916,0.702230,1988.133667,80206.343750,6.052212,32.431091,8.495483,8.495483,7.501237,24.625000,28.538652,74.290703,74.460800,1979.638184,8.495483,-1.355598,0.381467,0.274043,0.000954,0.000224,0.000335,0,1,0,64.094864,0,0.390000,0,14,0,202
1710, 101,30791,30790,-348,0,0,8.671546,1.619683,72.844055,-0.034001,-1.131199,63.566532,-134.595139,37.985970,28.237358,8.668879,1.622722,72.835815,0.007298,-0.133931,-0.258817,91.594080,173.158082,-16.502147,0.143612,-0.058396,0.699762,0.697351,0.143869,-0.057544,0.694895,0.702219,1988.133667,80206.343750,6.079595,35.933235,8.495483,8.495483,9.294304,24.625000,28.538652,73.376259,73.367828,1979.638184,8.495483,-1.345951,0.379860,0.282374,0.000954,0.000226,0.000335,0,1,0,63.588715,0,0.390000,0,14,0,202
1711, 101,30873,30870,-266,0,0,8.745215,1.799906,73.081863,-0.102620,-0.274615,63.823666,-136.261337,38.716747,26.191172,8.731108,1.790260,73.103874,-0.199312,0.180875,-0.261216,90.805719,173.139558,-16.517626,0.143675,-0.058512,0.699711,0.697380,0.143675,-0.058512,0.699711,0.697380,1990.688965,80206.343750,9.698689,39.456928,11.050781,11.050781,11.545289,24.625000,28.538652,73.625252,73.645187,1979.638184,11.050781,-1.358813,0.384829,0.257381,0.000954,0.000227,0.000335,0,1,0,63.772022,0,0.390000,0,14,0,202
1712, 101,30954,30952,-185,0,0,8.280107,0.731231,73.595833,0.385911,0.344056,64.260963,-134.463608,39.418297,26.454252,8.228494,0.660577,73.778809,-0.545504,0.348268,-0.198597,91.014074,173.385308,-16.529433,0.142381,-0.059847,0.698304,0.698940,0.142381,-0.059847,0.698304,0.698940,1993.792236,80206.343750,12.110824,43.015724,14.154053,14.154053,14.097267,24.625000,28.538652,74.063766,74.239189,1979.638184,14.154053,-1.344636,0.394183,0.264543,0.000954,0.000228,0.000335,0,1,0,63.853363,0,0.390000,0,14,0,202
1713, 101,31036,31036,-103,0,0,7.613823,-0.540898,73.298637,0.174995,0.180511,63.893570,-134.288208,39.213680,25.913477,7.596638,-0.574415,73.285774,-0.852132,0.259445,-0.102765,91.946347,174.295745,-16.518206,0.137382,-0.064306,0.692074,0.705708,0.137382,-0.064306,0.692074,0.705708,1997.233398,80206.343750,11.560339,46.684399,17.595215,17.595215,16.943111,24.625000,28.538652,73.695007,73.680687,1979.638184,17.595215,-1.342882,0.392137,0.259135,0.000954,0.000229,0.000335,0,1,0,63.909725,0,0.390000,0,14,0,202
1714, 101,31118,31119,-21,0,0,7.056810,-0.579364,73.841934,0.744391,-0.047268,64.375877,-131.350479,38.760597,29.128910,6.974355,-0.574415,73.893684,-1.969332,-0.282936,-0.268279,92.017313,174.317124,-16.535997,0.134195,-0.067624,0.691519,0.706555,0.137404,-0.064462,0.691614,0.706140,2001.270996,80206.343750,12.619315,50.195065,21.632812,21.632812,19.933918,24.625000,28.538652,74.180626,74.224312,1979.638184,21.632812,-1.315989,0.389214,0.289681,0.000954,0.000230,0.000335,0,1,0,64.265213,0,0.390000,0,14,0,202
1715, 101,31138,31352,-1,0,0,6.605653,0.419285,73.924461,0.210120,-1.393319,64.405815,-125.182701,41.917568,27.448114,6.615345,0.828115,73.936775,-1.508135,-0.371620,-0.120761,92.219049,174.850398,-16.561547,0.134509,-0.067711,0.690024,0.707947,0.134509,-0.067711,0.690024,0.707947,2005.737305,80206.343750,20.410246,59.141800,26.099121,26.099121,27.458261,24.625000,28.538652,74.220192,74.236755,1979.638184,26.099121,-1.251827,0.418006,0.268927,0.000960,0.000234,0.000335,0,1,0,64.387733,1,0.390000,0,14,0,202
1716, 101,31678,31674,539,0,0,6.461009,-0.776598,73.443848,0.527741,-0.779119,63.924580,-133.162827,40.836014,21.280327,6.438234,-0.780247,73.438950,-1.268850,-0.228248,-0.342886,92.619592,174.943001,-16.611732,0.134508,-0.068123,0.687456,0.710402,0.134508,-0.068123,0.687456,0.710402,2029.018799,80206.343750,13.050563,76.065170,49.380615,49.380615,49.365494,24.625000,28.538652,73.731583,73.724754,1979.638184,49.380615,-1.331628,0.408360,0.212803,0.000955,0.000238,0.000335,0,1,0,63.943066,1,0.380000,0,14,0,202
1717, 101,31735,31735,596,0,0,5.255832,0.128073,74.123741,1.480417,-2.073613,64.465263,-127.243492,41.844490,27.068108,5.222389,0.153177,74.142609,-0.981608,-0.312877,-0.106655,92.664207,174.943192,-16.621535,0.134594,-0.068130,0.687174,0.710658,0.134594,-0.068130,0.687174,0.710658,2035.765747,80206.343750,9.571458,78.769722,56.127563,56.127563,53.721813,24.625000,28.538652,74.309952,74.326462,1979.638184,56.127563,-1.272435,0.418445,0.270681,0.000955,0.000239,0.000335,0,1,0,64.426407,1,0.380000,0,14,0,202
1718, 101,31791,31788,652,0,0,5.223292,0.152500,74.142097,1.507427,-2.157140,64.478409,-119.131828,44.022213,25.869629,5.222389,0.153177,74.142609,-0.973852,-0.315162,-0.100277,92.703344,174.942318,-16.628835,0.134667,-0.068123,0.686927,0.710883,0.134667,-0.068123,0.686927,0.710883,2035.765747,80206.343750,6.051589,81.224396,56.127563,56.127563,56.808254,24.625000,28.538652,74.326019,74.326462,1979.638184,56.127563,-1.191318,0.440222,0.258696,0.000955,0.000240,0.000335,0,1,0,64.477776,1,0.390000,0,14,0,202
1719, 101,31849,31843,710,0,0,5.222414,0.153159,74.142593,1.509426,-2.207450,64.477325,-120.608009,44.446068,24.948845,5.222389,0.153177,74.142609,-0.973643,-0.315224,-0.100104,92.741941,174.941444,-16.636000,0.134740,-0.068115,0.686684,0.711105,0.134740,-0.068115,0.686684,0.711105,2035.765747,80206.343750,2.075695,83.624222,56.127563,56.127563,59.162003,24.625000,28.538652,74.326454,74.326462,1979.638184,56.127563,-1.216165,0.446653,0.235604,0.000955,0.000240,0.000335,0,1,0,64.477798,1,0.390000,0,14,0,202
1720, 101,31905,31898,766,0,0,7.276368,1.066057,73.471916,-0.625708,-2.493111,64.022713,-120.651855,44.562992,22.858814,7.333364,1.091388,73.453308,-0.513949,0.014382,0.098909,92.772479,174.943780,-16.639084,0.134763,-0.068112,0.686491,0.711287,0.134763,-0.068112,0.686491,0.711287,2050.875732,80206.343750,28.862103,86.175110,71.237549,71.237549,63.786674,24.625000,28.538652,73.839050,73.826538,1979.638184,71.237549,-1.206519,0.445630,0.228588,0.000955,0.000241,0.000335,0,1,0,64.138908,1,0.390000,0,14,0,202
1721, 101,31978,31969,839,0,0,7.458148,-0.246581,73.031281,-0.621916,-1.205088,63.598003,-122.595726,45.381470,21.455713,7.472181,-0.378157,72.988991,-0.438042,0.091624,-0.065361,92.792232,174.952140,-16.639840,0.134730,-0.068146,0.686362,0.711414,0.134730,-0.068146,0.686362,0.711414,2050.875732,80206.343750,25.311954,89.086624,71.237549,71.237549,69.352112,24.625000,28.538652,73.411530,73.371445,1979.638184,71.237549,-1.225957,0.453815,0.214557,0.000955,0.000242,0.000335,0,1,0,63.696095,1,0.390000,0,14,0,202
1722, 101,32034,32023,895,0,0,7.271793,-0.367776,74.200294,-0.334622,-1.211198,64.669075,-127.418884,45.542240,23.414207,7.266349,-0.368583,74.233559,-0.423697,0.018762,-0.166330,92.807019,174.958875,-16.645596,0.134735,-0.068205,0.686263,0.711504,0.134735,-0.068205,0.686263,0.711504,2058.974365,80206.343750,27.360935,91.505150,79.336182,79.336182,74.045975,24.625000,28.538652,74.556679,74.589256,1979.638184,79.336182,-1.274189,0.455422,0.234142,0.000955,0.000242,0.000335,0,1,0,64.388481,1,0.390000,0,14,0,202
1723, 101,32110,32110,971,0,0,5.752087,0.405528,73.216888,0.826996,-2.357410,63.600105,-125.475014,46.433792,24.934229,5.681921,0.593562,73.290558,-0.148856,-0.078965,-0.073927,92.822626,174.959954,-16.654422,0.134793,-0.068247,0.686160,0.711588,0.134793,-0.068247,0.686160,0.711588,2067.415039,80206.343750,40.844860,95.191872,87.776855,87.776855,82.847343,24.625000,28.538652,73.443604,73.512871,1979.638184,87.776855,-1.249196,0.460976,0.261181,0.000954,0.000243,0.000335,0,1,0,63.457916,1,0.390000,0,14,0,202
1724, 101,32166,32163,1027,0,0,6.354637,0.540569,73.223228,0.214834,-2.319680,63.662514,-124.071907,47.223034,27.769657,6.419087,0.540907,73.218758,0.026703,0.010822,0.026272,92.824675,174.959284,-16.655129,0.134803,-0.068244,0.686147,0.711599,0.134803,-0.068244,0.686147,0.711599,2067.415039,80206.343750,19.074213,97.602692,87.776855,87.776855,87.061371,24.625000,28.538652,73.500443,73.501587,1979.638184,87.776855,-1.240719,0.472230,0.277697,0.000954,0.000244,0.000335,0,1,0,63.657612,1,0.390000,0,14,0,202
1725, 101,32244,32241,1105,0,0,6.628154,0.214876,73.158249,0.039002,-1.921228,63.632069,-125.358078,48.640747,24.583454,6.634492,0.205832,73.156532,0.097397,0.072073,0.021102,92.819798,174.960869,-16.653347,0.134779,-0.068249,0.686178,0.711574,0.134779,-0.068249,0.686178,0.711574,2076.482422,80206.343750,32.288425,101.127586,96.844238,96.844238,93.955032,24.625000,28.538652,73.458206,73.457039,1979.638184,96.844238,-1.253581,0.486407,0.245835,0.000955,0.000245,0.000335,0,1,0,63.634315,1,0.390000,0,14,0,202
1726, 101,32300,32286,1161,0,0,6.712361,-0.706870,72.579605,0.373751,-0.577826,63.575062,-124.875771,49.210758,25.416544,6.725442,-0.512187,72.371490,0.167650,-0.098381,0.028032,92.815550,174.959749,-16.651940,0.134774,-0.068239,0.686206,0.711549,0.134774,-0.068239,0.686206,0.711549,2085.858887,80206.343750,51.799149,103.304375,106.220703,106.220703,99.108337,24.625000,28.538652,72.892761,72.685120,1979.638184,106.220703,-1.248758,0.492108,0.254165,0.000955,0.000246,0.000335,0,1,0,63.589642,1,0.390000,0,14,0,202
1727, 101,32377,32373,1238,0,0,6.642324,0.593332,71.884880,-0.179906,-2.198506,62.358841,-123.852669,49.459221,27.404266,6.634492,0.708445,71.830582,0.299493,-0.127606,-0.001929,92.804485,174.949299,-16.650261,0.134819,-0.068176,0.686282,0.711472,0.134819,-0.068176,0.686282,0.711472,2095.454834,80206.343750,52.105747,107.005920,115.816650,115.816650,107.978088,24.625000,28.538652,72.193550,72.139801,1979.638184,115.816650,-1.238527,0.494592,0.274043,0.000955,0.000246,0.000335,0,1,0,62.506969,1,0.390000,0,14,0,202
1728, 101,32433,32417,1294,0,0,6.336621,1.022050,71.799454,-0.022650,-2.640653,62.243256,-125.986549,49.064602,24.291143,6.328138,1.033947,71.797081,0.509764,0.022051,-0.027487,92.789493,174.944627,-16.649694,0.134834,-0.068161,0.686378,0.711378,0.134834,-0.068161,0.686378,0.711378,2095.454834,80206.343750,44.140991,109.113792,115.816650,115.816650,112.478912,24.625000,28.538652,72.085770,72.082832,1979.638184,115.816650,-1.259866,0.494154,0.240134,0.000956,0.000247,0.000335,0,1,0,62.272793,1,0.390000,0,14,0,202
1729, 101,32676,32665,1537,0,0,6.649090,-0.221092,70.423531,-0.058664,-1.155064,60.927254,-118.664131,44.840691,23.180357,6.648853,-0.224979,70.423264,1.109621,0.224207,-0.029592,92.642726,174.927128,-16.639830,0.134789,-0.068165,0.687306,0.710490,0.134789,-0.068165,0.687306,0.710490,2115.947754,80206.343750,3.736422,120.185043,136.309570,136.309570,138.460358,24.625000,28.538652,70.737068,70.736794,1979.638184,136.309570,-1.181380,0.453376,0.236042,0.000953,0.000251,0.000335,0,1,0,60.928909,1,0.390000,0,14,0,202
1730, 101,32732,32725,1593,0,0,5.759837,-0.021584,70.204414,0.675986,-1.536589,60.895359,-118.459511,45.323006,23.034201,5.729789,-0.033508,70.088203,1.514240,0.155552,-0.042843,92.592879,174.918918,-16.637257,0.134792,-0.068156,0.687622,0.710184,0.134792,-0.068156,0.687622,0.710184,2126.671875,80206.343750,30.039871,122.483910,147.033691,147.033691,143.629379,24.625000,28.538652,70.440300,70.322029,1979.638184,147.033691,-1.184595,0.453230,0.230342,0.000954,0.000251,0.000335,0,1,0,60.903179,1,0.380000,0,14,0,202
1731, 101,32790,32778,1651,0,0,6.380647,-0.602814,69.582024,0.758082,-1.449250,60.512653,-118.137970,45.629932,23.282667,6.658427,-0.847262,69.360603,1.707935,0.227935,0.050506,92.543100,174.909520,-16.634132,0.134799,-0.068137,0.687939,0.709878,0.134799,-0.068137,0.687939,0.709878,2137.742920,80206.343750,39.486763,124.481316,158.104736,158.104736,147.834274,24.625000,28.538652,69.876564,69.684616,1979.638184,158.104736,-1.181380,0.456299,0.232827,0.000954,0.000252,0.000335,0,1,0,60.540104,1,0.380000,0,14,0,202
1732, 101,32847,32834,1708,0,0,6.999404,-0.679826,68.944382,0.072286,-0.324616,59.900009,-119.964920,47.544579,22.683426,7.156252,-0.617496,68.757462,1.797815,0.207220,0.026879,92.477524,174.899575,-16.625594,0.134766,-0.068101,0.688356,0.709483,0.134766,-0.068101,0.688356,0.709483,2149.091064,80206.343750,56.326565,126.788162,169.452881,169.452881,154.404007,24.625000,28.538652,69.302101,69.131630,1979.638184,169.452881,-1.199649,0.475446,0.226834,0.000954,0.000253,0.000335,0,1,0,59.944340,1,0.390000,0,14,0,202
1733, 101,32904,32891,1765,0,0,5.614357,0.029862,68.893188,0.777023,-1.311284,59.303776,-119.073364,47.588425,23.092663,5.466516,0.095736,68.901070,1.906924,0.156107,-0.080538,92.394585,174.883538,-16.619209,0.134772,-0.068059,0.688884,0.708974,0.134772,-0.068059,0.688884,0.708974,2149.091064,80206.343750,54.638535,129.601685,169.452881,169.452881,163.891876,24.625000,28.538652,69.121590,69.117645,1979.638184,169.452881,-1.190734,0.475884,0.230927,0.000954,0.000254,0.000335,0,1,0,59.322998,1,0.390000,0,14,0,202
1734, 101,32973,32964,1834,0,0,5.366634,0.348614,68.294373,0.888477,-1.566984,58.681107,-118.781052,47.749199,22.508039,5.318125,0.459532,68.034660,2.030771,0.215184,-0.015760,92.314938,174.867377,-16.614695,0.134793,-0.068025,0.689389,0.708481,0.134793,-0.068025,0.689389,0.708481,2160.659180,80206.343750,40.932240,132.094971,181.020996,181.020996,170.852524,24.625000,28.538652,68.505791,68.243744,1979.638184,181.020996,-1.187811,0.477492,0.225080,0.000954,0.000254,0.000335,0,1,0,59.298050,1,0.390000,0,14,0,202
1735, 101,33029,33019,1890,0,0,5.486190,0.328222,67.272934,0.717242,-1.388266,57.731400,-119.833389,48.421513,21.484945,5.490449,0.325502,67.249634,2.139656,0.292501,0.050466,92.233331,174.853731,-16.606350,0.134774,-0.067985,0.689907,0.707984,0.134774,-0.067985,0.689907,0.707984,2160.659180,80206.343750,49.786312,134.439468,181.020996,181.020996,177.686859,24.625000,28.538652,67.497063,67.474174,1979.638184,181.020996,-1.198334,0.484215,0.214849,0.000955,0.000255,0.000335,0,1,0,57.927059,1,0.390000,0,14,0,202
1736, 101,33101,33092,1962,0,0,6.083652,-0.360726,66.839828,0.311323,-0.414158,57.314091,-121.923409,48.158436,20.637241,5.940408,-0.210619,66.646500,2.218351,0.236906,-0.021116,92.132394,174.836683,-16.596692,0.134756,-0.067939,0.690547,0.707368,0.134756,-0.067939,0.690547,0.707368,2172.590332,80206.343750,46.109741,137.199173,192.952148,192.952148,186.879166,24.625000,28.538652,67.117088,66.911049,1979.638184,192.952148,-1.219234,0.481584,0.206372,0.000954,0.000256,0.000335,0,1,0,57.797916,1,0.390000,0,14,0,202
1737, 101,33156,33147,2017,0,0,5.170560,-0.150851,65.872696,0.903678,-0.677562,56.461266,-124.232689,44.913769,22.654196,5.093146,-0.143604,65.794449,2.359766,0.245044,-0.011788,92.046088,174.820290,-16.590002,0.134761,-0.067898,0.691094,0.706837,0.134761,-0.067898,0.691094,0.706837,2184.798584,80206.343750,47.018375,139.471756,205.160400,205.160400,193.940536,24.625000,28.538652,66.075485,65.991440,1979.638184,205.160400,-1.242327,0.449138,0.226542,0.000955,0.000256,0.000335,0,1,0,57.127090,1,0.390000,0,14,0,202
1738, 101,33232,33225,2093,0,0,5.866245,-0.191715,64.402641,0.294615,-0.312243,54.867119,-123.881897,45.016079,22.624964,5.940408,-0.196258,64.262665,2.473345,0.282103,0.038853,91.922591,174.797860,-16.578030,0.134748,-0.067830,0.691877,0.706080,0.134748,-0.067830,0.691877,0.706080,2184.798584,80206.343750,48.209850,142.436340,205.160400,205.160400,203.459778,24.625000,28.538652,64.669540,64.536942,1979.638184,205.160400,-1.238673,0.447091,0.226396,0.000955,0.000257,0.000335,0,1,0,55.208523,1,0.390000,0,14,0,202
1739, 101,33290,33289,2151,0,0,5.915117,-0.205451,63.726173,0.213378,-0.132779,54.198944,-123.940369,45.337620,22.113417,5.916473,-0.205832,63.707401,2.517596,0.285520,0.024400,91.805262,174.777041,-16.566137,0.134729,-0.067767,0.692620,0.705361,0.134729,-0.067767,0.692620,0.705361,2197.194580,80206.343750,49.113155,145.091614,217.556396,217.556396,212.622452,24.625000,28.538652,64.000435,63.981873,1979.638184,217.556396,-1.239404,0.453376,0.221134,0.000955,0.000258,0.000335,0,1,0,54.247353,1,0.390000,0,14,0,202
1740, 101,33364,33358,2225,0,0,5.241093,-0.337372,62.637379,0.820573,-0.017164,53.050812,-124.627304,44.899155,22.201111,5.222389,-0.330289,62.347954,2.651418,0.291611,0.021079,91.671944,174.753450,-16.553819,0.134715,-0.067702,0.693462,0.704542,0.134715,-0.067702,0.693462,0.704542,2209.862793,80206.343750,49.451729,147.912842,230.224609,230.224609,221.316467,24.625000,28.538652,62.857170,62.567162,1979.638184,230.224609,-1.246273,0.448992,0.222011,0.000956,0.000259,0.000335,0,1,0,53.731243,1,0.390000,0,14,0,202
1741, 101,33421,33403,2282,0,0,5.357929,-0.221580,61.767715,0.620750,0.065618,52.195915,-124.598076,45.381470,21.850336,5.370780,-0.210619,61.701740,2.733067,0.311600,0.039651,91.545579,174.730815,-16.540567,0.134694,-0.067629,0.694260,0.703766,0.134694,-0.067629,0.694260,0.703766,2209.862793,80206.343750,49.602058,150.453796,230.224609,230.224609,229.332550,24.625000,28.538652,62.000057,61.935406,1979.638184,230.224609,-1.245981,0.453815,0.218503,0.000956,0.000259,0.000335,0,1,0,52.362862,1,0.390000,0,14,0,202
1742, 101,33700,33691,2561,0,0,4.634070,-0.227751,54.980740,0.884671,0.717306,45.549034,-128.061981,44.650684,20.447237,4.652761,-0.162751,54.899712,3.136518,0.338525,0.041472,90.982553,174.633334,-16.483774,0.134599,-0.067341,0.697803,0.700300,0.134599,-0.067341,0.697803,0.700300,2249.205078,80206.343750,55.237034,160.244339,269.566895,269.566895,264.790619,24.625000,28.538652,55.176155,55.096760,1979.638184,269.566895,-1.280620,0.446507,0.204472,0.000953,0.000263,0.000335,0,1,0,46.159481,1,0.390000,0,14,0,202
1743, 101,33757,33753,2618,0,0,4.362914,0.112862,54.169834,0.888709,0.309202,44.536217,-127.535805,44.066063,22.318035,4.241097,0.239340,53.846611,3.203326,0.396977,0.042200,90.864288,174.612611,-16.471126,0.134576,-0.067274,0.698545,0.699570,0.134576,-0.067274,0.698545,0.699570,2262.817383,80206.343750,43.734348,161.998734,283.179199,283.179199,272.371643,24.625000,28.538652,54.345364,54.013905,1979.638184,283.179199,-1.275358,0.440661,0.223180,0.000954,0.000264,0.000335,0,1,0,45.312824,1,0.380000,0,14,0,202
1744, 101,33813,33804,2674,0,0,3.976369,-1.125107,51.405525,1.269163,1.246339,42.307327,-127.696587,44.387608,23.516516,3.949103,-1.258926,51.161221,3.250116,0.410711,0.012101,90.745456,174.593610,-16.458633,0.134545,-0.067220,0.699289,0.698838,0.134545,-0.067220,0.699289,0.698838,2262.817383,80206.343750,52.721169,163.693909,283.179199,283.179199,280.040314,24.625000,28.538652,51.571362,51.328850,1979.638184,283.179199,-1.276966,0.443876,0.235165,0.000954,0.000264,0.000335,0,1,0,44.236370,1,0.390000,0,14,0,202
1745, 101,33869,33864,2730,0,0,3.840982,-0.821337,50.975464,1.384139,1.310371,41.290024,-127.725815,43.218357,23.574978,3.791139,-0.651004,50.864441,3.292704,0.329278,0.053352,90.633564,174.574335,-16.447148,0.134525,-0.067162,0.699989,0.698145,0.134525,-0.067162,0.699989,0.698145,2276.677490,80206.343750,44.313484,165.194290,297.039307,297.039307,286.855560,24.625000,28.538652,51.126564,51.009686,1979.638184,297.039307,-1.277258,0.432184,0.235750,0.000954,0.000265,0.000335,0,1,0,41.560143,1,0.390000,0,14,0,202
1746, 101,33927,33918,2788,0,0,4.061680,0.088167,49.458763,0.833727,0.671677,39.904255,-128.149658,43.335281,23.194971,4.068772,0.110096,49.418831,3.388427,0.360773,0.062456,90.503927,174.549746,-16.432341,0.134507,-0.067072,0.700802,0.697342,0.134507,-0.067072,0.700802,0.697342,2276.677490,80206.343750,57.449791,166.854523,297.039307,297.039307,294.749054,24.625000,28.538652,49.625336,49.586166,1979.638184,297.039307,-1.281497,0.433353,0.231950,0.000954,0.000266,0.000335,0,1,0,40.238338,1,0.390000,0,14,0,202
1747, 101,33998,33993,2859,0,0,3.329271,-0.553443,47.478416,1.507716,1.181724,37.758656,-124.948845,42.443729,24.963461,3.154495,-0.622283,46.977566,3.454555,0.414315,0.065595,90.349408,174.523751,-16.415417,0.134471,-0.066990,0.701767,0.696386,0.134471,-0.066990,0.701767,0.696386,2290.761475,80206.343750,55.991821,168.735657,311.123291,311.123291,305.155487,24.625000,28.538652,47.598217,47.087471,1979.638184,311.123291,-1.249488,0.424437,0.249635,0.000954,0.000266,0.000335,0,1,0,38.971439,1,0.390000,0,14,0,202
1748, 101,34053,34049,2914,0,0,3.490939,-0.305453,45.744610,1.136830,1.112252,36.050060,-125.431152,42.823734,24.042679,3.628388,-0.172324,45.196880,3.525357,0.441140,0.091905,90.207852,174.499900,-16.398547,0.134430,-0.066906,0.702651,0.695510,0.134430,-0.066906,0.702651,0.695510,2305.069092,80206.343750,54.531303,170.344299,325.430908,325.430908,313.638794,24.625000,28.538652,45.878635,45.342617,1979.638184,325.430908,-1.254312,0.428237,0.240427,0.000955,0.000267,0.000335,0,1,0,37.290054,1,0.390000,0,14,0,202
1749, 101,34126,34121,2987,0,0,3.871209,-1.175278,44.081829,0.880103,2.196110,34.402821,-122.990356,39.812920,24.627302,3.896448,-1.273286,43.966675,3.523797,0.435683,0.047488,90.029857,174.471213,-16.377668,0.134373,-0.066810,0.703759,0.694409,0.134373,-0.066810,0.703759,0.694409,2305.069092,80206.343750,52.629967,172.230957,325.430908,325.430908,324.269989,24.625000,28.538652,44.267090,44.157356,1979.638184,325.430908,-1.229904,0.398129,0.246273,0.000955,0.000268,0.000335,0,1,0,34.701725,1,0.390000,0,14,0,202
1750, 101,34181,34177,3042,0,0,2.771924,0.580651,42.854652,1.337034,0.309461,33.125198,-123.838058,39.593685,20.695704,2.661456,0.761100,42.741257,3.641992,0.410492,0.113051,89.885481,174.446829,-16.360617,0.134334,-0.066725,0.704658,0.693513,0.134334,-0.066725,0.704658,0.693513,2319.932129,80206.343750,51.741573,173.681000,340.293945,340.293945,332.907043,24.625000,28.538652,42.948132,42.830803,1979.638184,340.293945,-1.238381,0.393891,0.203595,0.000955,0.000269,0.000335,0,1,0,33.430580,1,0.390000,0,14,0,202
1751, 101,34259,34256,3120,0,0,2.803283,-0.881504,40.494507,1.508914,1.860025,30.729284,-123.808823,39.228294,21.514177,2.503492,-0.387730,40.304783,3.665936,0.367284,0.025061,89.681244,174.417268,-16.338828,0.134262,-0.066649,0.705922,0.692246,0.134262,-0.066649,0.705922,0.692246,2334.651123,80206.343750,59.786598,175.508743,355.012939,355.012939,344.216736,24.625000,28.538652,40.600990,40.384319,1979.638184,355.012939,-1.238088,0.392283,0.224788,0.000955,0.000269,0.000335,0,1,0,31.203802,1,0.390000,0,14,0,202
1752, 101,34314,34305,3175,0,0,2.799081,-1.642516,38.641567,1.574857,2.415089,29.252666,-123.472664,38.819061,21.484945,2.819420,-1.751966,38.471443,3.785246,0.561936,-0.014817,89.544661,174.392078,-16.325057,0.134253,-0.066570,0.706769,0.691391,0.134253,-0.066570,0.706769,0.691391,2334.651123,80206.343750,57.700539,176.703415,355.012939,355.012939,351.783661,24.625000,28.538652,38.777615,38.614380,1979.638184,355.012939,-1.235019,0.390675,0.221719,0.000956,0.000270,0.000335,0,1,0,30.591681,1,0.390000,0,14,0,202
1753, 101,34393,34390,3254,0,0,1.323798,-0.607911,37.865894,2.628378,1.389763,27.976086,-123.764977,39.564453,21.558023,1.282860,-0.579202,37.844372,3.684355,0.380158,0.053526,89.340862,174.357586,-16.303247,0.134213,-0.066463,0.708030,0.690118,0.134213,-0.066463,0.708030,0.690118,2349.735596,80206.343750,68.564362,178.414871,370.097412,370.097412,364.473206,24.625000,28.538652,37.893906,37.870537,1979.638184,370.097412,-1.237650,0.395645,0.215580,0.000956,0.000271,0.000335,0,1,0,28.040636,1,0.390000,0,14,0,202
1754, 101,34448,34438,3309,0,0,2.293983,-0.208244,35.243359,1.386839,1.106276,26.864811,-123.574974,39.301376,21.484945,2.283299,-0.320715,34.646793,3.737293,0.509739,0.066455,89.206355,174.334063,-16.286381,0.134177,-0.066372,0.708863,0.689278,0.134177,-0.066372,0.708863,0.689278,2365.330322,80206.343750,62.206612,179.432083,385.692139,385.692139,371.025696,24.625000,28.538652,35.318550,34.723431,1979.638184,385.692139,-1.235750,0.393014,0.214849,0.000956,0.000271,0.000335,0,1,0,27.149364,1,0.390000,0,14,0,202
1755, 101,34724,34714,3585,0,0,0.666931,-0.490944,28.625675,1.964094,1.643104,19.436155,-123.516510,39.096756,20.944168,0.440385,-0.469106,28.328230,4.039420,0.509013,-0.024635,88.454659,174.214015,-16.206277,0.133997,-0.066025,0.713482,0.684565,0.133997,-0.066025,0.713482,0.684565,2398.165283,80206.343750,22.614435,184.336349,418.527100,418.527100,418.312164,24.625000,28.538652,28.637651,28.335537,1979.638184,418.527100,-1.235165,0.390968,0.209442,0.000954,0.000275,0.000335,0,1,0,21.886349,1,0.390000,0,14,0,202
1756, 101,34782,34775,3643,0,0,0.414401,-0.724486,26.148050,1.854760,2.166409,17.167681,-123.311905,39.579071,21.221865,0.062228,-0.579202,25.752935,4.034492,0.493351,0.013357,88.301143,174.188853,-16.187489,0.133951,-0.065935,0.714423,0.683601,0.133951,-0.065935,0.714423,0.683601,2432.715332,80206.343750,75.087921,185.151001,453.077148,453.077148,427.375732,24.625000,28.538652,26.161367,25.759523,1979.638184,453.077148,-1.233119,0.395791,0.212219,0.000954,0.000275,0.000335,0,1,0,17.561819,1,0.380000,0,14,0,202
1757, 101,34838,34828,3699,0,0,0.664820,-0.891394,25.200678,2.696199,1.422031,15.813731,-123.107277,39.652149,21.850336,0.909490,-1.019586,24.948755,4.043217,0.503796,0.057857,88.151405,174.164865,-16.172751,0.133925,-0.065872,0.715337,0.682655,0.133925,-0.065872,0.715337,0.682655,2432.715332,80206.343750,95.128281,185.943939,453.077148,453.077148,439.635345,24.625000,28.538652,25.225201,24.986139,1979.638184,453.077148,-1.231073,0.396521,0.218503,0.000954,0.000276,0.000335,0,1,0,15.912955,1,0.380000,0,14,0,202
1758, 101,34896,34888,3757,0,0,0.887470,-1.008049,24.971428,1.979696,2.080184,15.041094,-123.355743,39.286758,20.154926,0.909490,-1.019586,24.948755,4.036909,0.503516,0.093931,88.007438,174.142025,-16.155230,0.133879,-0.065793,0.716216,0.681750,0.133879,-0.065793,0.716216,0.681750,2432.715332,80206.343750,60.550949,186.572144,453.077148,453.077148,448.616241,24.625000,28.538652,25.007519,24.986139,1979.638184,453.077148,-1.233557,0.392868,0.201549,0.000954,0.000276,0.000335,0,1,0,15.099041,1,0.390000,0,14,0,202
1759, 101,34951,34943,3812,0,0,0.150587,-0.771812,22.837727,2.162604,1.716721,13.009922,-123.194969,39.199062,21.090324,0.033508,-0.770673,22.785126,4.085934,0.528383,-0.022391,87.855002,174.116958,-16.137988,0.133843,-0.065712,0.717145,0.680787,0.133843,-0.065712,0.717145,0.680787,2469.292969,80206.343750,89.157799,187.235352,489.654785,489.654785,459.013367,24.625000,28.538652,22.851261,22.798180,1979.638184,489.654785,-1.231950,0.391991,0.210903,0.000955,0.000277,0.000335,0,1,0,13.510650,1,0.390000,0,14,0,202
1760, 101,35022,35018,3883,0,0,0.250112,-0.701008,22.054743,2.226536,1.636140,12.092634,-123.194969,40.046768,20.812628,0.268060,-0.694085,21.980946,4.074210,0.491148,0.121591,87.665266,174.087151,-16.116456,0.133791,-0.065619,0.718300,0.679588,0.133791,-0.065619,0.718300,0.679588,2469.292969,80206.343750,126.708618,188.102478,489.654785,489.654785,476.029785,24.625000,28.538652,22.067297,21.993534,1979.638184,489.654785,-1.231950,0.400468,0.208126,0.000955,0.000278,0.000335,0,1,0,12.278997,1,0.390000,0,14,0,202
1761, 101,35077,35074,3938,0,0,0.202370,-0.405504,19.961561,1.984481,1.310643,10.023564,-123.662674,40.163696,19.541069,0.201045,-0.397304,19.903477,4.038865,0.438892,-0.049034,87.503056,174.059257,-16.100679,0.133777,-0.065542,0.719285,0.678556,0.133777,-0.065542,0.719285,0.678556,2488.507324,80206.343750,92.967552,188.812653,508.869141,508.869141,490.675507,24.625000,28.538652,19.966705,19.908457,1979.638184,508.869141,-1.236627,0.401637,0.195411,0.000955,0.000279,0.000335,0,1,0,10.174449,1,0.390000,0,14,0,202
1762, 101,35153,35151,4014,0,0,0.513262,-0.918215,19.541752,1.796655,1.943807,9.589211,-123.896530,40.879860,18.985676,1.096175,-0.995653,18.950907,3.999701,0.483404,0.105004,87.288773,174.024655,-16.074801,0.133716,-0.065422,0.720585,0.677198,0.133716,-0.065422,0.720585,0.677198,2508.188477,80206.343750,66.277481,189.558945,528.550293,528.550293,506.381775,24.625000,28.538652,19.570044,19.008677,1979.638184,528.550293,-1.238965,0.404268,0.191903,0.000955,0.000279,0.000335,0,1,0,10.854090,1,0.390000,0,14,0,202
1763, 101,35209,35207,4070,0,0,-0.452868,-0.562320,17.930136,2.462381,1.304576,7.925980,-121.733414,39.856766,20.330313,-0.588775,-0.521760,17.811649,4.027778,0.423415,0.022459,87.129315,173.997785,-16.055369,0.133677,-0.065324,0.721551,0.676186,0.133677,-0.065324,0.721551,0.676186,2508.188477,80206.343750,77.757851,190.110977,528.550293,528.550293,518.247375,24.625000,28.538652,17.944666,17.829014,1979.638184,528.550293,-1.217334,0.398568,0.203303,0.000955,0.000280,0.000335,0,1,0,8.254479,1,0.390000,0,14,0,202
1764, 101,35287,35273,4148,0,0,-1.351758,-0.862622,16.847820,3.300963,1.343531,6.743455,-121.704185,39.637531,18.795673,-1.431251,-0.895130,16.748981,4.019755,0.414025,0.008740,86.930529,173.962459,-16.033910,0.133657,-0.065209,0.722754,0.674916,0.133657,-0.065209,0.722754,0.674916,2528.156738,80206.343750,79.716721,190.677612,548.518555,548.518555,532.245178,24.625000,28.538652,16.923960,16.833838,1979.638184,548.518555,-1.211488,0.395206,0.191903,0.000956,0.000280,0.000335,0,1,0,7.024008,1,0.390000,0,14,0,202
1765, 101,35344,35340,4205,0,0,0.210353,-0.815074,15.480140,1.659732,1.717686,5.516903,-121.192635,39.652149,19.453377,0.253700,-0.813755,15.442187,4.049829,0.453409,0.157290,86.731272,173.928568,-16.006179,0.133591,-0.065064,0.723959,0.673650,0.133591,-0.065064,0.723959,0.673650,2548.500732,80206.343750,133.283051,191.308914,568.862549,568.862549,549.403625,24.625000,28.538652,15.503010,15.465694,1979.638184,568.862549,-1.211926,0.396521,0.194534,0.000956,0.000281,0.000335,0,1,0,5.607504,1,0.390000,0,14,0,202
1766, 101,35422,35405,4283,0,0,-2.571722,-1.131403,14.234321,3.447043,1.380666,4.162765,-121.426483,40.572933,18.459515,-2.939090,-1.167977,14.202409,4.135938,0.448046,-0.087827,86.532172,173.895100,-15.983932,0.133556,-0.064956,0.725157,0.672377,0.133556,-0.064956,0.725157,0.672377,2548.500732,80206.343750,52.337421,191.703506,568.862549,568.862549,562.013184,24.625000,28.538652,14.508953,14.550286,1979.638184,568.862549,-1.214265,0.405729,0.184595,0.000957,0.000282,0.000335,0,1,0,4.687250,2,0.390000,0,14,0,202
1767, 101,35479,35470,4340,0,0,0.862073,-2.671377,11.786004,1.368019,3.396550,1.873180,-121.017242,40.339081,18.678749,0.957358,-2.714111,11.718065,4.054520,0.505634,0.001280,86.359505,173.866768,-15.967492,0.133539,-0.064884,0.726193,0.671268,0.133539,-0.064884,0.726193,0.671268,2569.004395,80206.343750,69.762863,192.047424,589.366211,589.366211,574.062073,24.625000,28.538652,12.115664,12.066316,1979.638184,589.366211,-1.210172,0.403391,0.186787,0.000957,0.000282,0.000335,0,1,0,2.420385,2,0.390000,0,14,0,202
1768, 101,35755,35750,4616,0,0,-0.635674,-1.250314,7.548074,1.770309,1.598736,-2.503683,-122.756508,40.894474,15.434083,-0.627070,-1.263713,7.481754,4.038230,0.500339,0.054208,85.558699,173.742937,-15.868812,0.133287,-0.064454,0.730981,0.666143,0.133287,-0.064454,0.730981,0.666143,2633.390869,80206.343750,31.421146,193.038269,653.752686,653.752686,640.018555,24.625000,28.538652,7.677290,7.613595,1979.638184,653.752686,-1.227565,0.408945,0.154341,0.000954,0.000285,0.000335,0,1,0,-2.330793,2,0.390000,0,14,0,202
1769, 101,35811,35793,4672,0,0,-0.627302,-1.263351,7.483545,1.761895,1.630757,-2.574011,-122.624954,41.654488,16.574100,-0.627070,-1.263713,7.481754,4.031150,0.489434,0.051239,85.385329,173.715889,-15.847661,0.133237,-0.064361,0.732013,0.665028,0.133237,-0.064361,0.732013,0.665028,2633.390869,80206.343750,46.991486,192.995270,653.752686,653.752686,650.399475,24.625000,28.538652,7.615314,7.613595,1979.638184,653.752686,-1.226250,0.416545,0.165741,0.000954,0.000286,0.000335,0,1,0,-2.567307,2,0.380000,0,14,0,202
1770, 101,35868,35854,4729,0,0,-0.789521,-1.347338,5.629205,1.738884,1.533106,-4.438866,-121.572639,41.464485,18.211048,-0.785034,-1.364236,5.519170,4.016750,0.507475,0.022677,85.219621,173.690577,-15.828052,0.133190,-0.064279,0.732997,0.663961,0.133190,-0.064279,0.732997,0.663961,2655.897949,80206.343750,156.948730,193.053589,676.259766,676.259766,663.537720,24.625000,28.538652,5.841798,5.739221,1979.638184,676.259766,-1.215726,0.414645,0.182110,0.000955,0.000287,0.000335,0,1,0,-4.151008,2,0.380000,0,14,0,202
1771, 101,35925,35915,4786,0,0,-1.264595,-0.931473,4.845185,1.995823,0.948174,-5.211848,-121.704185,40.543701,18.795673,-1.311581,-0.890343,4.767644,3.982660,0.466547,0.073797,85.087075,173.669540,-15.811222,0.133151,-0.064202,0.733783,0.663107,0.133151,-0.064202,0.733783,0.663107,2678.691895,80206.343750,230.936600,193.106644,699.053711,699.053711,675.500488,24.625000,28.538652,5.093394,5.024280,1979.638184,699.053711,-1.217042,0.405437,0.187957,0.000955,0.000287,0.000335,0,1,0,-5.013405,2,0.390000,0,14,0,202
1772, 101,35980,35974,4841,0,0,-0.874714,-1.144100,4.168612,1.607489,1.215099,-5.877872,-122.464195,40.309853,17.962584,-0.832902,-1.167977,4.107067,4.010884,0.483935,0.082109,84.919619,173.643066,-15.789379,0.133098,-0.064101,0.734776,0.662028,0.133098,-0.064101,0.734776,0.662028,2678.691895,80206.343750,136.809753,193.060349,699.053711,699.053711,688.170593,24.625000,28.538652,4.410376,4.350390,1979.638184,699.053711,-1.224642,0.403099,0.179626,0.000956,0.000288,0.000335,0,1,0,-5.720852,2,0.390000,0,14,0,202
1773, 101,36054,36051,4915,0,0,-0.926961,-1.153945,2.486202,1.474766,1.070565,-7.553556,-122.215721,40.207542,17.275650,-0.737166,-1.273286,2.149269,4.006629,0.491884,0.060584,84.708723,173.610459,-15.762359,0.133031,-0.063981,0.736023,0.660666,0.133031,-0.063981,0.736023,0.660666,2702.243408,80206.343750,94.742355,193.020096,722.605225,722.605225,705.815491,24.625000,28.538652,2.893449,2.604617,1979.638184,722.605225,-1.222157,0.402075,0.172757,0.000956,0.000288,0.000335,0,1,0,-6.770508,2,0.390000,0,14,0,202
1774, 101,36109,36110,4970,0,0,-1.182244,-1.278776,1.631293,1.657790,1.044465,-8.439049,-125.650391,40.046768,18.459515,-1.220632,-1.282860,1.570068,3.965740,0.511848,0.058732,84.538351,173.584941,-15.740830,0.132973,-0.063891,0.737028,0.659565,0.132973,-0.063891,0.737028,0.659565,2725.959473,80206.343750,112.648636,192.979767,746.321289,746.321289,721.131775,24.625000,28.538652,2.386229,2.366597,1979.638184,746.321289,-1.256504,0.400468,0.184595,0.000956,0.000289,0.000335,0,1,0,-8.271761,2,0.390000,0,14,0,202
1775, 101,36182,36170,5043,0,0,-1.248266,-1.012689,1.011658,1.586572,0.736963,-8.992891,-130.225082,39.564453,20.973400,-1.249352,-1.005226,0.995653,3.946712,0.469060,0.031663,84.366196,173.558945,-15.719581,0.132920,-0.063802,0.738041,0.658450,0.132920,-0.063802,0.738041,0.658450,2725.959473,80206.343750,68.996971,192.808456,746.321289,746.321289,734.488342,24.625000,28.538652,1.899252,1.887508,1979.638184,746.321289,-1.302251,0.395645,0.209734,0.000956,0.000290,0.000335,0,1,0,-8.862672,2,0.390000,0,14,0,202
1776, 101,36240,36236,5101,0,0,-1.889584,-0.409129,0.774938,2.004799,-0.060924,-9.239298,-130.590469,40.251389,22.025724,-1.953011,-0.349436,0.751526,3.940486,0.502846,0.051339,84.196288,173.533291,-15.698619,0.132868,-0.063714,0.739039,0.657349,0.132868,-0.063714,0.739039,0.657349,2750.093750,80206.343750,82.076508,192.656555,770.455566,770.455566,748.784790,24.625000,28.538652,2.082893,2.121591,1979.638184,770.455566,-1.305905,0.402514,0.220257,0.000956,0.000290,0.000335,0,1,0,-9.185405,2,0.390000,0,14,0,202
1777, 101,36312,36306,5173,0,0,-1.091528,-0.752300,-0.879759,1.146572,0.320652,-10.856424,-130.166611,40.748318,24.758842,-1.062668,-0.502613,-1.249352,3.929820,0.506194,0.026351,83.985802,173.503033,-15.672427,0.132794,-0.063612,0.740273,0.655984,0.132794,-0.063612,0.740273,0.655984,2774.497314,80206.343750,119.043594,192.408630,794.859131,794.859131,765.224121,24.625000,28.538652,1.591027,1.715449,1979.638184,794.859131,-1.301666,0.407483,0.247588,0.000957,0.000291,0.000335,0,1,0,-10.077533,2,0.390000,0,14,0,202
1778, 101,36367,36356,5228,0,0,-2.383309,-0.600830,-1.335205,2.003642,-0.152008,-11.320582,-128.471207,40.660625,25.445778,-2.513065,-0.603136,-1.354662,3.930938,0.530955,0.028196,83.839780,173.482024,-15.655108,0.132748,-0.063547,0.741127,0.655034,0.132748,-0.063547,0.741127,0.655034,2774.497314,80206.343750,103.708641,192.215317,794.859131,794.859131,776.721924,24.625000,28.538652,2.797129,2.917941,1979.638184,794.859131,-1.284712,0.406606,0.254458,0.000957,0.000291,0.000335,0,1,0,-11.079598,2,0.390000,0,14,0,202
1779, 101,36448,36447,5309,0,0,-1.149558,-1.800063,-2.141262,1.337032,1.157357,-12.254484,-125.986549,42.823734,23.151125,-1.115322,-1.833341,-2.163630,3.868629,0.520849,0.138637,83.589563,173.447244,-15.620241,0.132632,-0.063409,0.742590,0.653413,0.132632,-0.063409,0.742590,0.653413,2799.123535,80206.343750,111.868881,191.916107,819.485352,819.485352,798.794373,24.625000,28.538652,3.024354,3.047355,1979.638184,819.485352,-1.259866,0.428237,0.231511,0.000958,0.000291,0.000335,0,1,0,-12.190273,2,0.390000,0,14,0,202
1780, 101,36503,36490,5364,0,0,-1.642282,-1.399626,-3.681152,1.523662,0.456328,-13.760436,-122.873428,45.396084,23.238819,-1.689737,-1.421677,-3.791139,3.788724,0.487628,0.056678,83.428971,173.423189,-15.599918,0.132581,-0.063324,0.743526,0.652366,0.132581,-0.063324,0.743526,0.652366,2824.104004,80206.343750,108.071587,191.772263,844.465820,844.465820,815.224854,24.625000,28.538652,4.266957,4.387381,1979.638184,844.465820,-1.228734,0.453961,0.232388,0.000957,0.000292,0.000335,0,1,0,-13.461211,2,0.390000,0,14,0,202
1781, 101,36779,36774,5640,0,0,-1.770049,-0.542707,-5.887755,1.152483,-0.721798,-15.821304,-101.110794,51.505409,16.632563,-1.766326,-0.526547,-5.906900,3.667666,0.439478,0.038494,82.693442,173.312649,-15.507104,0.132359,-0.062932,0.747794,0.647553,0.132359,-0.062932,0.747794,0.647553,2874.637939,80206.343750,30.678446,190.254791,894.999756,894.999756,888.424805,24.625000,28.538652,6.171975,6.187780,1979.638184,894.999756,-1.011108,0.515054,0.166326,0.000954,0.000295,0.000335,0,1,0,-15.779541,2,0.390000,0,14,0,202
1782, 101,36835,36816,5696,0,0,-1.783850,-1.842489,-6.437813,1.443732,0.424066,-16.565475,-97.413040,51.417713,20.549545,-1.785473,-1.972158,-6.490889,3.642904,0.490931,0.015558,82.535637,173.290191,-15.487645,0.132307,-0.062858,0.748705,0.646518,0.132307,-0.062858,0.748705,0.646518,2900.266113,80206.343750,62.804977,189.735153,920.627930,920.627930,901.514587,24.625000,28.538652,6.929814,7.014910,1979.638184,920.627930,-0.974130,0.514177,0.205495,0.000955,0.000295,0.000335,0,1,0,-16.377384,2,0.390000,0,14,0,202
1783, 101,36892,36878,5753,0,0,-1.727126,-0.827792,-7.089878,1.041062,-0.628176,-17.043661,-98.757675,52.338497,19.321835,-1.440824,-0.215406,-7.309430,3.594500,0.363589,0.097438,82.384628,173.266682,-15.468181,0.132266,-0.062770,0.749576,0.645524,0.132266,-0.062770,0.749576,0.645524,2925.902344,80206.343750,117.916397,189.251633,946.264160,946.264160,915.328369,24.625000,28.538652,7.344016,7.453197,1979.638184,946.264160,-0.987577,0.523385,0.193218,0.000955,0.000296,0.000335,0,1,0,-16.814564,2,0.380000,0,14,0,202
1784, 101,36948,36940,5809,0,0,-1.466591,-0.270520,-7.289670,0.617956,-1.126827,-17.129831,-101.563873,52.060802,15.857937,-1.440824,-0.215406,-7.309430,3.587430,0.338751,0.126568,82.263215,173.245385,-15.449744,0.132233,-0.062667,0.750278,0.644725,0.132233,-0.062667,0.750278,0.644725,2925.902344,80206.343750,107.117149,188.852295,946.264160,946.264160,926.471680,24.625000,28.538652,7.440656,7.453197,1979.638184,946.264160,-1.015639,0.520608,0.158579,0.000956,0.000296,0.000335,0,1,0,-17.108183,2,0.390000,0,14,0,202
1785, 101,37006,37001,5867,0,0,-2.597463,-0.714782,-8.470737,1.675049,-1.200854,-18.447575,-104.253136,51.242329,15.419468,-2.379035,-0.402090,-8.659305,3.503457,0.362060,0.091170,82.106435,173.219376,-15.428904,0.132199,-0.062563,0.751181,0.643690,0.132199,-0.062563,0.751181,0.643690,2951.826172,80206.343750,105.842911,188.320557,972.187988,972.187988,940.811768,24.625000,28.538652,8.888820,8.989162,1979.638184,972.187988,-1.042531,0.512423,0.154195,0.000956,0.000297,0.000335,0,1,0,-18.164370,2,0.390000,0,14,0,202
1786, 101,37080,37077,5941,0,0,-2.541976,-0.496099,-9.089020,1.486447,-1.506217,-19.011854,-104.662384,51.183861,12.920199,-2.556146,-0.502613,-9.133198,3.496388,0.419943,0.010529,81.921699,173.189883,-15.403402,0.132146,-0.062440,0.752242,0.642472,0.132146,-0.062440,0.752242,0.642472,2951.826172,80206.343750,112.966148,187.666199,972.187988,972.187988,958.963379,24.625000,28.538652,9.450822,9.497463,1979.638184,972.187988,-1.046624,0.511839,0.129202,0.000956,0.000298,0.000335,0,1,0,-18.895025,2,0.390000,0,14,0,202
1787, 101,37134,37120,5995,0,0,-3.170560,-0.679424,-9.579128,2.074583,-1.599818,-19.568827,-108.140900,51.607716,12.817889,-3.188003,-0.684511,-9.592729,3.424669,0.392973,0.065602,81.775191,173.167343,-15.383541,0.132100,-0.062350,0.753083,0.641505,0.132100,-0.062350,0.753083,0.641505,2977.770508,80206.343750,106.930153,187.200714,998.132324,998.132324,975.598450,24.625000,28.538652,10.113050,10.131750,1979.638184,998.132324,-1.081409,0.516077,0.128179,0.000956,0.000298,0.000335,0,1,0,-19.529102,2,0.390000,0,14,0,202
1788, 101,37209,37198,6070,0,0,-2.780013,-0.766668,-10.131197,1.653792,-1.513124,-20.093369,-106.416252,51.490791,16.647179,-2.900795,-0.794607,-10.215012,3.388125,0.401845,0.046016,81.621191,173.144162,-15.362072,0.132047,-0.062254,0.753964,0.640489,0.132047,-0.062254,0.753964,0.640489,3003.563965,80206.343750,105.310081,186.589386,1023.925781,1023.925781,990.803162,24.625000,28.538652,10.533631,10.648590,1979.638184,1023.925781,-1.064162,0.514908,0.166472,0.000956,0.000299,0.000335,0,1,0,-19.867424,2,0.390000,0,14,0,202
1789, 101,37266,37263,6127,0,0,-2.618752,-0.715445,-10.622211,1.422876,-1.616795,-20.551001,-107.453964,51.373871,15.551008,-2.594441,-0.708445,-10.664970,3.357087,0.416286,0.061822,81.461911,173.120734,-15.340695,0.131993,-0.062163,0.754874,0.639436,0.131993,-0.062163,0.754874,0.639436,3003.563965,80206.343750,105.290230,185.939285,1023.925781,1023.925781,1006.538147,24.625000,28.538652,10.963626,10.998846,1979.638184,1023.925781,-1.074540,0.513739,0.155510,0.000957,0.000299,0.000335,0,1,0,-20.451250,2,0.390000,0,14,0,202
1790, 101,37339,37336,6200,0,0,-3.113459,-0.743482,-11.352060,1.811152,-1.870166,-21.304819,-103.668526,52.133877,12.700965,-3.164069,-0.746739,-11.421283,3.312403,0.381883,0.034345,81.284230,173.094397,-15.316771,0.131935,-0.062061,0.755887,0.638260,0.131935,-0.062061,0.755887,0.638260,3029.316162,80206.343750,90.219620,185.175415,1049.677979,1049.677979,1023.719299,24.625000,28.538652,11.794730,11.874959,1979.638184,1049.677979,-1.036685,0.521339,0.127010,0.000957,0.000299,0.000335,0,1,0,-21.119217,2,0.390000,0,14,0,202
1791, 101,37394,37388,6255,0,0,-2.623729,-0.850990,-11.946482,1.294839,-1.748260,-21.867214,-101.593102,52.221573,15.945630,-2.575294,-0.861622,-12.005271,3.266376,0.405834,0.072420,81.151554,173.075190,-15.298084,0.131884,-0.061981,0.756643,0.637383,0.131884,-0.061981,0.756643,0.637383,3055.066895,80206.343750,160.087845,184.711121,1075.428711,1075.428711,1039.515747,24.625000,28.538652,12.260774,12.308577,1979.638184,1075.428711,-1.015931,0.522216,0.159456,0.000958,0.000300,0.000335,0,1,0,-21.723795,2,0.390000,0,14,0,202
1792, 101,37473,37454,6334,0,0,-2.872023,-0.205395,-12.384986,1.304217,-2.539069,-22.191751,-105.743935,50.482315,11.254020,-2.828994,-0.186685,-12.426510,3.238567,0.402101,0.066480,80.949476,173.044946,-15.271441,0.131824,-0.061866,0.757791,0.636041,0.131824,-0.061866,0.757791,0.636041,3055.066895,80206.343750,115.893532,183.796265,1075.428711,1075.428711,1060.347778,24.625000,28.538652,12.715289,12.745831,1979.638184,1075.428711,-1.057439,0.504823,0.112540,0.000958,0.000300,0.000335,0,1,0,-22.105505,2,0.390000,0,14,0,202
1793, 101,37530,37517,6391,0,0,-2.154811,-1.039521,-13.226486,0.729124,-1.710216,-23.112923,-105.261627,50.979244,11.268635,-2.134909,-1.062668,-13.249838,3.193824,0.403893,0.050529,80.817558,173.026368,-15.253286,0.131773,-0.061793,0.758539,0.635167,0.131773,-0.061793,0.758539,0.635167,3081.056641,80206.343750,105.425514,183.307220,1101.418457,1101.418457,1077.147339,24.625000,28.538652,13.441122,13.462737,1979.638184,1101.418457,-1.052616,0.509792,0.112686,0.000957,0.000301,0.000335,0,1,0,-23.046856,2,0.390000,0,14,0,202
1794, 101,37803,37792,6664,0,0,-3.970294,-3.325199,-16.139194,1.903507,-0.910711,-26.472525,-105.568550,50.526161,11.707104,-4.265031,-3.508718,-16.102764,3.105453,0.489835,-0.118662,80.211761,172.943381,-15.173171,0.131548,-0.061490,0.761957,0.631138,0.131548,-0.061490,0.761957,0.631138,3158.371094,80206.343750,67.181541,180.221313,1178.732910,1178.732910,1149.944336,24.625000,28.538652,16.949743,17.023531,1979.638184,1178.732910,-1.055686,0.505262,0.117071,0.000954,0.000303,0.000335,0,1,0,-26.304554,2,0.390000,0,14,0,202
1795, 101,37860,37855,6721,0,0,-3.695683,-2.865610,-16.146254,2.295327,-1.080810,-26.418299,-105.422386,50.292313,11.707104,-3.489571,-2.613588,-16.160208,2.979860,0.345951,0.069945,80.074993,172.926634,-15.158647,0.131504,-0.061456,0.762723,0.630225,0.131504,-0.061456,0.762723,0.630225,3158.371094,80206.343750,84.354874,179.254150,1178.732910,1178.732910,1164.063354,24.625000,28.538652,16.809856,16.737989,1979.638184,1178.732910,-1.054224,0.502923,0.117071,0.000955,0.000304,0.000335,0,1,0,-26.537151,2,0.380000,0,14,0,202
1796, 101,37917,37911,6778,0,0,-2.715415,-1.945216,-16.895992,1.019483,-1.841465,-26.894905,-105.378548,50.803860,11.444022,-2.632735,-1.871635,-16.969175,2.955539,0.371606,-0.042265,79.954823,172.908643,-15.142330,0.131468,-0.061385,0.763398,0.629421,0.131468,-0.061385,0.763398,0.629421,3184.214355,80206.343750,94.451874,178.442215,1204.576172,1204.576172,1178.479248,24.625000,28.538652,17.223003,17.273888,1979.638184,1204.576172,-1.053785,0.508039,0.114440,0.000955,0.000304,0.000335,0,1,0,-26.764399,2,0.380000,0,14,0,202
1797, 101,37973,37973,6834,0,0,-3.392908,-1.930250,-16.880079,1.661102,-2.077654,-26.921131,-105.495468,50.730782,11.297866,-3.465637,-1.933864,-16.873438,2.934297,0.363664,-0.059620,79.830267,172.891294,-15.129344,0.131444,-0.061344,0.764095,0.628585,0.131444,-0.061344,0.764095,0.628585,3184.214355,80206.343750,97.700867,177.516815,1204.576172,1204.576172,1191.411865,24.625000,28.538652,17.325552,17.333879,1979.638184,1204.576172,-1.054955,0.507308,0.112979,0.000956,0.000305,0.000335,0,1,0,-26.923897,2,0.390000,0,14,0,202
1798, 101,38028,38015,6889,0,0,-2.901752,-1.376201,-17.248232,0.995922,-2.565182,-27.128538,-105.217766,50.409241,11.429407,-2.848140,-1.321154,-17.285103,2.852206,0.321728,0.111911,79.707570,172.873372,-15.113049,0.131407,-0.061276,0.764782,0.627763,0.131407,-0.061276,0.764782,0.627763,3210.526367,80206.343750,110.192451,176.645981,1230.888184,1230.888184,1205.670776,24.625000,28.538652,17.544674,17.567928,1979.638184,1230.888184,-1.052178,0.504092,0.114294,0.000956,0.000305,0.000335,0,1,0,-27.075756,2,0.390000,0,14,0,202
1799, 101,38099,38094,6960,0,0,-2.369861,-1.322641,-17.223560,0.469498,-2.501754,-27.050274,-104.837761,50.511543,11.970184,-2.355101,-1.321154,-17.222876,2.839788,0.325551,0.036725,79.578029,172.853988,-15.094858,0.131366,-0.061194,0.765507,0.626895,0.131366,-0.061194,0.765507,0.626895,3210.526367,80206.343750,136.579254,175.620728,1230.888184,1230.888184,1218.781006,24.625000,28.538652,17.436073,17.433285,1979.638184,1230.888184,-1.048378,0.505115,0.119702,0.000956,0.000306,0.000335,0,1,0,-27.057467,2,0.390000,0,14,0,202
1800, 101,38154,38151,7015,0,0,-3.319914,-0.704254,-17.070936,1.233393,-3.356800,-26.834652,-104.954697,50.438469,11.999415,-3.288526,-0.641430,-17.127138,2.811398,0.343625,0.042762,79.458009,172.835833,-15.079970,0.131340,-0.061131,0.766177,0.626088,0.131340,-0.061131,0.766177,0.626088,3236.783203,80206.343750,127.080505,174.835815,1257.145020,1257.145020,1234.713257,24.625000,28.538652,17.405018,17.451782,1979.638184,1257.145020,-1.049547,0.504385,0.119994,0.000956,0.000306,0.000335,0,1,0,-26.746571,2,0.290000,0,14,0,202
1801, 101,38214,38202,7075,0,0,-2.612521,-1.276419,-17.259651,0.675355,-2.685464,-27.083426,-104.662384,50.789242,11.809412,-2.321594,-1.546134,-17.318609,2.788384,0.350599,0.085675,79.353910,172.821585,-15.064325,0.131293,-0.061067,0.766758,0.625392,0.131293,-0.061067,0.766758,0.625392,3262.606934,80206.343750,115.878563,174.132721,1282.968750,1282.968750,1248.254272,24.625000,28.538652,17.502859,17.541794,1979.638184,1282.968750,-1.046624,0.507892,0.118094,0.000956,0.000307,0.000335,0,1,0,-26.866283,2,0.290000,0,14,0,202
1802, 101,38270,38266,7131,0,0,-2.908794,-0.210277,-17.216831,0.683967,-3.803174,-26.830170,-104.764687,50.526161,12.072494,-2.958237,-0.086162,-17.208515,2.714234,0.288941,0.007198,79.223528,172.802379,-15.045705,0.131249,-0.060984,0.767485,0.624517,0.131249,-0.060984,0.767485,0.624517,3287.909668,80206.343750,157.496597,173.361725,1308.271484,1308.271484,1268.550293,24.625000,28.538652,17.462090,17.461145,1979.638184,1308.271484,-1.047647,0.505262,0.120725,0.000956,0.000307,0.000335,0,1,0,-26.912609,2,0.290000,0,14,0,202
1803, 101,38331,38326,7192,0,0,-2.747815,-0.485908,-17.143398,0.604624,-3.520342,-26.798775,-105.027771,50.467701,10.932476,-2.728471,-0.521760,-17.136711,2.690569,0.343803,0.017592,79.102190,172.784689,-15.030038,0.131216,-0.060920,0.768160,0.623700,0.131216,-0.060920,0.768160,0.623700,3287.909668,80206.343750,138.822220,172.540329,1308.271484,1308.271484,1285.193726,24.625000,28.538652,17.369015,17.360405,1979.638184,1308.271484,-1.050278,0.504677,0.109325,0.000957,0.000308,0.000335,0,1,0,-26.801733,2,0.290000,0,14,0,202
1804, 101,38386,38371,7247,0,0,-2.659130,-1.051753,-17.313879,0.637279,-3.055505,-27.057247,-105.247009,50.043846,11.034785,-2.656669,-1.067454,-17.318609,2.662844,0.319420,0.029512,79.010952,172.771821,-15.017648,0.131186,-0.060870,0.768666,0.623087,0.131186,-0.060870,0.768666,0.623087,3287.909668,80206.343750,47.616020,171.776520,1308.271484,1308.271484,1294.360107,24.625000,28.538652,17.548435,17.553677,1979.638184,1308.271484,-1.052470,0.500438,0.110348,0.000957,0.000308,0.000335,0,1,0,-26.991543,2,0.290000,0,14,0,202
1805, 101,38444,38431,7305,0,0,-2.587844,-0.684106,-17.193298,0.574037,-3.227984,-26.925007,-104.852379,50.833088,11.926337,-2.565720,-0.617496,-17.184580,2.582732,0.306823,0.027646,78.905057,172.755524,-15.003486,0.131160,-0.060806,0.769254,0.622372,0.131160,-0.060806,0.769254,0.622372,3337.575928,80206.343750,111.640503,170.996918,1357.937744,1357.937744,1308.123169,24.625000,28.538652,17.400415,17.386028,1979.638184,1357.937744,-1.048524,0.508331,0.119263,0.000957,0.000308,0.000335,0,1,0,-26.963726,2,0.290000,0,14,0,202
1806, 101,38499,38487,7360,0,0,-2.556265,-0.827041,-17.164711,0.449480,-3.433014,-26.840101,-104.823151,51.110786,11.897106,-2.551359,-0.914277,-17.155861,2.546677,0.323813,0.026328,78.812672,172.742669,-14.990732,0.131127,-0.060755,0.769766,0.621751,0.131127,-0.060755,0.769766,0.621751,3337.575928,80206.343750,138.807648,170.535645,1357.937744,1357.937744,1326.060181,24.625000,28.538652,17.373711,17.368618,1979.638184,1357.937744,-1.048231,0.511108,0.118971,0.000956,0.000309,0.000335,0,1,0,-26.847576,2,0.290000,0,14,0,202
1807, 101,38558,38552,7419,0,0,-2.673460,-0.437120,-16.907806,0.533299,-3.616575,-26.529669,-104.998543,50.409241,11.794797,-2.685390,-0.392517,-16.883011,2.438392,0.258110,0.048249,78.699960,172.726496,-14.974915,0.131089,-0.060688,0.770391,0.620992,0.131089,-0.060688,0.770391,0.620992,3361.754883,80206.343750,110.468346,169.858307,1382.116699,1382.116699,1346.968262,24.625000,28.538652,17.123446,17.099751,1979.638184,1382.116699,-1.049985,0.504092,0.117948,0.000956,0.000309,0.000335,0,1,0,-26.616941,2,0.290000,0,14,0,202
1808, 101,38806,38798,7667,0,0,-2.733147,-0.934082,-16.251955,0.785431,-3.138058,-26.013195,-105.320084,50.248466,11.254020,-2.733258,-0.923851,-16.241583,2.262215,0.224152,0.039485,78.274398,172.663808,-14.917481,0.130970,-0.060442,0.772740,0.618115,0.130970,-0.060442,0.772740,0.618115,3409.018555,80206.343750,37.793827,166.506027,1429.380371,1429.380371,1418.200073,24.625000,28.538652,16.506624,16.495853,1979.638184,1429.380371,-1.053201,0.502485,0.112540,0.000954,0.000312,0.000335,0,1,0,-26.110638,2,0.290000,0,14,0,202
1809, 101,38861,38854,7722,0,0,-2.414926,-0.787391,-16.249218,0.437010,-3.225577,-25.922216,-105.466232,50.146156,11.341713,-2.278512,-0.727592,-16.251158,2.237954,0.211255,0.062923,78.198699,172.651418,-14.906160,0.130951,-0.060384,0.773158,0.617602,0.130951,-0.060384,0.773158,0.617602,3409.018555,80206.343750,18.518974,165.686569,1429.380371,1429.380371,1425.722656,24.625000,28.538652,16.446548,16.426233,1979.638184,1429.380371,-1.054662,0.501462,0.113417,0.000954,0.000313,0.000335,0,1,0,-25.973354,2,0.290000,0,14,0,202
1810, 101,38916,38906,7777,0,0,-2.382083,-0.523145,-15.976344,0.367024,-3.419725,-25.610048,-105.510078,50.760014,10.640163,-2.383822,-0.516973,-15.968735,2.178324,0.245292,0.019493,78.119209,172.638919,-14.894423,0.130929,-0.060327,0.773596,0.617064,0.130929,-0.060327,0.773596,0.617064,3431.907959,80206.343750,60.143078,164.878937,1452.269775,1452.269775,1435.684204,24.625000,28.538652,16.161423,16.153957,1979.638184,1452.269775,-1.055101,0.507600,0.106402,0.000954,0.000314,0.000335,0,1,0,-25.686369,2,0.290000,0,14,0,202
1811, 101,38970,38963,7831,0,0,-2.421036,-0.857141,-15.936338,0.485629,-3.160970,-25.624058,-105.407776,50.160770,10.830167,-2.422117,-0.866409,-15.935228,2.131276,0.248366,0.039927,78.041250,172.627594,-14.883302,0.130904,-0.060278,0.774024,0.616536,0.130904,-0.060278,0.774024,0.616536,3454.372070,80206.343750,113.698769,164.195541,1474.733887,1474.733887,1448.953125,24.625000,28.538652,16.141964,16.141525,1979.638184,1474.733887,-1.053493,0.502046,0.105086,0.000954,0.000314,0.000335,0,1,0,-25.615490,2,0.290000,0,14,0,202
1812, 101,39026,39015,7887,0,0,-2.380169,-0.842871,-15.786216,0.468742,-3.133776,-25.480959,-105.232391,49.780766,11.020169,-2.379035,-0.842475,-15.782050,2.086991,0.220464,0.057581,77.967026,172.616516,-14.872044,0.130878,-0.060226,0.774433,0.616034,0.130878,-0.060226,0.774433,0.616034,3454.372070,80206.343750,73.125748,163.488022,1474.733887,1474.733887,1460.348999,24.625000,28.538652,15.986877,15.982574,1979.638184,1474.733887,-1.052324,0.497808,0.110202,0.000955,0.000315,0.000335,0,1,0,-25.518465,2,0.290000,0,14,0,202
1813, 101,39082,39070,7943,0,0,-2.122900,-0.628239,-15.763534,0.185049,-3.268372,-25.383326,-104.983925,50.292313,11.064016,-2.115762,-0.622283,-15.762904,2.069211,0.202608,0.057539,77.895193,172.605123,-14.860817,0.130856,-0.060170,0.774828,0.615547,0.130856,-0.060170,0.774828,0.615547,3454.372070,80206.343750,25.082130,162.701324,1474.733887,1474.733887,1468.743652,24.625000,28.538652,15.918241,15.916432,1979.638184,1474.733887,-1.049839,0.502923,0.110640,0.000955,0.000315,0.000335,0,1,0,-25.406321,2,0.290000,0,14,0,202
1814, 101,39137,39123,7998,0,0,-2.190475,-0.375594,-15.683742,0.172931,-3.539317,-25.239988,-105.232391,50.496929,11.370944,-2.192350,-0.368583,-15.681527,2.034008,0.245659,0.022297,77.805485,172.591982,-14.847767,0.130827,-0.060112,0.775320,0.614939,0.130827,-0.060112,0.775320,0.614939,3476.354736,80206.343750,77.377815,161.806168,1496.716553,1496.716553,1481.975708,24.625000,28.538652,15.840423,15.838326,1979.638184,1496.716553,-1.052324,0.504969,0.113709,0.000955,0.000316,0.000335,0,1,0,-25.250921,2,0.290000,0,14,0,202
1815, 101,39191,39179,8052,0,0,-2.262163,-0.531786,-15.513915,0.292691,-3.403254,-25.121693,-105.480850,50.453083,11.370944,-2.264152,-0.536121,-15.509203,1.995743,0.263927,0.035338,77.745735,172.584250,-14.839085,0.130800,-0.060079,0.775647,0.614535,0.130800,-0.060079,0.775647,0.614535,3476.354736,80206.343750,63.911289,161.131638,1496.716553,1496.716553,1488.746826,24.625000,28.538652,15.686993,15.682767,1979.638184,1496.716553,-1.054808,0.504531,0.113709,0.000955,0.000316,0.000335,0,1,0,-25.152624,2,0.290000,0,14,0,202
1816, 101,39247,39235,8108,0,0,-1.774486,-0.460779,-16.247803,-0.100387,-3.095604,-25.125589,-105.232391,50.716167,11.692488,-1.766326,-0.344649,-16.562298,1.871489,0.203960,0.025985,77.669414,172.573171,-14.827562,0.130773,-0.060028,0.776065,0.614018,0.130773,-0.060028,0.776065,0.614018,3519.300781,80206.343750,115.717972,160.329514,1539.662598,1539.662598,1499.920410,24.625000,28.538652,16.350908,16.659784,1979.638184,1539.662598,-1.052324,0.507162,0.116925,0.000955,0.000317,0.000335,0,1,0,-25.122700,2,0.280000,0,14,0,202
1817, 101,39301,39301,8162,0,0,-1.683292,-0.623161,-16.369804,-0.347567,-3.370285,-25.916603,-104.896225,50.657700,11.429407,-1.646656,-0.727592,-16.327744,1.833040,0.229238,0.014132,77.589351,172.561697,-14.816379,0.130747,-0.059980,0.776503,0.613474,0.130747,-0.059980,0.776503,0.613474,3519.300781,80206.343750,152.293991,159.591461,1539.662598,1539.662598,1515.969604,24.625000,28.538652,16.467918,16.426687,1979.638184,1539.662598,-1.048962,0.506577,0.114294,0.000956,0.000317,0.000335,0,1,0,-25.953901,2,0.290000,0,14,0,202
1818, 101,39355,39344,8216,0,0,-1.856732,-0.833672,-16.158995,-0.160446,-3.218459,-25.801168,-105.056999,50.175388,10.976323,-1.876422,-0.847262,-16.141058,1.793706,0.209041,0.005495,77.529450,172.553733,-14.808275,0.130726,-0.059950,0.776830,0.613068,0.130726,-0.059950,0.776830,0.613068,3519.300781,80206.343750,81.585655,158.890259,1539.662598,1539.662598,1524.707275,24.625000,28.538652,16.286669,16.271833,1979.638184,1539.662598,-1.050570,0.501754,0.109763,0.000956,0.000318,0.000335,0,1,0,-25.902205,2,0.290000,0,14,0,202
1819, 101,39412,39389,8273,0,0,-1.780829,-0.688554,-15.924874,-0.185897,-3.281554,-25.499533,-105.232391,50.380005,11.268635,-1.742392,-0.622283,-15.829918,1.718251,0.176416,0.041407,77.439503,172.540482,-14.795670,0.130700,-0.059895,0.777321,0.612456,0.130700,-0.059895,0.777321,0.612456,3540.512207,80206.343750,65.950256,157.777634,1560.874023,1560.874023,1537.246094,24.625000,28.538652,16.038923,15.937675,1979.638184,1560.874023,-1.052324,0.503800,0.112686,0.000957,0.000318,0.000335,0,1,0,-25.759615,2,0.290000,0,14,0,202
1820, 101,39467,39466,8328,0,0,-1.617106,-0.820091,-15.597259,-0.269866,-3.059540,-25.199976,-105.480850,50.526161,11.590178,-1.603575,-0.837689,-15.571431,1.659556,0.173283,0.047374,77.374705,172.530319,-14.785331,0.130679,-0.059843,0.777675,0.612016,0.130679,-0.059843,0.777675,0.612016,3561.270508,80206.343750,121.018555,157.179565,1581.632324,1581.632324,1552.085693,24.625000,28.538652,15.702294,15.676181,1979.638184,1581.632324,-1.054808,0.505262,0.115902,0.000957,0.000319,0.000335,0,1,0,-25.256920,2,0.290000,4,14,4,202
1821, 101,39520,39504,8381,0,0,-1.843519,-0.610702,-15.406601,-0.127372,-3.234617,-25.024405,-105.627014,50.803860,11.604795,-1.866848,-0.588775,-15.389533,1.626943,0.171446,0.019755,77.328396,172.523215,-14.778216,0.130664,-0.059809,0.777928,0.611701,0.130664,-0.059809,0.777928,0.611701,3561.270508,80206.343750,107.718811,156.680099,1581.632324,1581.632324,1561.215210,24.625000,28.538652,15.528519,15.513527,1979.638184,1581.632324,-1.056270,0.508039,0.116048,0.000957,0.000319,0.000335,0,1,0,-25.183945,2,0.290000,4,14,4,202
1822, 101,39576,39575,8437,0,0,-2.019918,-0.892108,-15.110541,0.192974,-3.029500,-24.767271,-105.086227,50.000000,11.487869,-2.024813,-0.899917,-15.102325,1.561341,0.202842,0.063255,77.251468,172.512642,-14.765918,0.130629,-0.059756,0.778347,0.611180,0.130629,-0.059756,0.778347,0.611180,3581.827881,80206.343750,89.912399,155.917435,1602.189697,1602.189697,1579.168701,24.625000,28.538652,15.271030,15.264009,1979.638184,1602.189697,-1.050862,0.500000,0.114879,0.000956,0.000319,0.000335,0,1,0,-24.783072,2,0.290000,4,14,4,202
1823, 101,39808,39808,8669,0,0,-1.725672,-0.843533,-14.143129,0.015526,-2.841683,-23.788216,-105.130074,50.482315,11.838644,-1.713671,-0.866409,-14.125821,1.337630,0.177521,0.054833,77.001579,172.477043,-14.725070,0.130521,-0.059569,0.779709,0.609484,0.130521,-0.059569,0.779709,0.609484,3641.106445,80206.343750,35.863476,153.285355,1661.468262,1661.468262,1650.228760,24.625000,28.538652,14.272967,14.255741,1979.638184,1661.468262,-1.051008,0.505408,0.108009,0.000954,0.000322,0.000335,0,1,0,-23.819296,2,0.290000,4,14,4,202
1824, 101,39861,39849,8722,0,0,-1.587672,-0.691552,-14.026100,-0.105849,-2.906457,-23.661104,-104.983925,50.014614,11.590178,-1.574854,-0.674938,-14.015724,1.281472,0.128612,0.031705,76.961554,172.471689,-14.718351,0.130500,-0.059540,0.779926,0.609212,0.130500,-0.059540,0.779926,0.609212,3660.072754,80206.343750,51.782234,152.672165,1680.434570,1680.434570,1657.995361,24.625000,28.538652,14.132602,14.120065,1979.638184,1680.434570,-1.049839,0.500146,0.115902,0.000954,0.000323,0.000335,0,1,0,-23.779064,2,0.290000,4,14,4,202
1825, 101,39917,39905,8778,0,0,-1.745083,-0.418383,-13.819984,-0.061377,-3.135779,-23.423317,-105.305466,50.365387,11.590178,-1.761539,-0.392517,-13.800318,1.254971,0.136087,0.019191,76.915197,172.464476,-14.711254,0.130487,-0.059505,0.780178,0.608896,0.130487,-0.059505,0.780178,0.608896,3660.072754,80206.343750,68.622200,151.974976,1680.434570,1680.434570,1668.345825,24.625000,28.538652,13.936008,13.917826,1979.638184,1680.434570,-1.053055,0.503654,0.115902,0.000955,0.000323,0.000335,0,1,0,-23.614277,2,0.290000,4,14,4,202
