index, checksum,uptime mp,uptime nav,missiontime,  errorflag mp,errorflag NAV,  accel x, accel y, accel z, accelworld x, accelworld y, accelworld z, mag x, mag y, mag z, accelhighg x, accelhighg y, accelhighg z, gyro x, gyro y, gyro z, euler x, euler y, euler z, quat w, quat x, quat y, quat z,quatadj w, quatadj x, quatadj y, quatadj z, altitude, presusre, verticalvel,filtered vvel, maxalt, altitudeagl, filtered alt, imutemp, barotemp,abs imu accel,abs adxl accel, pad altitude, baro max alt, mag raw x, mag raw y, mag raw z, cov x, cov y, cov z, sats, status, met, filtered accel ,state,battstate,pyros fired,pyros cont,pyros state, checksum2
1295, 101,14886,14865,-10533,0,0,1.590262,-9.679862,0.063074,0.038350,0.047554,0.008633,-51.330017,134.799774,16.179480,1.441578,-9.610518,-5.766310,-0.212527,1.109642,-0.775922,0.020602,152.185658,170.729376,-0.019249,-0.967515,-0.078401,-0.239577,-0.019249,-0.967515,-0.078401,-0.239577,1979.560303,80201.968750,-2.144553,-0.412680,1.269287,0.578613,0.541617,26.000000,31.405256,9.809824,11.300023,1978.981689,1.269287,-0.513300,1.347998,0.161795,0.000953,0.000031,0.000335,0,1,0,0.040878,0,0.380000,0,14,0,202
1296, 101,14964,14933,-10455,0,0,1.545294,-9.713319,0.053602,-0.016658,0.038779,0.006209,-51.081554,134.638992,15.463315,1.922103,-10.571568,-5.285784,-0.655343,0.884308,-0.896660,0.319584,152.042538,170.598414,-0.017099,-0.967173,-0.078854,-0.240970,-0.017099,-0.967173,-0.078854,-0.240970,1979.385376,80206.710938,-1.301342,-0.411185,1.269287,0.403687,0.515753,26.000000,31.414352,9.835617,11.974642,1978.981689,1.269287,-0.510816,1.346390,0.154633,0.000953,0.000032,0.000335,0,1,0,0.034762,0,0.380000,0,14,0,202
1297, 101,15044,15037,-10375,0,0,1.552850,-9.693015,0.028154,-0.035074,-0.010838,0.015585,-51.286171,134.419769,16.281790,0.480526,-9.610518,-4.324733,1.621002,-0.986851,1.295075,0.357966,152.040161,170.579385,-0.017685,-0.967278,-0.077498,-0.240947,-0.016817,-0.967160,-0.078933,-0.241014,1979.295410,80206.367188,-1.559273,-0.409261,1.269287,0.313721,0.443997,26.000000,31.409805,9.816653,10.549705,1978.981689,1.269287,-0.512862,1.344198,0.162818,0.000953,0.000033,0.000335,0,1,0,0.014019,0,0.380000,0,14,0,202
1298, 101,15124,15103,-10295,0,0,1.511899,-9.701746,0.040948,-0.035572,0.020144,0.017845,-51.549255,134.010513,15.200233,1.922103,-9.610518,-5.766310,1.547300,-2.103771,0.015724,0.262605,152.117738,170.781135,-0.017144,-0.967447,-0.077445,-0.240324,-0.017144,-0.967447,-0.077445,-0.240324,1979.267334,80205.359375,-1.655331,-0.408683,1.269287,0.285645,0.393095,26.000000,31.409805,9.818931,11.371318,1978.981689,1.269287,-0.515493,1.340105,0.152002,0.000953,0.000034,0.000335,0,1,0,-0.006154,0,0.380000,0,14,0,202
1299, 101,15199,15170,-10220,0,0,1.566961,-9.663238,0.009643,0.014439,0.007031,0.009625,-51.461559,134.522064,15.287927,1.922103,-10.091043,-5.285784,3.058398,0.589727,1.459429,0.060277,152.149526,170.861034,-0.018664,-0.967535,-0.077200,-0.239931,-0.018664,-0.967535,-0.077200,-0.239931,1979.322510,80206.710938,-0.446745,-0.408428,1.269287,0.340820,0.365922,26.125000,31.414352,9.789464,11.552626,1978.981689,1.269287,-0.514616,1.345221,0.152879,0.000953,0.000035,0.000335,0,1,0,0.027827,0,0.380000,0,14,0,202
1300, 101,15278,15273,-10141,0,0,1.539918,-9.723301,0.033952,-0.003272,0.004369,0.043544,-51.446945,134.463608,15.945630,1.441578,-9.610518,-5.285784,-0.996267,1.721095,0.447520,0.208289,152.083738,170.874340,-0.017273,-0.967445,-0.076573,-0.240601,-0.017431,-0.967430,-0.076766,-0.240588,1979.468750,80201.132812,0.486383,-0.407461,1.269287,0.487061,0.346397,26.125000,31.414352,9.844545,11.062536,1978.981689,1.269287,-0.514469,1.344636,0.159456,0.000953,0.000037,0.000335,0,1,0,-0.015987,0,0.390000,0,14,0,202
1301, 101,15357,15339,-10062,0,0,1.593496,-9.709902,0.040967,0.053956,-0.019967,0.038705,-51.432331,134.273605,15.960245,0.961052,-11.052094,-6.246836,0.797326,-0.639803,0.428228,0.219781,152.087494,170.909419,-0.017257,-0.967463,-0.076447,-0.240569,-0.017257,-0.967463,-0.076447,-0.240569,1979.454712,80204.679688,0.796750,-0.406586,1.269287,0.473022,0.351804,26.125000,31.414352,9.839873,12.731668,1978.981689,1.269287,-0.514323,1.342736,0.159602,0.000953,0.000038,0.000335,0,1,0,-0.018238,0,0.380000,0,14,0,202
1302, 101,15436,15411,-9983,0,0,1.551658,-9.736149,0.032648,-0.012498,0.002609,0.058064,-51.037712,133.981293,15.317159,0.480526,-10.091043,-5.285784,1.437280,0.361132,1.419442,0.237670,152.187570,170.762666,-0.017346,-0.967576,-0.077666,-0.239715,-0.017346,-0.967576,-0.077666,-0.239715,1979.395996,80206.046875,0.796250,-0.406027,1.269287,0.414307,0.346428,26.125000,31.432549,9.859072,11.401735,1978.981689,1.269287,-0.510377,1.339813,0.153172,0.000954,0.000039,0.000335,0,1,0,-0.010420,0,0.390000,0,14,0,202
1303, 101,15517,15491,-9902,0,0,1.520640,-9.710857,0.042961,-0.030454,0.018041,0.028226,-51.476173,133.674362,16.311020,1.922103,-10.571568,-4.805259,0.006305,0.755424,0.378978,0.272054,152.120798,170.766914,-0.016628,-0.967566,-0.075999,-0.240342,-0.017092,-0.967445,-0.077546,-0.240302,1979.420166,80204.171875,0.155785,-0.404447,1.269287,0.438477,0.338456,26.125000,31.414352,9.829290,11.770432,1978.981689,1.269287,-0.514762,1.336744,0.163110,0.000954,0.000040,0.000335,0,1,0,0.001206,0,0.390000,0,14,0,202
1304, 101,15593,15563,-9826,0,0,1.512318,-9.742570,0.018749,-0.029291,-0.003730,0.058222,-51.140015,134.025146,15.054078,0.480526,-9.129992,-4.805259,0.087728,0.273072,-0.926371,0.234387,152.243974,170.926823,-0.016992,-0.967804,-0.076298,-0.239261,-0.016992,-0.967804,-0.076298,-0.239261,1979.415527,80202.476562,-0.120419,-0.403442,1.269287,0.433838,0.325930,26.125000,31.405256,9.859266,10.328512,1978.981689,1.269287,-0.511400,1.340251,0.150541,0.000954,0.000041,0.000335,0,1,0,0.015717,0,0.390000,0,14,0,202
1305, 101,15671,15639,-9748,0,0,1.513806,-9.700863,0.013800,0.005072,0.015583,0.032380,-50.906170,134.346695,15.594855,1.441578,-8.649466,-6.246836,0.306919,-0.158745,-0.344773,0.218706,152.199837,170.931877,-0.017144,-0.967713,-0.076280,-0.239624,-0.017144,-0.967713,-0.076280,-0.239624,1979.374023,80207.218750,0.133662,-0.400935,1.269287,0.392334,0.334425,26.125000,31.414352,9.818275,10.766354,1978.981689,1.269287,-0.509062,1.343467,0.155949,0.000954,0.000043,0.000335,0,1,0,-0.033228,0,0.380000,0,14,0,202
1306, 101,15748,15715,-9671,0,0,1.546698,-9.695312,0.022963,-0.009917,-0.019183,0.035792,-50.716167,134.054382,15.331775,2.402629,-9.610518,-5.766310,-0.457744,0.076292,-1.521309,0.248709,152.286881,170.865187,-0.017928,-0.967874,-0.076567,-0.238824,-0.016971,-0.967854,-0.076796,-0.238899,1979.370850,80205.695312,0.054612,-0.401012,1.269287,0.389160,0.324631,26.125000,31.414352,9.817937,11.462330,1978.981689,1.269287,-0.507162,1.340544,0.153318,0.000954,0.000044,0.000335,0,1,0,0.017657,0,0.390000,0,14,0,202
1307, 101,15829,15818,-9590,0,0,1.580631,-9.694511,0.028011,0.032659,0.024386,0.021478,-50.920784,134.858231,15.931015,2.402629,-11.052094,-4.805259,-3.037138,-0.285379,-1.565672,179.942099,27.769889,-9.130979,-0.018151,-0.967594,-0.078574,-0.239288,-0.019590,-0.967690,-0.077393,-0.239172,1979.491455,80201.640625,-0.027225,-0.398618,1.269287,0.509766,0.327597,26.125000,31.427999,9.822562,12.288692,1978.981689,1.269287,-0.509208,1.348582,0.159310,0.000954,0.000045,0.000335,0,1,0,0.046249,0,0.380000,0,14,0,202
1308, 101,15908,15885,-9511,0,0,1.583383,-9.736977,0.061349,0.013050,0.039473,0.063981,-50.891556,134.682846,16.121017,2.883155,-9.610518,-6.246836,-0.955248,3.881173,-1.238112,0.133637,152.173022,170.661292,-0.018446,-0.967461,-0.078737,-0.239750,-0.018446,-0.967461,-0.078737,-0.239750,1979.424805,80204.859375,0.247973,-0.396310,1.269287,0.443115,0.330726,26.125000,31.437096,9.865068,11.819373,1978.981689,1.269287,-0.508916,1.346828,0.161210,0.000954,0.000047,0.000335,0,1,0,0.040566,0,0.380000,0,14,0,202
1309, 101,15987,15952,-9432,0,0,1.561178,-9.676436,0.025720,-0.039617,0.020995,0.018036,-51.213097,134.317444,15.887168,2.402629,-10.571568,-5.766310,0.130756,-0.518665,1.046169,0.123087,152.137847,170.715797,-0.018445,-0.967423,-0.078293,-0.240049,-0.018445,-0.967423,-0.078293,-0.240049,1979.473389,80200.632812,0.023894,-0.393289,1.269287,0.491699,0.316076,26.125000,31.441645,9.801600,12.279292,1978.981689,1.269287,-0.512131,1.343174,0.158872,0.000954,0.000048,0.000335,0,1,0,0.015441,0,0.390000,0,14,0,202
1310, 101,16070,16054,-9349,0,0,1.605666,-9.713326,0.060036,0.033516,0.019299,0.044252,-50.774628,134.332062,15.931015,0.961052,-9.610518,-5.285784,1.088461,-0.704659,-1.180786,0.179792,152.147996,170.649558,-0.016877,-0.967301,-0.080005,-0.240088,-0.018098,-0.967407,-0.078735,-0.239992,1979.499756,80202.664062,0.277217,-0.391649,1.269287,0.518066,0.336046,26.125000,31.441645,9.845328,11.010231,1978.981689,1.269287,-0.507746,1.343321,0.159310,0.000954,0.000049,0.000335,0,1,0,0.050622,0,0.380000,0,14,0,202
1311, 101,16147,16119,-9272,0,0,1.556574,-9.747619,0.020789,-0.065103,-0.025753,0.069893,-50.833088,134.624374,16.398714,1.441578,-9.610518,-5.766310,1.824088,-0.952118,0.428658,0.484599,152.255435,170.436729,-0.015894,-0.967530,-0.079916,-0.239264,-0.015894,-0.967530,-0.079916,-0.239264,1979.408203,80206.726562,0.597897,-0.388597,1.269287,0.426514,0.341309,26.125000,31.455292,9.871141,11.300023,1978.981689,1.269287,-0.508331,1.346244,0.163987,0.000954,0.000050,0.000335,0,1,0,0.066330,0,0.380000,0,14,0,202
1312, 101,16226,16223,-9193,0,0,1.507349,-9.636671,0.037879,-0.029657,0.018764,-0.047143,-50.686932,134.624374,15.317159,2.402629,-9.610518,-5.285784,-1.268759,2.816933,-1.910580,0.233215,152.192693,170.795642,-0.017311,-0.967609,-0.077398,-0.239673,-0.017311,-0.967609,-0.077398,-0.239673,1979.456299,80203.187500,-0.056759,-0.384620,1.269287,0.474609,0.341076,26.125000,31.468937,9.753920,11.228276,1978.981689,1.269287,-0.506869,1.346244,0.153172,0.000955,0.000052,0.000335,0,1,0,-0.057524,0,0.380000,0,14,0,202
1313, 101,16307,16288,-9112,0,0,1.526105,-9.650015,0.047052,-0.011382,0.016074,-0.030964,-51.213097,134.200531,15.726397,2.402629,-8.649466,-6.246836,0.425867,-1.732376,-0.341147,0.252440,152.298438,170.793088,-0.016490,-0.967883,-0.076715,-0.238841,-0.017081,-0.967830,-0.077399,-0.238793,1979.628418,80201.320312,0.605095,-0.386575,1.269287,0.646729,0.374853,26.125000,31.464388,9.770057,10.936583,1978.981689,1.269287,-0.512131,1.342005,0.157264,0.000954,0.000053,0.000335,0,1,0,0.043532,0,0.380000,0,14,0,202
1314, 101,16385,16358,-9034,0,0,1.545190,-9.697675,0.046470,0.014386,0.001930,0.019105,-50.906170,135.048233,15.580240,1.922103,-9.610518,-5.766310,-0.337660,0.551627,0.104311,0.251005,152.187693,170.898682,-0.016949,-0.967670,-0.076490,-0.239743,-0.016949,-0.967670,-0.076490,-0.239743,1979.580444,80203.687500,1.022244,-0.385410,1.269287,0.598755,0.398075,26.125000,31.468937,9.820116,11.371318,1978.981689,1.269287,-0.509062,1.350482,0.155802,0.000955,0.000054,0.000335,0,1,0,0.032097,0,0.380000,0,14,0,202
1315, 101,16473,16431,-8946,0,0,1.534424,-9.686527,0.034128,0.011849,-0.014772,-0.102837,-51.593102,133.849747,15.945630,1.922103,-10.571568,-5.766310,0.653477,-1.207238,1.540437,0.429411,152.274601,170.776818,-0.015637,-0.967795,-0.077163,-0.239111,-0.015637,-0.967795,-0.077163,-0.239111,1979.641602,80201.828125,0.578991,-0.383075,1.269287,0.659912,0.416654,26.125000,31.464388,9.807366,12.194379,1978.981689,1.269287,-0.515931,1.338498,0.159456,0.000955,0.000055,0.000335,0,1,0,0.088252,0,0.390000,0,14,0,202
1316, 101,16543,16508,-8876,0,0,1.565850,-9.727207,0.028614,-0.004381,-0.026497,-0.050987,-50.657700,134.595139,15.361005,1.441578,-10.571568,-5.285784,-0.911920,1.386756,1.683608,0.423953,152.336072,170.870446,-0.016678,-0.967981,-0.076492,-0.238504,-0.015446,-0.967985,-0.076396,-0.238601,1979.485840,80203.851562,-0.042957,-0.381891,1.269287,0.504150,0.425190,26.125000,31.450743,9.852475,11.906961,1978.981689,1.269287,-0.506577,1.345951,0.153610,0.000955,0.000056,0.000335,0,1,0,0.002971,0,0.390000,0,14,0,202
1317, 101,16622,16585,-8797,0,0,1.583662,-9.696376,0.022084,0.054043,-0.046457,0.023617,-51.183861,135.018997,15.667933,2.402629,-10.091043,-4.805259,0.466528,2.879775,-1.111453,0.250226,152.177393,171.012460,-0.018189,-0.967496,-0.078434,-0.239725,-0.016724,-0.967724,-0.075529,-0.239846,1979.626953,80202.671875,0.086377,-0.380884,1.269287,0.645264,0.441925,26.125000,31.455292,9.824876,11.432074,1978.981689,1.269287,-0.511839,1.350190,0.156679,0.000955,0.000058,0.000335,0,1,0,0.039589,0,0.390000,0,14,0,202
1318, 101,16706,16696,-8713,0,0,1.538002,-9.696417,0.067553,-0.026442,0.037004,0.016762,-51.154633,134.828995,15.141771,1.441578,-9.610518,-5.285784,2.984948,0.040423,0.267412,0.311343,152.165386,170.604424,-0.017070,-0.967433,-0.078844,-0.239928,-0.017070,-0.967433,-0.078844,-0.239928,1979.665161,80199.796875,0.292100,-0.378305,1.269287,0.683472,0.456740,26.125000,31.450743,9.817867,11.062536,1978.981689,1.269287,-0.511546,1.348290,0.151418,0.000956,0.000059,0.000335,0,1,0,0.011322,0,0.390000,0,14,0,202
1319, 101,16787,16764,-8632,0,0,1.566675,-9.661728,0.035644,0.025962,-0.026510,-0.013081,-51.315403,134.799774,15.463315,2.402629,-8.649466,-5.766310,-2.843510,2.627009,-0.662966,0.310801,152.093109,170.850967,-0.016608,-0.967449,-0.076750,-0.240574,-0.016608,-0.967449,-0.076750,-0.240574,1979.662842,80203.687500,0.497483,-0.376775,1.269287,0.681152,0.485172,26.125000,31.468937,9.787989,10.669406,1978.981689,1.269287,-0.513154,1.347998,0.154633,0.000955,0.000060,0.000335,0,1,0,-0.046559,0,0.390000,0,14,0,202
1320, 101,16862,16831,-8557,0,0,1.579089,-9.657783,0.012708,0.037816,-0.079425,-0.053441,-50.716167,134.638992,15.244081,1.441578,-9.129992,-4.805259,-1.783760,0.294813,1.501604,0.273608,151.998634,170.880446,-0.016924,-0.967265,-0.076561,-0.241351,-0.016924,-0.967265,-0.076561,-0.241351,1979.567871,80205.218750,0.010956,-0.377925,1.269287,0.586182,0.499320,26.125000,31.482582,9.786034,10.417553,1978.981689,1.269287,-0.507162,1.346390,0.152441,0.000955,0.000061,0.000335,0,1,0,0.050240,0,0.390000,0,14,0,202
1321, 101,16942,16934,-8477,0,0,1.594406,-9.729950,0.071938,0.035555,0.044762,0.058816,-51.110786,134.726685,15.171003,1.441578,-10.571568,-5.285784,0.232540,-0.369963,0.141981,0.103479,151.982965,170.705497,-0.018739,-0.967087,-0.078393,-0.241341,-0.018739,-0.967087,-0.078393,-0.241341,1979.672852,80203.187500,-0.022718,-0.377316,1.269287,0.691162,0.519156,26.125000,31.482582,9.859982,11.906961,1978.981689,1.269287,-0.511108,1.347267,0.151710,0.000955,0.000062,0.000335,0,1,0,-0.015507,0,0.380000,0,14,0,202
1322, 101,17022,17001,-8397,0,0,1.561997,-9.700444,0.037950,-0.002159,0.044804,0.024369,-51.476173,134.434372,14.937154,1.441578,-8.649466,-4.324733,-0.936132,0.194005,-0.817814,179.995989,27.969278,-9.279199,-0.017621,-0.967226,-0.077909,-0.241026,-0.019581,-0.967180,-0.078499,-0.240867,1979.538940,80207.078125,-0.313816,-0.375945,1.269287,0.557251,0.522424,26.125000,31.487131,9.825472,9.777255,1978.981689,1.269287,-0.514762,1.344344,0.149372,0.000955,0.000063,0.000335,0,1,0,-0.009227,0,0.380000,0,14,0,202
1323, 101,17098,17067,-8321,0,0,1.542560,-9.705467,0.015224,-0.028735,0.007089,-0.007338,-50.570011,134.507446,15.010230,2.402629,-10.091043,-4.805259,-0.014509,0.095646,-1.375467,0.205979,152.094092,170.816857,-0.017564,-0.967413,-0.077258,-0.240491,-0.017564,-0.967413,-0.077258,-0.240491,1979.851685,80199.640625,0.368597,-0.374877,1.269287,0.869995,0.543276,26.125000,31.496229,9.827300,11.432074,1978.981689,1.269287,-0.505700,1.345075,0.150102,0.000955,0.000064,0.000335,0,1,0,0.040029,0,0.390000,0,14,0,202
1324, 101,17179,17170,-8240,0,0,1.574124,-9.710308,0.070354,0.046728,0.023422,0.036183,-51.023090,134.682846,16.062555,1.922103,-9.610518,-5.285784,0.675473,1.871458,-0.231461,0.183037,152.039191,170.882577,-0.017657,-0.967338,-0.076742,-0.240949,-0.017657,-0.967338,-0.076742,-0.240949,1979.797119,80204.382812,1.124110,-0.371441,1.269287,0.815430,0.605851,26.125000,31.505325,9.837321,11.135351,1978.981689,1.269287,-0.510231,1.346828,0.160626,0.000956,0.000066,0.000335,0,1,0,0.065048,0,0.380000,0,14,0,202
1325, 101,17258,17238,-8161,0,0,1.572037,-9.703906,0.029159,0.032611,-0.021136,0.029383,-50.979244,135.150543,16.033323,0.480526,-9.610518,-5.766310,-0.258797,1.135746,0.797797,0.214589,151.991353,170.922889,-0.017913,-0.967137,-0.078003,-0.241331,-0.017338,-0.967269,-0.076326,-0.241380,1979.930786,80198.117188,1.141968,-0.367584,1.269287,0.949097,0.645833,26.125000,31.496229,9.830460,11.217989,1978.981689,1.269287,-0.509792,1.351505,0.160333,0.000956,0.000067,0.000335,0,1,0,0.001324,0,0.390000,0,14,0,202
1326, 101,17333,17304,-8086,0,0,1.585727,-9.679296,0.041139,0.031682,-0.012244,0.007355,-50.657700,134.492844,15.331775,1.922103,-9.610518,-6.246836,0.210846,0.085127,1.772293,0.245249,151.974523,170.777815,-0.017396,-0.967141,-0.077483,-0.241520,-0.017396,-0.967141,-0.077483,-0.241520,1979.881104,80200.156250,0.379992,-0.365881,1.269287,0.899414,0.674487,26.125000,31.509874,9.808414,11.622371,1978.981689,1.269287,-0.506577,1.344928,0.153318,0.000956,0.000068,0.000335,0,1,0,0.049895,0,0.390000,0,14,0,202
1327, 101,17411,17377,-8008,0,0,1.560467,-9.669338,0.019614,-0.000640,0.001290,0.031715,-50.993858,134.507446,14.864075,1.922103,-10.571568,-6.246836,0.560959,0.706592,-2.156634,0.403977,151.960863,170.468845,-0.016718,-0.966924,-0.079753,-0.241698,-0.016718,-0.966924,-0.079753,-0.241698,1979.745239,80203.710938,-0.212431,-0.363321,1.269287,0.763550,0.689833,26.125000,31.523520,9.794465,12.428818,1978.981689,1.269287,-0.509939,1.345075,0.148641,0.000956,0.000069,0.000335,0,1,0,0.010601,0,0.380000,0,14,0,202
1328, 101,17497,17491,-7922,0,0,1.535210,-9.710979,0.039978,-0.015841,-0.001640,0.030649,-50.833088,134.682846,15.492546,1.922103,-9.610518,-6.246836,0.566615,-2.368366,1.104771,0.322537,151.994290,170.787979,-0.016709,-0.967201,-0.077238,-0.241407,-0.016709,-0.967201,-0.077238,-0.241407,1979.874390,80197.960938,-0.260481,-0.361487,1.269287,0.892700,0.696403,26.125000,31.514423,9.831661,11.622371,1978.981689,1.269287,-0.508331,1.346828,0.154925,0.000956,0.000071,0.000335,0,1,0,0.004462,0,0.390000,0,14,0,202
1329, 101,17580,17565,-7839,0,0,1.624246,-9.730011,0.094705,0.082091,0.026375,0.063726,-50.657700,134.258987,15.448700,0.961052,-9.610518,-5.766310,-2.182715,-0.377220,-2.289804,0.216198,151.983375,170.770329,-0.015583,-0.966873,-0.080940,-0.241582,-0.017651,-0.967150,-0.077609,-0.241425,1979.818848,80203.203125,-0.126116,-0.359686,1.269287,0.837158,0.712880,26.125000,31.509874,9.865103,11.248822,1978.981689,1.269287,-0.506577,1.342590,0.154487,0.000956,0.000072,0.000335,0,1,0,-0.028211,0,0.390000,0,14,0,202
1330, 101,17660,17638,-7759,0,0,1.546783,-9.731422,0.028736,-0.079972,-0.019158,0.052283,-51.110786,134.682846,15.273312,0.480526,-9.129992,-5.766310,0.292340,-0.150164,1.355977,0.547392,152.043030,170.353401,-0.015692,-0.967036,-0.080442,-0.241089,-0.015692,-0.967036,-0.080442,-0.241089,1979.897461,80199.812500,0.217620,-0.358286,1.269287,0.915771,0.730719,26.125000,31.505325,9.853626,10.809162,1978.981689,1.269287,-0.511108,1.346390,0.157118,0.000957,0.000073,0.000335,0,1,0,-0.046057,0,0.390000,0,14,0,202
1331, 101,17739,17714,-7680,0,0,1.553487,-9.685594,0.038185,-0.055671,0.005947,0.008300,-51.213097,134.741302,15.887168,1.922103,-12.493672,-5.766310,-0.416330,2.339829,-1.426349,0.391497,151.924417,170.400338,-0.016993,-0.966797,-0.080350,-0.241987,-0.016993,-0.966797,-0.080350,-0.241987,1979.782227,80201.000000,-0.517152,-0.357990,1.269287,0.800537,0.723869,26.125000,31.514423,9.809460,13.893764,1978.981689,1.269287,-0.512131,1.347413,0.158872,0.000957,0.000074,0.000335,0,1,0,0.017301,0,0.390000,0,14,0,202
1332, 101,17818,17817,-7601,0,0,1.535301,-9.613044,0.029841,-0.031500,-0.008155,-0.066135,-50.979244,134.229752,15.770243,0.961052,-11.052094,-5.766310,0.375685,0.989302,0.393191,0.346377,151.853437,170.621677,-0.016956,-0.966794,-0.078563,-0.242587,-0.016956,-0.966794,-0.078563,-0.242587,1979.836914,80200.164062,-0.439682,-0.355659,1.269287,0.855225,0.726777,26.125000,31.523520,9.734920,12.502910,1978.981689,1.269287,-0.509792,1.342298,0.157702,0.000957,0.000076,0.000335,0,1,0,-0.021158,0,0.390000,0,14,0,202
1333, 101,17900,17883,-7519,0,0,1.564521,-9.605453,0.049346,0.006241,-0.005772,-0.068847,-51.300789,134.361298,15.667933,1.922103,-8.649466,-5.285784,0.985745,-3.040209,0.677985,0.343494,151.989809,170.636075,-0.017043,-0.967064,-0.078819,-0.241421,-0.016855,-0.967091,-0.078475,-0.241437,1979.927246,80196.273438,0.206810,-0.357202,1.269287,0.945557,0.738296,26.125000,31.532618,9.732157,10.317327,1978.981689,1.269287,-0.513008,1.343613,0.156679,0.000957,0.000076,0.000335,0,1,0,0.097196,0,0.390000,0,14,0,202
1334, 101,17976,17948,-7443,0,0,1.525720,-9.655049,0.010374,-0.045874,-0.009615,-0.026251,-51.417713,134.872849,15.258697,1.441578,-9.129992,-5.766310,0.030610,-1.389620,0.495114,0.268009,152.029834,170.683449,-0.017365,-0.967197,-0.078242,-0.241055,-0.017365,-0.967197,-0.078242,-0.241055,1979.909058,80198.812500,0.592006,-0.355127,1.269287,0.927368,0.752223,26.125000,31.546263,9.774861,10.894275,1978.981689,1.269287,-0.514177,1.348728,0.152587,0.000957,0.000077,0.000335,0,1,0,0.030392,0,0.390000,0,14,0,202
1335, 101,18054,18053,-7365,0,0,1.555448,-9.667145,0.015183,-0.033235,0.023752,-0.009592,-51.461559,134.653610,15.726397,2.402629,-10.571568,-6.246836,-0.645360,-1.885843,-1.533823,0.064335,152.134431,170.592471,-0.019202,-0.967321,-0.079457,-0.240017,-0.019202,-0.967321,-0.079457,-0.240017,1979.900269,80196.953125,0.268741,-0.353135,1.269287,0.918579,0.751383,26.125000,31.541714,9.791493,12.512140,1978.981689,1.269287,-0.514616,1.346536,0.157264,0.000957,0.000079,0.000335,0,1,0,-0.032842,0,0.390000,0,14,0,202
1336, 101,18135,18118,-7284,0,0,1.572670,-9.730088,0.050641,-0.009709,0.058367,0.055316,-50.979244,134.448990,15.755627,0.480526,-11.052094,-5.766310,-0.910892,-0.021040,-0.843876,0.023393,152.167503,170.599465,-0.017038,-0.967472,-0.078421,-0.239913,-0.019510,-0.967388,-0.079489,-0.239711,1979.790771,80200.515625,-0.182372,-0.353975,1.269287,0.809082,0.744583,26.125000,31.569006,9.856494,12.475177,1978.981689,1.269287,-0.509792,1.344490,0.157556,0.000957,0.000080,0.000335,0,1,0,0.021486,0,0.390000,0,14,0,202
1337, 101,18211,18183,-7208,0,0,1.572108,-9.643942,0.057653,0.013078,0.016813,-0.029613,-50.964630,134.755920,15.726397,0.961052,-9.129992,-4.805259,0.943442,1.578965,1.017834,0.243293,152.121099,170.649285,-0.017582,-0.967361,-0.078600,-0.240262,-0.017582,-0.967361,-0.078600,-0.240262,1979.854248,80201.359375,0.270314,-0.351234,1.269287,0.872559,0.755098,26.125000,31.559908,9.771411,10.361992,1978.981689,1.269287,-0.509646,1.347559,0.157264,0.000957,0.000081,0.000335,0,1,0,0.066118,0,0.390000,0,14,0,202
1338, 101,18289,18287,-7130,0,0,1.569009,-9.626993,0.042676,0.032730,-0.018250,-0.046965,-51.490791,134.624374,15.726397,0.480526,-10.091043,-4.805259,-0.869379,-1.248032,0.885247,0.289025,152.081047,170.828058,-0.016848,-0.967405,-0.076987,-0.240658,-0.016848,-0.967405,-0.076987,-0.240658,1980.064697,80196.281250,0.964254,-0.348322,1.269287,1.083008,0.793018,26.125000,31.559908,9.754107,11.187072,1978.981689,1.269287,-0.511254,1.346244,0.157264,0.000957,0.000082,0.000335,0,1,0,0.032793,0,0.390000,0,14,0,202
1339, 101,18375,18358,-7044,0,0,1.540605,-9.688966,0.015104,-0.015181,-0.016859,0.009669,-51.680798,133.922821,16.135633,1.922103,-8.649466,-5.285784,1.259932,-0.766884,-0.342460,0.245211,152.100335,170.818236,-0.018141,-0.967472,-0.076678,-0.240393,-0.017225,-0.967432,-0.077165,-0.240464,1980.098633,80196.289062,1.310292,-0.347601,1.269287,1.116943,0.829092,26.125000,31.573555,9.810696,10.317327,1978.981689,1.269287,-0.516808,1.339228,0.161356,0.000957,0.000083,0.000335,0,1,0,0.010532,0,0.390000,0,14,0,202
1340, 101,18455,18429,-6964,0,0,1.475299,-9.603738,0.025192,-0.041797,0.030159,-0.084711,-51.140015,134.653610,15.682549,1.922103,-8.168940,-5.766310,-0.968426,1.305046,-0.215397,0.121312,152.020873,170.908641,-0.018135,-0.967307,-0.076648,-0.241066,-0.018135,-0.967307,-0.076648,-0.241066,1979.937256,80202.546875,0.927383,-0.346037,1.269287,0.955566,0.845526,26.125000,31.569006,9.716425,10.182160,1978.981689,1.269287,-0.511400,1.346536,0.156825,0.000957,0.000084,0.000335,0,1,0,0.092329,0,0.390000,0,14,0,202
1341, 101,18532,18504,-6887,0,0,1.537400,-9.632973,0.034547,-0.013481,-0.010178,-0.046069,-51.593102,134.609756,15.551008,1.441578,-10.091043,-5.766310,-0.082031,-1.025891,0.657393,0.331582,152.029943,170.734785,-0.016720,-0.967241,-0.077675,-0.241105,-0.016720,-0.967241,-0.077675,-0.241105,1979.900391,80200.679688,-0.057861,-0.344549,1.269287,0.918701,0.843823,26.125000,31.564457,9.754946,11.711432,1978.981689,1.269287,-0.515931,1.346098,0.155510,0.000957,0.000085,0.000335,0,1,0,-0.013949,0,0.390000,0,14,0,202
1342, 101,18611,18584,-6808,0,0,1.573056,-9.634498,0.020003,0.015577,-0.055025,-0.039075,-50.657700,134.010513,15.565623,1.922103,-9.129992,-4.324733,0.289990,-0.897286,0.375337,0.407307,151.990424,170.768048,-0.018318,-0.967092,-0.078534,-0.241309,-0.016038,-0.967192,-0.077227,-0.241494,1979.987305,80199.328125,-0.473226,-0.345604,1.269287,1.005615,0.854610,26.125000,31.559908,9.762093,10.283703,1978.981689,1.269287,-0.506577,1.340105,0.155656,0.000958,0.000087,0.000335,0,1,0,-0.015711,0,0.390000,0,14,0,202
1343, 101,18689,18656,-6730,0,0,1.571981,-9.666450,0.045440,-0.010969,-0.003392,0.016816,-50.920784,133.952057,14.484069,1.441578,-9.610518,-5.285784,0.959934,0.941208,-1.653784,0.235373,151.951369,170.563948,-0.017946,-0.966944,-0.079304,-0.241676,-0.017946,-0.966944,-0.079304,-0.241676,1979.869385,80200.343750,-0.322795,-0.347104,1.269287,0.887695,0.838145,26.125000,31.559908,9.793540,11.062536,1978.981689,1.269287,-0.509208,1.339521,0.144841,0.000958,0.000088,0.000335,0,1,0,0.008985,0,0.390000,0,14,0,202
1344, 101,18767,18765,-6652,0,0,1.568828,-9.685176,0.043710,-0.018736,-0.002327,0.010494,-51.066940,134.580536,15.434083,1.922103,-10.091043,-6.246836,2.097930,0.108635,-0.705986,0.361501,151.875103,170.538513,-0.016989,-0.966785,-0.079237,-0.242403,-0.016989,-0.966785,-0.079237,-0.242403,1979.883911,80201.187500,-0.412318,-0.345833,1.269287,0.902222,0.832086,26.125000,31.564457,9.811512,12.022754,1978.981689,1.269287,-0.510669,1.345805,0.154341,0.000958,0.000089,0.000335,0,1,0,0.028266,0,0.390000,0,14,0,202
1345, 101,18848,18830,-6571,0,0,1.535761,-9.684951,0.036415,-0.052717,-0.009770,0.004880,-51.023090,135.092087,15.068693,1.441578,-9.129992,-5.766310,2.253330,-0.426027,0.616658,0.463029,151.870909,170.526492,-0.017181,-0.966964,-0.076893,-0.242431,-0.016161,-0.966783,-0.079123,-0.242507,1979.965088,80199.328125,0.168450,-0.344011,1.269287,0.983398,0.844787,26.125000,31.573555,9.806026,10.894275,1978.981689,1.269287,-0.510231,1.350921,0.150687,0.000958,0.000090,0.000335,0,1,0,0.038794,0,0.390000,0,14,0,202
1346, 101,18924,18896,-6495,0,0,1.542238,-9.716507,0.045613,-0.007782,0.025904,0.037209,-50.789242,134.595139,14.747150,1.922103,-10.091043,-6.246836,-2.600020,2.846511,-2.068833,0.174984,151.767678,170.786981,-0.018111,-0.966699,-0.077516,-0.243219,-0.018111,-0.966699,-0.077516,-0.243219,1979.879395,80199.328125,-0.074553,-0.342426,1.269287,0.897705,0.835325,26.125000,31.573555,9.838246,12.022754,1978.981689,1.269287,-0.507892,1.345951,0.147472,0.000958,0.000091,0.000335,0,1,0,0.002666,0,0.390000,0,14,0,202
1347, 101,19003,18999,-6416,0,0,1.552616,-9.680540,0.041134,-0.046042,0.024403,0.003206,-51.461559,134.317444,15.331775,1.922103,-9.610518,-5.766310,0.934371,0.214775,-0.123878,0.275165,151.714225,170.453286,-0.018012,-0.966372,-0.080107,-0.243687,-0.018012,-0.966372,-0.080107,-0.243687,1979.902344,80199.164062,-0.195479,-0.340418,1.269287,0.920654,0.831736,26.000000,31.578102,9.804344,11.371318,1978.981689,1.269287,-0.514616,1.343174,0.153318,0.000958,0.000093,0.000335,0,1,0,-0.002635,0,0.390000,0,14,0,202
1348, 101,19084,19065,-6335,0,0,1.546772,-9.702232,0.046842,-0.048486,0.030437,0.023700,-50.833088,134.668228,15.375622,2.883155,-9.610518,-6.246836,1.748695,-4.114830,0.366548,0.283960,151.813467,170.474691,-0.017014,-0.966798,-0.077442,-0.242930,-0.017822,-0.966599,-0.079928,-0.242859,1979.993164,80196.796875,0.305219,-0.339710,1.269287,1.011475,0.841401,26.000000,31.587200,9.824867,11.819373,1978.981689,1.269287,-0.508331,1.346682,0.153756,0.000958,0.000093,0.000335,0,1,0,-0.000417,0,0.390000,0,14,0,202
1349, 101,19160,19131,-6259,0,0,1.569733,-9.689225,0.041650,0.028218,-0.001979,0.078987,-50.760014,134.565918,14.674072,1.922103,-10.091043,-5.285784,1.056059,1.679115,-1.803733,0.263786,151.764440,170.790396,-0.017357,-0.966709,-0.077298,-0.243307,-0.017357,-0.966709,-0.077298,-0.243307,1980.028198,80198.664062,0.844429,-0.338101,1.269287,1.046509,0.861095,26.000000,31.591749,9.815644,11.552626,1978.981689,1.269287,-0.507600,1.345659,0.146741,0.000958,0.000094,0.000335,0,1,0,0.034779,0,0.390000,0,14,0,202
1350, 101,19239,19234,-6180,0,0,1.636001,-9.855966,0.050609,0.035420,-0.010298,0.189884,-51.476173,134.785156,14.674072,1.922103,-9.129992,-4.324733,0.004466,1.108181,-0.702392,0.279298,151.684418,170.649708,-0.017580,-0.966445,-0.078436,-0.243971,-0.017580,-0.966445,-0.078436,-0.243971,1979.984375,80199.843750,0.599616,-0.333207,1.269287,1.002686,0.880921,26.000000,31.587200,9.990952,10.283703,1978.981689,1.269287,-0.514762,1.347852,0.146741,0.000958,0.000096,0.000335,0,1,0,-0.005279,0,0.390000,0,14,0,202
1351, 101,19324,19302,-6095,0,0,1.535933,0.107045,-9.403842,-1.177470,-3.500813,-1.657504,-50.847702,134.682846,15.331775,1.541347,0.378157,-9.664531,0.012935,0.043699,0.039641,115.131144,17.787655,8.701103,-0.518460,-0.837745,-0.019425,-0.170307,-0.518460,-0.837745,-0.019425,-0.170307,1978.798584,80197.476562,-3.148220,-0.339685,1.269287,-0.183105,0.682206,26.000000,31.596296,9.529050,9.793973,1978.981689,1.269287,-0.508477,1.346828,0.153318,0.000957,0.000097,0.000335,0,1,0,-6.773923,0,0.390000,0,14,0,202
1352, 101,19408,19406,-6011,0,0,1.544252,0.364937,-9.662419,-0.136810,-0.527939,-0.024354,-50.789242,134.828995,15.419468,1.560494,0.382943,-9.664531,-0.003547,-0.001185,0.001555,89.329182,9.342259,10.583753,-0.700571,-0.702976,0.006944,-0.122381,-0.700571,-0.702976,0.006944,-0.122381,1978.845581,80197.476562,-1.790737,-0.547907,1.269287,-0.136108,0.325977,26.000000,31.596296,9.791845,9.797191,1978.981689,1.269287,-0.507892,1.348290,0.154195,0.000955,0.000098,0.000335,0,1,0,-1.310066,0,0.390000,0,14,0,202
1353, 101,19493,19490,-5926,0,0,1.512447,0.330526,-9.660158,-0.161039,-0.488410,-0.031101,-50.248466,134.624374,15.945630,1.507839,0.325502,-9.659744,0.011383,-0.003111,-0.000965,89.329558,9.342164,10.583691,-0.717077,-0.686986,0.009402,-0.117311,-0.700568,-0.702978,0.006945,-0.122380,1978.845581,80197.476562,-0.382978,-0.573938,1.269287,-0.136108,0.146493,26.000000,31.596296,9.783424,9.782136,1978.981689,1.269287,-0.502485,1.346244,0.159456,0.000954,0.000099,0.000335,0,1,0,-0.028359,0,0.390000,0,14,0,202
1354, 101,19574,19567,-5845,0,0,1.472972,0.292876,-9.666450,-0.048598,-0.004632,-0.018706,-50.526161,133.981293,14.937154,1.459971,0.272847,-9.669318,-0.004370,-0.000539,-0.000213,86.758736,8.493520,10.554301,-0.717076,-0.686987,0.009402,-0.117310,-0.717076,-0.686987,0.009402,-0.117310,1978.862305,80197.476562,-0.086363,-0.576811,1.269287,-0.119385,0.028210,26.000000,31.596296,9.782416,9.782723,1978.981689,1.269287,-0.505262,1.339813,0.149372,0.000954,0.000101,0.000335,0,1,0,-0.019265,0,0.390000,0,14,0,202
1355, 101,19656,19652,-5763,0,0,1.473691,0.331825,-9.669312,-0.012561,-0.021539,-0.014436,-51.081554,135.106689,15.156386,1.469545,0.335075,-9.669318,0.006725,-0.000704,0.000539,86.635868,8.243262,10.539772,-0.718080,-0.686182,0.010777,-0.115752,-0.718080,-0.686182,0.010777,-0.115752,1978.862305,80197.476562,0.040306,-0.578607,1.269287,-0.119385,-0.056106,26.000000,31.596296,9.786595,9.786090,1978.981689,1.269287,-0.510816,1.351067,0.151564,0.000953,0.000102,0.000335,0,1,0,-0.013238,0,0.390000,0,14,0,202
1356, 101,19737,19719,-5682,0,0,1.497500,0.307122,-9.669318,0.003355,0.001114,-0.011591,-51.140015,134.434372,15.463315,1.498266,0.306355,-9.669318,0.015494,-0.000039,-0.000541,86.620541,8.311749,10.543717,-0.718099,-0.686096,0.010350,-0.116182,-0.718099,-0.686096,0.010350,-0.116182,1978.871216,80197.476562,0.028458,-0.579650,1.269287,-0.110474,-0.105295,26.000000,31.596296,9.789410,9.789503,1978.981689,1.269287,-0.512277,1.349605,0.151564,0.000953,0.000103,0.000335,0,1,0,-0.011842,0,0.390000,0,14,0,202
1357, 101,19815,19805,-5604,0,0,1.484015,0.377581,-9.678814,-0.023897,-0.065263,-0.002047,-51.300789,134.828995,14.820229,1.483905,0.378157,-9.678891,0.001753,0.000014,0.001002,86.620678,8.311774,10.543737,-0.718098,-0.686097,0.010351,-0.116183,-0.718098,-0.686097,0.010351,-0.116183,1978.875854,80197.476562,0.029180,-0.579927,1.269287,-0.105835,-0.126988,26.000000,31.596296,9.799199,9.799281,1978.981689,1.269287,-0.513008,1.348290,0.148202,0.000953,0.000104,0.000335,0,1,0,-0.002251,0,0.390000,0,14,0,202
1358, 101,19895,19891,-5524,0,0,1.518006,0.382511,-9.668921,-0.025672,-0.006984,-0.006206,-51.841568,134.405151,14.513300,1.512626,0.382943,-9.669318,0.003262,-0.000768,-0.001362,86.211460,8.518311,10.556922,-0.720321,-0.683558,0.008699,-0.117516,-0.720321,-0.683558,0.008699,-0.117516,1978.866211,80197.476562,-0.021863,-0.579845,1.269287,-0.115479,-0.146462,26.000000,31.596296,9.794830,9.794407,1978.981689,1.269287,-0.518416,1.344051,0.145133,0.000953,0.000106,0.000335,0,1,0,-0.005069,0,0.390000,0,14,0,202
1359, 101,19977,19957,-5442,0,0,1.508283,0.391818,-9.660604,-0.015379,-0.050366,-0.015657,-51.256943,134.624374,14.717918,1.507839,0.397304,-9.659744,0.002857,-0.002066,-0.001601,86.419740,8.400286,10.549072,-0.719205,-0.684850,0.009616,-0.116755,-0.719205,-0.684850,0.009616,-0.116755,1978.817139,80197.476562,-0.123566,-0.580125,1.269287,-0.164551,-0.169590,26.000000,31.596296,9.785485,9.784789,1978.981689,1.269287,-0.512569,1.346244,0.147179,0.000953,0.000107,0.000335,0,1,0,-0.013777,0,0.390000,0,14,0,202
1360, 101,20054,20045,-5365,0,0,1.470582,0.378629,-9.692354,-0.054271,-0.028880,0.009399,-50.643085,134.638992,15.214850,1.469545,0.378157,-9.693252,-0.003533,-0.002637,-0.001129,86.419686,8.400156,10.549018,-0.720401,-0.683870,0.011167,-0.114976,-0.719206,-0.684849,0.009617,-0.116754,1978.817139,80197.476562,-0.121784,-0.580503,1.269287,-0.164551,-0.189774,26.000000,31.596296,9.810591,9.811304,1978.981689,1.269287,-0.506431,1.346390,0.152149,0.000953,0.000108,0.000335,0,1,0,0.007545,0,0.390000,0,14,0,202
1361, 101,20133,20130,-5286,0,0,1.466449,0.328729,-9.678085,0.001612,0.045946,-0.007035,-51.593102,134.288208,14.761765,1.464758,0.330289,-9.678891,-0.002250,-0.000713,0.001933,86.270542,8.115355,10.530692,-0.720401,-0.683870,0.011168,-0.114976,-0.720401,-0.683870,0.011168,-0.114976,1978.766602,80197.476562,-0.188641,-0.580663,1.269287,-0.215088,-0.226121,26.000000,31.596296,9.794073,9.794669,1978.981689,1.269287,-0.515931,1.342882,0.147618,0.000953,0.000110,0.000335,0,1,0,-0.008587,0,0.390000,0,14,0,202
1362, 101,20215,20197,-5204,0,0,1.502190,0.326106,-9.676095,0.038490,-0.045723,-0.007139,-51.344635,134.697464,14.644840,1.498266,0.306355,-9.678891,0.000737,-0.001579,0.002018,86.508164,8.116283,10.530874,-0.718980,-0.685363,0.011401,-0.114959,-0.718980,-0.685363,0.011401,-0.114959,1978.790649,80197.476562,0.044436,-0.580807,1.269287,-0.191040,-0.238147,26.000000,31.596296,9.797435,9.798959,1978.981689,1.269287,-0.513446,1.346975,0.146448,0.000953,0.000111,0.000335,0,1,0,-0.007094,0,0.390000,0,14,0,202
1363, 101,20293,20285,-5126,0,0,1.544873,0.343775,-9.655581,0.018371,-0.012664,-0.016596,-51.578487,134.288208,14.542532,1.546134,0.344649,-9.654958,0.012994,-0.001069,0.001034,86.435901,8.466189,10.552696,-0.719038,-0.684960,0.009235,-0.117165,-0.719038,-0.684960,0.009235,-0.117165,1978.797241,80197.476562,0.035179,-0.580854,1.269287,-0.184448,-0.244515,26.000000,31.596296,9.784430,9.784044,1978.981689,1.269287,-0.514908,1.344490,0.148787,0.000953,0.000112,0.000335,0,1,0,-0.015586,0,0.390000,0,14,0,202
1364, 101,20377,20359,-5042,0,0,1.539814,0.423490,-9.667635,-0.000553,-0.061314,-0.008158,-51.870800,134.522064,14.513300,1.541347,0.435598,-9.669318,-0.005939,0.001897,-0.001495,86.436310,8.466249,10.552641,-0.720966,-0.682934,0.008922,-0.117172,-0.719036,-0.684963,0.009235,-0.117165,1978.828735,80197.476562,0.071471,-0.581408,1.269287,-0.152954,-0.245703,26.000000,31.596296,9.798650,9.801082,1978.981689,1.269287,-0.518708,1.345221,0.145133,0.000953,0.000114,0.000335,0,1,0,-0.026082,0,0.390000,0,14,0,202
1365, 101,20460,20443,-4959,0,0,1.510893,0.290278,-9.672656,-0.008975,0.049566,-0.007445,-51.593102,134.580536,14.498685,1.507839,0.268060,-9.674106,-0.001247,-0.000285,-0.002268,86.113645,8.463384,10.552250,-0.720965,-0.682935,0.008921,-0.117171,-0.720965,-0.682935,0.008921,-0.117171,1978.828735,80197.476562,0.072870,-0.581575,1.269287,-0.152954,-0.243096,26.000000,31.596296,9.794250,9.794578,1978.981689,1.269287,-0.515931,1.345805,0.144987,0.000953,0.000115,0.000335,0,1,0,-0.007080,0,0.390000,0,14,0,202
1366, 101,20514,20508,-4905,0,0,1.461203,0.337075,-9.684028,-0.059166,-0.026513,-0.001769,-51.432331,134.916687,14.294065,1.440824,0.363796,-9.688466,0.017820,-0.001514,-0.002448,86.651051,8.426564,10.549766,-0.717794,-0.686304,0.009689,-0.116895,-0.717794,-0.686304,0.009689,-0.116895,1978.875366,80197.476562,0.088496,-0.581403,1.269287,-0.106323,-0.238246,26.000000,31.596296,9.799445,9.801770,1978.981689,1.269287,-0.514323,1.349167,0.142941,0.000953,0.000116,0.000335,0,1,0,-0.006584,0,0.390000,0,14,0,202
1367, 101,20567,20564,-4852,0,0,1.431322,0.356373,-9.684995,-0.091878,-0.040387,-0.004841,-51.607716,134.551300,15.127155,1.426464,0.354223,-9.683678,0.028441,-0.002486,-0.001586,86.652083,8.426668,10.549523,-0.717788,-0.686310,0.009688,-0.116894,-0.717788,-0.686310,0.009688,-0.116894,1978.875366,80197.476562,0.145965,-0.580915,1.269287,-0.106323,-0.222449,26.000000,31.596296,9.796673,9.794584,1978.981689,1.269287,-0.516077,1.345513,0.151272,0.000953,0.000117,0.000335,0,1,0,0.000083,0,0.390000,0,14,0,202
1368, 101,20631,20614,-4788,0,0,1.470063,0.389088,-9.683688,0.017164,-0.035317,-0.000496,-51.593102,134.916687,14.747150,1.474332,0.392517,-9.683678,0.008970,-0.002661,0.001791,86.454977,7.928653,10.519076,-0.719496,-0.684999,0.012470,-0.113784,-0.719496,-0.684999,0.012470,-0.113784,1978.965698,80197.476562,0.233818,-0.580397,1.269287,-0.015991,-0.200966,26.000000,31.596296,9.802361,9.803129,1978.981689,1.269287,-0.515931,1.349167,0.147472,0.000953,0.000117,0.000335,0,1,0,-0.006235,0,0.390000,0,14,0,202
1369, 101,20710,20702,-4709,0,0,1.488541,0.354505,-9.669435,0.051638,-0.015045,-0.011388,-51.593102,134.448990,15.492546,1.488692,0.354223,-9.669318,0.000640,-0.000549,0.002080,86.455175,7.928619,10.519169,-0.719696,-0.684530,0.010766,-0.115500,-0.719494,-0.685000,0.012471,-0.113784,1978.926270,80197.476562,0.099210,-0.579685,1.269287,-0.055420,-0.167322,26.000000,31.596296,9.789760,9.789658,1978.981689,1.269287,-0.515931,1.344490,0.154925,0.000953,0.000119,0.000335,0,1,0,-0.011119,0,0.390000,0,14,0,202
1370, 101,20791,20788,-4628,0,0,1.559378,0.350507,-9.655346,0.076850,-0.010590,-0.014571,-51.505409,134.551300,15.521776,1.560494,0.349436,-9.654958,-0.001459,-0.002474,0.002600,86.372496,8.199933,10.536640,-0.719702,-0.684524,0.010768,-0.115501,-0.719702,-0.684524,0.010768,-0.115501,1978.971802,80197.476562,0.120370,-0.579313,1.269287,-0.009888,-0.138045,26.000000,31.596296,9.786736,9.786493,1978.981689,1.269287,-0.515054,1.345513,0.155218,0.000953,0.000120,0.000335,0,1,0,-0.013910,0,0.390000,0,14,0,202
1371, 101,20871,20855,-4548,0,0,1.519611,0.356054,-9.671964,-0.019759,-0.010273,-0.008325,-50.833088,134.258987,15.054078,1.517413,0.359009,-9.674106,0.014921,-0.004601,-0.002326,86.414502,8.558978,10.559550,-0.719065,-0.684839,0.008665,-0.117756,-0.719065,-0.684839,0.008665,-0.117756,1979.004028,80197.476562,0.109564,-0.579404,1.269287,0.022339,-0.114223,26.000000,31.596296,9.797085,9.798966,1978.981689,1.269287,-0.508331,1.342590,0.148787,0.000953,0.000121,0.000335,0,1,0,-0.022839,0,0.390000,0,14,0,202
1372, 101,20951,20943,-4468,0,0,1.508116,0.303095,-9.664772,-0.002620,0.007017,-0.014579,-51.300789,134.258987,15.054078,1.507839,0.301568,-9.664531,-0.008857,-0.002718,-0.001672,86.595788,8.415088,10.550527,-0.718136,-0.685956,0.009710,-0.116837,-0.718136,-0.685956,0.009710,-0.116837,1979.004028,80197.476562,0.079239,-0.579135,1.269287,0.022339,-0.087324,26.000000,31.596296,9.786424,9.786097,1978.981689,1.269287,-0.513008,1.342590,0.150541,0.000953,0.000123,0.000335,0,1,0,-0.013814,0,0.390000,0,14,0,202
1373, 101,21032,21029,-4387,0,0,1.442500,0.317993,-9.673244,-0.070329,0.004499,-0.015878,-51.213097,134.522064,14.498685,1.436037,0.315928,-9.674106,-0.016579,-0.000065,-0.000097,86.594627,8.414840,10.550668,-0.718375,-0.686062,0.011954,-0.114511,-0.718143,-0.685949,0.009711,-0.116837,1978.997437,80197.476562,-0.008188,-0.579242,1.269287,0.015747,-0.072704,26.000000,31.596296,9.785376,9.785210,1978.981689,1.269287,-0.512131,1.345221,0.144987,0.000953,0.000124,0.000335,0,1,0,-0.015326,0,0.390000,0,14,0,202
1374, 101,21112,21096,-4307,0,0,1.497791,0.316449,-9.679963,0.134306,0.156563,-0.018101,-51.140015,134.317444,15.331775,1.474332,0.392517,-9.688466,0.020224,0.001137,-0.001259,86.621081,8.044873,10.528521,-0.718378,-0.686059,0.011954,-0.114511,-0.718378,-0.686059,0.011954,-0.114511,1978.967651,80197.476562,-0.093757,-0.579613,1.269287,-0.014038,-0.073300,26.000000,31.596296,9.800266,9.807859,1978.981689,1.269287,-0.511400,1.343174,0.153318,0.000953,0.000125,0.000335,0,1,0,-0.017930,0,0.390000,0,14,0,202
1375, 101,21191,21183,-4228,0,0,1.496302,0.357053,-9.675329,0.020261,0.003498,-0.004165,-50.979244,134.916687,14.820229,1.498266,0.354223,-9.674106,-0.011371,0.005371,-0.001113,86.324118,8.148336,10.534779,-0.720044,-0.684212,0.011036,-0.115190,-0.720044,-0.684212,0.011036,-0.115190,1978.999878,80197.476562,0.034918,-0.579360,1.269287,0.018188,-0.070496,26.000000,31.596296,9.796857,9.795846,1978.981689,1.269287,-0.509792,1.349167,0.148202,0.000953,0.000127,0.000335,0,1,0,-0.001536,0,0.390000,0,14,0,202
1376, 101,21273,21270,-4146,0,0,1.537303,0.337476,-9.655007,-0.031168,0.023493,-0.018626,-51.242329,134.565918,15.404852,1.517413,0.330289,-9.654958,0.006588,-0.000214,-0.000851,86.264961,8.719692,10.572280,-0.719780,-0.683921,0.007564,-0.118792,-0.719780,-0.683921,0.007564,-0.118792,1979.045410,80197.476562,0.089609,-0.579072,1.269287,0.063721,-0.058267,26.000000,31.596296,9.782452,9.779051,1978.981689,1.269287,-0.512423,1.345659,0.154049,0.000953,0.000128,0.000335,0,1,0,-0.011045,0,0.390000,0,14,0,202
1377, 101,21354,21345,-4065,0,0,1.517574,0.330347,-9.654959,-0.049054,0.033794,-0.022102,-50.511543,133.995895,16.077169,1.517413,0.330289,-9.654958,0.014353,-0.000543,-0.001638,86.265720,8.719802,10.572079,-0.719776,-0.683926,0.007563,-0.118792,-0.719776,-0.683926,0.007563,-0.118792,1979.045410,80197.476562,0.121805,-0.579347,1.269287,0.063721,-0.043260,26.000000,31.596296,9.779078,9.779051,1978.981689,1.269287,-0.505115,1.339959,0.160772,0.000953,0.000129,0.000335,0,1,0,-0.022028,0,0.390000,0,14,0,202
1378, 101,21438,21431,-3981,0,0,1.494066,0.395542,-9.683445,-0.017243,0.007090,0.004990,-51.183861,134.478226,14.893307,1.493479,0.392517,-9.683678,-0.016667,-0.000013,0.000207,86.086072,8.307082,10.543986,-0.721296,-0.682739,0.009840,-0.116204,-0.721296,-0.682739,0.009840,-0.116204,1979.057739,80197.476562,0.065279,-0.579210,1.269287,0.076050,-0.033748,26.000000,31.596296,9.806008,9.806026,1978.981689,1.269287,-0.511839,1.344782,0.155802,0.000953,0.000131,0.000335,0,1,0,0.004942,0,0.390000,0,14,0,202
1379, 101,21526,21517,-3893,0,0,1.466393,0.312639,-9.675022,-0.019715,-0.066097,-0.010732,-50.993858,134.580536,15.448700,1.464758,0.354223,-9.669318,0.019041,-0.003187,0.001541,87.016200,8.259062,10.541057,-0.715782,-0.688564,0.011069,-0.115817,-0.715782,-0.688564,0.011069,-0.115817,1979.076782,80197.476562,0.076210,-0.578145,1.269287,0.095093,-0.019877,26.000000,31.596296,9.790511,9.786046,1978.981689,1.269287,-0.509939,1.345805,0.154487,0.000954,0.000132,0.000335,0,1,0,0.000533,0,0.390000,0,14,0,202
1380, 101,21600,21589,-3819,0,0,1.455456,0.377173,-9.674023,-0.041881,-0.127732,-0.011758,-51.227715,134.332062,15.682549,1.455185,0.378157,-9.674106,-0.004561,-0.002696,0.002589,87.016508,8.258967,10.541126,-0.720032,-0.684329,0.011716,-0.114502,-0.715780,-0.688566,0.011070,-0.115817,1979.143433,80197.476562,0.191079,-0.577442,1.269287,0.161743,0.012324,26.000000,31.596296,9.790165,9.790244,1978.981689,1.269287,-0.512277,1.343321,0.156825,0.000954,0.000133,0.000335,0,1,0,-0.011929,0,0.390000,0,14,0,202
1381, 101,21680,21677,-3739,0,0,1.599442,0.284418,-9.664973,0.154068,0.053020,-0.001803,-51.066940,135.048233,16.018707,1.603575,0.272847,-9.664531,-0.017586,-0.001870,0.003335,86.344294,8.038492,10.528671,-0.720039,-0.684321,0.011719,-0.114503,-0.720039,-0.684321,0.011719,-0.114503,1979.163086,80197.476562,0.117022,-0.576504,1.269287,0.181396,0.047778,26.000000,31.596296,9.800551,9.800462,1978.981689,1.269287,-0.510669,1.350482,0.160187,0.000953,0.000134,0.000335,0,1,0,-0.001151,0,0.390000,0,14,0,202
1382, 101,21761,21745,-3658,0,0,1.543251,0.341301,-9.662294,0.009529,-0.051605,-0.017172,-51.446945,134.463608,15.872552,1.517413,0.344649,-9.669318,0.010218,-0.002770,-0.001728,86.655819,8.870405,10.580073,-0.717279,-0.686391,0.007060,-0.119704,-0.717279,-0.686391,0.007060,-0.119704,1979.173218,80197.476562,0.057898,-0.575850,1.269287,0.191528,0.069696,26.000000,31.596296,9.790711,9.793724,1978.981689,1.269287,-0.514469,1.344636,0.158726,0.000953,0.000135,0.000335,0,1,0,-0.015968,0,0.390000,0,14,0,202
1383, 101,21841,21833,-3578,0,0,1.478418,0.375114,-9.673617,-0.054206,-0.027342,-0.008063,-51.023090,134.068985,14.820229,1.474332,0.378157,-9.674106,-0.012442,0.000754,-0.001732,86.415294,8.463842,10.555067,-0.719162,-0.684831,0.009243,-0.117168,-0.719162,-0.684831,0.009243,-0.117168,1979.173218,80197.476562,0.045327,-0.575619,1.269287,0.191528,0.091037,26.000000,31.596296,9.793126,9.793109,1978.981689,1.269287,-0.510231,1.340690,0.148202,0.000953,0.000137,0.000335,0,1,0,-0.007947,0,0.390000,0,14,0,202
1384, 101,21923,21922,-3496,0,0,1.467220,0.285156,-9.687005,0.000956,-0.039939,0.000557,-51.388485,134.492844,15.404852,1.474332,0.306355,-9.688466,0.026030,-0.000809,-0.002651,87.024574,8.162015,10.537136,-0.715832,-0.688602,0.011668,-0.115217,-0.715832,-0.688602,0.011668,-0.115217,1979.179810,80197.476562,0.028710,-0.575235,1.269287,0.198120,0.105968,26.000000,31.596296,9.801639,9.804789,1978.981689,1.269287,-0.513885,1.344928,0.154049,0.000953,0.000138,0.000335,0,1,0,-0.007360,0,0.390000,0,14,0,202
1385, 101,22001,21989,-3418,0,0,1.503644,0.386748,-9.676727,0.028308,-0.180659,-0.015015,-50.891556,134.083603,15.667933,1.498266,0.373370,-9.683678,-0.016476,0.004134,0.001118,87.025762,8.162195,10.536891,-0.715825,-0.688610,0.011666,-0.115216,-0.715825,-0.688610,0.011666,-0.115216,1979.156982,80197.476562,-0.059421,-0.574911,1.269287,0.175293,0.108563,26.000000,31.596296,9.800488,9.806009,1978.981689,1.269287,-0.507454,1.341713,0.152441,0.000953,0.000139,0.000335,0,1,0,-0.013731,0,0.390000,0,14,0,202
1386, 101,22082,22078,-3337,0,0,1.533157,0.268935,-9.661842,0.054131,0.095170,-0.015189,-50.774628,134.536682,15.229465,1.536560,0.258487,-9.659744,-0.007257,0.000526,0.002079,86.250755,8.264315,10.543237,-0.720358,-0.683768,0.010275,-0.115933,-0.720358,-0.683768,0.010275,-0.115933,1979.126465,80197.476562,-0.089196,-0.574706,1.269287,0.144775,0.102696,26.000000,31.596296,9.786424,9.784605,1978.981689,1.269287,-0.507746,1.345367,0.152295,0.000953,0.000141,0.000335,0,1,0,-0.010153,0,0.390000,0,14,0,202
1387, 101,22162,22146,-3257,0,0,1.551054,0.385311,-9.662828,-0.028580,-0.025537,0.008285,-51.286171,134.098221,16.296404,1.589215,0.387730,-9.650170,0.019997,-0.000682,0.001341,86.404338,8.200509,10.539173,-0.719509,-0.684723,0.010811,-0.115518,-0.719509,-0.684723,0.010811,-0.115518,1979.145508,80197.476562,-0.033946,-0.574848,1.269287,0.163818,0.094672,26.000000,31.596296,9.794105,9.787835,1978.981689,1.269287,-0.512862,1.340982,0.162964,0.000953,0.000142,0.000335,0,1,0,0.006495,0,0.390000,0,14,0,202
1388, 101,22243,22236,-3176,0,0,1.532278,0.400778,-9.667697,-0.007850,-0.006557,-0.004431,-51.286171,134.288208,15.375622,1.526986,0.402090,-9.669318,-0.006482,-0.002106,0.001509,86.088968,8.476796,10.557467,-0.721093,-0.682782,0.008841,-0.117285,-0.721093,-0.682782,0.008841,-0.117285,1979.157593,80197.476562,0.075413,-0.574427,1.269287,0.175903,0.096907,26.000000,31.596296,9.796575,9.797401,1978.981689,1.269287,-0.512862,1.342882,0.153756,0.000953,0.000143,0.000335,0,1,0,-0.006877,0,0.390000,0,14,0,202
1389, 101,22328,22303,-3091,0,0,1.489472,0.242338,-9.678025,-0.022224,0.157460,-0.007321,-51.446945,134.302826,15.419468,1.483905,0.229766,-9.678891,-0.007332,-0.003820,-0.001103,86.087595,8.476455,10.557608,-0.721102,-0.682773,0.008843,-0.117284,-0.721102,-0.682773,0.008843,-0.117284,1979.157593,80197.476562,0.028885,-0.573957,1.269287,0.175903,0.098344,26.000000,31.596296,9.794970,9.794677,1978.981689,1.269287,-0.514469,1.343028,0.154195,0.000953,0.000144,0.000335,0,1,0,-0.005964,0,0.390000,0,14,0,202
1390, 101,22411,22410,-3008,0,0,1.484185,0.297520,-9.677008,-0.017197,-0.037731,-0.006406,-51.198483,134.258987,15.287927,1.459971,0.287207,-9.683678,0.018183,-0.002879,0.001273,86.918248,8.359574,10.550288,-0.716259,-0.687966,0.010389,-0.116479,-0.716259,-0.687966,0.010389,-0.116479,1979.171143,80197.476562,0.088004,-0.573575,1.269287,0.189453,0.108864,26.000000,31.596296,9.794682,9.797327,1978.981689,1.269287,-0.511985,1.342590,0.152879,0.000954,0.000146,0.000335,0,1,0,-0.012478,0,0.390000,0,14,0,202
1391, 101,22496,22471,-2923,0,0,1.499371,0.352631,-9.687981,0.015775,-0.069341,0.008402,-51.315403,134.405151,14.937154,1.503052,0.359009,-9.688466,-0.002086,0.001182,0.001595,86.775675,8.185892,10.540639,-0.717299,-0.687049,0.011287,-0.115405,-0.717299,-0.687049,0.011287,-0.115405,1979.171143,80197.476562,-0.087422,-0.573317,1.269287,0.189453,0.106563,26.000000,31.596296,9.809661,9.810934,1978.981689,1.269287,-0.513154,1.344051,0.149372,0.000954,0.000147,0.000335,0,1,0,0.005252,0,0.390000,0,14,0,202
1392, 101,22577,22576,-2842,0,0,1.583434,0.260425,-9.659973,0.108865,0.000860,-0.009253,-51.330017,134.332062,15.068693,1.594001,0.258487,-9.659744,0.022248,0.000401,0.003141,86.799717,8.240776,10.543969,-0.717097,-0.687208,0.010983,-0.115748,-0.717097,-0.687208,0.010983,-0.115748,1979.176880,80197.476562,-0.009736,-0.572914,1.269287,0.195190,0.110355,26.000000,31.596296,9.792353,9.793790,1978.981689,1.269287,-0.513300,1.343321,0.150687,0.000954,0.000148,0.000335,0,1,0,-0.012639,0,0.390000,0,14,0,202
1393, 101,22656,22648,-2763,0,0,1.500765,0.333023,-9.659746,0.015273,-0.056269,-0.019870,-51.549255,134.682846,14.732533,1.498266,0.335075,-9.659744,0.023534,0.000995,-0.000474,86.800926,8.241036,10.543830,-0.718784,-0.685364,0.010200,-0.116280,-0.717089,-0.687215,0.010982,-0.115748,1979.176880,80197.476562,0.007811,-0.572849,1.269287,0.195190,0.115487,26.000000,31.596296,9.781303,9.780989,1978.981689,1.269287,-0.515493,1.346828,0.147325,0.000954,0.000149,0.000335,0,1,0,-0.019033,0,0.390000,0,14,0,202
1394, 101,22737,22736,-2682,0,0,1.555154,0.382494,-9.663681,0.044898,-0.063403,-0.005823,-50.935398,134.171295,14.864075,1.555707,0.373370,-9.664531,-0.023274,0.002521,-0.002513,86.503137,8.321453,10.548565,-0.718787,-0.685361,0.010199,-0.116280,-0.718787,-0.685361,0.010199,-0.116280,1979.158691,80197.476562,-0.058027,-0.573187,1.269287,0.177002,0.112266,26.000000,31.596296,9.795485,9.796060,1978.981689,1.269287,-0.509208,1.345075,0.151856,0.000954,0.000150,0.000335,0,1,0,-0.007422,0,0.390000,0,14,0,202
1395, 101,22816,22807,-2603,0,0,1.440380,0.391595,-9.678484,-0.109659,0.002635,-0.008704,-51.812332,134.522064,15.214850,1.392956,0.397304,-9.688466,0.024141,-0.004095,-0.002921,86.184399,8.549893,10.563044,-0.720444,-0.683392,0.008507,-0.117742,-0.720444,-0.683392,0.008507,-0.117742,1979.101562,80197.476562,-0.227544,-0.573605,1.269287,0.119873,0.088098,26.000000,31.596296,9.792911,9.796150,1978.981689,1.269287,-0.518123,1.347121,0.148495,0.000954,0.000151,0.000335,0,1,0,-0.014686,0,0.390000,0,14,0,202
1396, 101,22900,22898,-2519,0,0,1.444304,0.378660,-9.674469,0.002573,0.003574,-0.011989,-51.593102,134.960526,15.448700,1.445611,0.378157,-9.674106,0.015717,-0.003787,0.001946,86.253698,7.933884,10.521693,-0.720690,-0.683735,0.012252,-0.113853,-0.720690,-0.683735,0.012252,-0.113853,1979.101562,80197.476562,-0.030773,-0.573812,1.269287,0.119873,0.072809,26.000000,31.596296,9.789012,9.788826,1978.981689,1.269287,-0.515931,1.349605,0.154487,0.000954,0.000153,0.000335,0,1,0,-0.011526,0,0.390000,0,14,0,202
1397, 101,22979,22970,-2440,0,0,1.558142,0.344097,-9.666850,0.120762,0.017396,-0.004097,-51.359253,134.580536,14.761765,1.584428,0.325502,-9.659744,-0.010320,-0.001815,0.003641,86.253193,7.933675,10.521858,-0.719504,-0.684365,0.008552,-0.117839,-0.720693,-0.683732,0.012254,-0.113853,1979.046265,80197.476562,-0.073747,-0.573723,1.269287,0.064575,0.060246,26.000000,31.596296,9.797663,9.794234,1978.981689,1.269287,-0.513593,1.345805,0.147618,0.000954,0.000154,0.000335,0,1,0,0.004907,0,0.390000,0,14,0,202
1398, 101,23061,23057,-2358,0,0,1.577934,-0.360452,9.655854,3.037755,-0.529440,-19.093311,-51.958488,-134.638992,-13.840982,1.589215,-0.373370,9.650170,-0.002845,0.001119,-0.003103,86.338482,8.567834,10.563577,-0.719506,-0.684363,0.008554,-0.117839,-0.719506,-0.684363,0.008554,-0.117839,1979.003662,80197.476562,-0.182221,-0.573689,1.269287,0.021973,0.031130,26.000000,31.596296,9.790573,9.787277,1978.981689,1.269287,-0.519585,-1.346390,-0.138410,0.000953,0.000155,0.000335,0,1,0,-0.002636,0,0.390000,0,14,0,202
1399, 101,23141,23139,-2278,0,0,1.570557,-0.359366,9.668815,2.703943,-0.473843,-0.391115,-51.432331,-134.828995,-14.761765,1.570068,-0.359009,9.669318,-0.003675,0.001117,0.001004,96.901601,155.307205,-11.307112,-0.213151,-0.095414,-0.660536,-0.713551,-0.213151,-0.095414,-0.660536,-0.713551,1979.029297,80197.476562,-0.054379,-0.973848,1.269287,0.047607,0.000550,26.000000,31.596296,9.802132,9.802536,1978.981689,1.269287,-0.514323,-1.348290,-0.147618,0.000953,0.000156,0.000335,0,1,0,-0.392352,0,0.390000,0,14,0,202
1400, 101,23222,23220,-2197,0,0,1.559013,-0.309251,9.665044,0.295285,-0.093770,-0.011044,-51.446945,-134.536682,-15.463315,1.546134,-0.291994,9.669318,0.008219,0.000110,0.004564,93.901892,169.548122,-9.898115,-0.124725,-0.007668,-0.682995,-0.719655,-0.124725,-0.007668,-0.682995,-0.719655,1978.978760,80197.476562,-0.072789,-0.994659,1.269287,-0.002930,-0.025755,26.000000,31.596296,9.794857,9.796505,1978.981689,1.269287,-0.514469,-1.345367,-0.154633,0.000953,0.000158,0.000335,0,1,0,-0.026051,0,0.390000,0,14,0,202
1401, 101,23304,23301,-2115,0,0,1.485268,-0.363528,9.680201,0.378656,-0.052977,-0.008234,-51.110786,-134.828995,-16.091785,1.503052,-0.378157,9.678891,0.002756,-0.000815,0.003035,93.901284,169.548081,-9.897788,-0.112208,0.004513,-0.684777,-0.720048,-0.124724,-0.007669,-0.682998,-0.719652,1978.978760,80197.476562,-0.157544,-0.995088,1.269287,-0.002930,-0.056587,26.000000,31.596296,9.800227,9.802199,1978.981689,1.269287,-0.511108,-1.348290,-0.160918,0.000953,0.000159,0.000335,0,1,0,-0.014337,0,0.390000,0,14,0,202
1402, 101,23386,23382,-2033,0,0,1.485585,-0.312781,9.678894,0.028880,-0.055140,-0.003964,-51.417713,-134.595139,-15.638701,1.483905,-0.306355,9.678891,0.010947,-0.001591,-0.000688,93.600578,171.536581,-9.765517,-0.112208,0.004512,-0.684778,-0.720047,-0.112208,0.004512,-0.684778,-0.720047,1978.950562,80197.476562,-0.082874,-0.994811,1.269287,-0.031128,-0.081467,26.000000,31.596296,9.797234,9.796773,1978.981689,1.269287,-0.514177,-1.345951,-0.159895,0.000953,0.000160,0.000335,0,1,0,-0.002667,0,0.390000,0,14,0,202
1403, 101,23471,23470,-1948,0,0,1.470235,-0.376478,9.670237,0.037379,0.001157,-0.012466,-51.943874,-133.995895,-15.857937,1.450398,-0.368583,9.664531,0.008606,-0.001329,-0.001241,93.626232,171.629321,-9.759535,-0.111625,0.005041,-0.684608,-0.720296,-0.111625,0.005041,-0.684608,-0.720296,1978.944458,80197.476562,-0.068459,-0.994177,1.269287,-0.037231,-0.109297,26.000000,31.596296,9.788606,9.779707,1978.981689,1.269287,-0.519439,-1.339959,-0.158579,0.000953,0.000162,0.000335,0,1,0,0.008467,0,0.390000,0,14,0,202
1404, 101,23560,23550,-1859,0,0,1.562340,-0.396592,9.659920,-0.010873,0.006140,-0.007529,-51.373871,-134.156677,-15.565623,1.565281,-0.397304,9.659744,0.005418,0.000020,-0.002591,93.805306,171.397655,-9.774815,-0.113092,0.003482,-0.683504,-0.721124,-0.113092,0.003482,-0.683504,-0.721124,1978.916382,80197.476562,-0.091337,-0.994046,1.269287,-0.065308,-0.138212,26.000000,31.596296,9.793479,9.793805,1978.981689,1.269287,-0.518562,-1.341567,-0.155656,0.000954,0.000163,0.000335,0,1,0,-0.008519,0,0.390000,0,14,0,202
1405, 101,23638,23633,-1781,0,0,1.598144,-0.365630,9.656174,-0.051541,-0.018434,-0.006795,-51.826954,-134.273605,-15.361005,1.603575,-0.363796,9.654958,0.008587,0.004778,-0.000069,93.805531,171.397792,-9.774895,-0.114796,0.001960,-0.684120,-0.720277,-0.113092,0.003483,-0.683503,-0.721126,1978.866211,80197.476562,-0.147858,-0.993799,1.269287,-0.115479,-0.168911,26.000000,31.596296,9.794358,9.793979,1978.981689,1.269287,-0.518270,-1.342736,-0.153610,0.000954,0.000164,0.000335,0,1,0,-0.005727,0,0.390000,0,14,0,202
1406, 101,23719,23715,-1700,0,0,1.514340,-0.362376,9.667862,0.077664,-0.019141,-0.008876,-51.432331,-134.434372,-15.185618,1.526986,-0.363796,9.669318,0.003120,0.003951,0.000515,93.710878,171.127207,-9.792770,-0.114794,0.001961,-0.684122,-0.720275,-0.114794,0.001961,-0.684122,-0.720275,1978.805176,80197.476562,-0.160216,-0.993833,1.269287,-0.176514,-0.195321,26.000000,31.596296,9.792451,9.795905,1978.981689,1.269287,-0.514323,-1.344344,-0.151856,0.000954,0.000165,0.000335,0,1,0,-0.017145,0,0.390000,0,14,0,202
1407, 101,23799,23796,-1620,0,0,1.494353,-0.303245,9.664657,0.026548,-0.065892,-0.017055,-51.578487,-134.273605,-15.741012,1.493479,-0.301568,9.664531,-0.000436,0.004309,0.001077,93.622585,171.478702,-9.769950,-0.112578,0.004149,-0.684646,-0.720118,-0.112578,0.004149,-0.684646,-0.720118,1978.805176,80197.476562,-0.156795,-0.994008,1.269287,-0.176514,-0.228554,26.000000,31.596296,9.784203,9.783894,1978.981689,1.269287,-0.515785,-1.342736,-0.157410,0.000953,0.000166,0.000335,0,1,0,-0.016211,0,0.390000,0,14,0,202
1408, 101,23881,23879,-1538,0,0,1.482090,-0.250977,9.664950,0.006527,-0.027019,-0.019892,-51.593102,-133.878983,-16.150248,1.479118,-0.244126,9.664531,0.024070,0.000948,-0.001021,93.080445,171.614636,-9.761879,-0.111701,0.005493,-0.688032,-0.717011,-0.111701,0.005493,-0.688032,-0.717011,1978.823730,80197.476562,0.036651,-0.993927,1.269287,-0.157959,-0.242747,26.000000,31.596296,9.781147,9.780109,1978.981689,1.269287,-0.515931,-1.338790,-0.161502,0.000953,0.000168,0.000335,0,1,0,-0.017696,0,0.390000,0,14,0,202
1409, 101,23962,23959,-1457,0,0,1.649240,2.769270,49.393459,5.129700,-5.090676,39.167091,-50.964630,-134.390533,-16.311020,1.608362,4.116641,64.645615,-0.311025,0.044221,0.074039,93.083143,171.615661,-9.761491,-0.111693,0.005495,-0.688015,-0.717028,-0.111693,0.005495,-0.688015,-0.717028,1978.794800,80197.476562,-0.081777,-0.919715,1.269287,-0.186890,-0.257831,26.000000,31.596296,49.498508,64.796524,1978.981689,1.269287,-0.513008,-1.344051,-0.164426,0.000953,0.000169,0.000335,0,1,0,4.103929,0,0.390000,0,14,0,202
1410, 101,24043,24041,-1376,0,0,13.365251,-2.468519,73.895500,-9.200955,8.040127,64.333794,-51.242329,-134.478226,-15.857937,14.527911,-3.116201,74.851051,-0.060205,-0.020985,0.002809,87.418444,177.254296,-9.734593,-0.075869,0.044820,-0.721447,-0.686840,-0.075869,0.044820,-0.721447,-0.686840,1978.780396,80197.476562,-0.056248,1.232642,1.269287,-0.201294,-0.232874,26.000000,31.596296,75.135002,76.311539,1978.981689,1.269287,-0.512423,-1.344782,-0.158579,0.000953,0.000170,0.000335,0,1,0,61.836533,0,0.390000,0,14,0,202
1411, 101,24124,24122,-1295,0,0,9.218249,-1.332924,78.341278,-1.391894,4.756837,68.936180,-51.680798,-134.419769,-15.741012,9.382111,-1.766326,78.259247,-0.442636,-0.061509,0.022840,88.618672,174.555525,-9.637535,-0.092479,0.026985,-0.715032,-0.692422,-0.092479,0.026985,-0.715032,-0.692422,1978.922974,80197.476562,0.259842,4.876096,1.269287,-0.058716,-0.065049,26.000000,31.596296,78.893021,78.839417,1978.981689,1.269287,-0.516808,-1.344198,-0.157410,0.000953,0.000172,0.000335,0,1,0,69.148811,0,0.390000,0,14,0,202
1412, 101,24204,24203,-1215,0,0,6.369700,1.258029,76.888779,0.834501,1.676764,67.338692,-51.520027,-134.799774,-15.872552,5.514383,0.406877,76.684395,0.166594,0.041914,-0.059167,88.625939,174.555265,-9.641025,-0.089392,0.029573,-0.708041,-0.699866,-0.092504,0.026999,-0.714987,-0.692465,1979.219604,80197.476562,0.545095,8.572680,1.269287,0.237915,0.242624,26.000000,31.596296,77.162422,76.883484,1978.981689,1.269287,-0.515200,-1.347998,-0.158726,0.000953,0.000173,0.000335,0,1,0,68.072319,0,0.390000,0,14,0,202
1413, 101,24286,24283,-1133,0,0,8.861855,-0.523234,72.768860,-2.418043,2.354392,63.429615,-51.461559,-134.288208,-15.770243,9.190639,-0.617496,72.381065,0.766057,0.081157,-0.007947,89.723646,175.112950,-9.648779,-0.089384,0.029590,-0.708186,-0.699720,-0.089384,0.029590,-0.708186,-0.699720,1979.219604,80197.476562,0.655141,12.248548,1.269287,0.237915,0.670711,26.000000,31.596296,73.308350,72.964836,1978.981689,1.269287,-0.516369,-1.344344,-0.159164,0.000953,0.000174,0.000335,0,1,0,64.362778,0,0.390000,0,14,0,202
1414, 101,24369,24360,-1050,0,0,8.997016,-0.304677,75.369698,-0.136370,0.154967,66.104126,-51.724644,-134.346695,-15.068693,8.994380,-0.296781,75.449402,0.725972,0.034925,0.064675,91.249046,173.429568,-9.656498,-0.099998,0.017952,-0.699178,-0.707692,-0.099998,0.017952,-0.699178,-0.707692,1980.592163,80197.476562,3.625647,15.835047,1.610474,1.610474,1.511591,26.000000,31.596296,75.905403,75.984207,1978.981689,1.610474,-0.515931,-1.343467,-0.154925,0.000953,0.000175,0.000335,0,1,0,65.895813,0,0.390000,0,14,0,202
1415, 101,25418,25641,-1,0,0,7.667665,-0.186729,73.672989,-0.853514,0.838575,64.260498,-51.841568,-134.390533,-15.346390,7.989154,-0.507400,73.563416,-1.614596,-0.075980,-0.104746,90.502855,174.829046,-9.795581,-0.092216,0.028125,-0.703448,-0.704178,-0.092216,0.028125,-0.703448,-0.704178,2021.962646,80197.476562,24.192236,74.175293,42.980957,42.980957,43.792725,26.000000,31.596296,74.071159,73.997704,1978.981689,42.980957,-0.518416,-1.343905,-0.153464,0.000959,0.000201,0.000335,0,1,0,64.454826,1,0.390000,0,14,0,202
1416, 101,25763,25748,344,0,0,5.288412,0.144000,74.129929,1.475633,-0.062960,64.502785,-76.059631,-165.711792,-26.571178,5.222389,0.153177,74.142609,-0.990943,-0.308766,-0.100225,90.634575,174.822366,-9.818909,-0.092432,0.028121,-0.702634,-0.704962,-0.092432,0.028121,-0.702634,-0.704962,2035.109253,80197.476562,40.292553,81.523186,56.127563,56.127563,53.757641,26.000000,31.596296,74.318466,74.326462,1978.981689,56.127563,-0.760596,-1.657118,-0.265712,0.000962,0.000204,0.000335,0,1,0,64.485390,1,0.390000,0,14,0,202
1417, 101,25820,25817,401,0,0,5.224172,0.152930,74.142265,1.545344,-0.131942,64.509064,-87.649811,-178.091202,-29.903538,5.222389,0.153177,74.142609,-0.974104,-0.315051,-0.100103,90.672974,174.816984,-9.826146,-0.092519,0.028101,-0.702397,-0.705187,-0.092519,0.028101,-0.702397,-0.705187,2035.109253,80197.476562,22.354113,83.952881,56.127563,56.127563,56.887962,26.000000,31.596296,74.326248,74.326462,1978.981689,56.127563,-0.876498,-1.780912,-0.299035,0.000960,0.000205,0.000335,0,1,0,64.508659,1,0.390000,0,14,0,202
1418, 101,25881,25873,462,0,0,5.222437,0.153171,74.142601,1.554350,-0.182683,64.508980,-94.562996,-187.065186,-31.218943,5.222389,0.153177,74.142609,-0.973650,-0.315221,-0.100100,90.712200,174.811411,-9.833551,-0.092608,0.028080,-0.702155,-0.705417,-0.092608,0.028080,-0.702155,-0.705417,2035.109253,80197.476562,7.667460,86.408707,56.127563,56.127563,59.373043,26.000000,31.596296,74.326462,74.326462,1978.981689,56.127563,-0.945630,-1.870652,-0.312189,0.000958,0.000205,0.000335,0,1,0,64.509056,1,0.390000,0,14,0,202
1419, 101,25937,25927,518,0,0,7.316266,1.083789,73.458893,-0.680373,-0.754265,64.031059,-103.200821,-195.600708,-32.665886,7.333364,1.091388,73.453308,-0.505019,0.020785,0.102774,90.734473,174.814006,-9.832838,-0.092593,0.028073,-0.702018,-0.705556,-0.092593,0.028073,-0.702018,-0.705556,2050.219238,80197.476562,34.647041,88.979889,71.237549,71.237549,65.193596,26.000000,31.596296,73.830284,73.826538,1978.981689,71.237549,-1.032008,-1.956007,-0.326659,0.000957,0.000205,0.000335,0,1,0,64.065781,1,0.390000,0,14,0,202
1420, 101,26008,25999,589,0,0,7.467971,-0.338684,73.001678,-0.680579,0.643418,63.576469,-102.411583,-194.723755,-32.636658,7.472181,-0.378157,72.988991,-0.433405,0.096528,-0.077002,90.754335,174.820782,-9.835570,-0.092574,0.028116,-0.701893,-0.705681,-0.092574,0.028116,-0.701893,-0.705681,2050.219238,80197.476562,18.230156,91.913376,71.237549,71.237549,70.437347,26.000000,31.596296,73.383446,73.371445,1978.981689,71.237549,-1.024116,-1.947238,-0.326367,0.000956,0.000206,0.000335,0,1,0,63.608700,1,0.390000,0,14,0,202
1421, 101,26065,26054,646,0,0,6.004748,-0.054710,73.112801,0.456964,0.213787,63.813313,-102.776970,-194.621460,-33.382053,5.878180,-0.023934,73.012924,-0.262593,-0.085493,-0.144317,90.768877,174.823582,-9.842496,-0.092603,0.028164,-0.701801,-0.705767,-0.092603,0.028164,-0.701801,-0.705767,2066.758545,80197.476562,46.564499,94.395645,87.776855,87.776855,76.399643,26.000000,31.596296,73.358994,73.249168,1978.981689,87.776855,-1.027770,-1.946215,-0.333821,0.000955,0.000207,0.000335,0,1,0,64.667000,1,0.390000,0,14,0,202
1422, 101,26140,26140,721,0,0,5.688245,0.576640,73.283867,0.935686,-0.595362,63.697189,-102.762352,-194.256073,-33.104355,5.681921,0.593562,73.290558,-0.108872,-0.073411,-0.046849,90.779675,174.820768,-9.848733,-0.092661,0.028176,-0.701734,-0.705826,-0.092661,0.028176,-0.701734,-0.705826,2066.758545,80197.476562,30.358004,98.104126,87.776855,87.776855,84.988373,26.000000,31.596296,73.506561,73.512871,1978.981689,87.776855,-1.027624,-1.942561,-0.331044,0.000955,0.000208,0.000335,0,1,0,63.681236,1,0.390000,0,14,0,202
1423, 101,26195,26193,776,0,0,6.399354,0.541872,73.220512,0.238057,-0.438774,63.698929,-102.484657,-194.168381,-34.025139,6.419087,0.540907,73.218758,0.036977,0.016777,0.031936,90.779054,174.820809,-9.847902,-0.092655,0.028172,-0.701738,-0.705823,-0.092655,0.028172,-0.701738,-0.705823,2066.758545,80197.476562,10.412795,100.480110,87.776855,87.776855,88.706306,26.000000,31.596296,73.501625,73.501587,1978.981689,87.776855,-1.024847,-1.941684,-0.340251,0.000954,0.000209,0.000335,0,1,0,63.698799,1,0.390000,0,14,0,202
1424, 101,26420,26416,1001,0,0,6.355930,1.001670,71.801422,0.090897,-0.839393,62.283203,-103.843903,-197.237640,-33.513596,6.328138,1.033947,71.797081,0.496922,0.012327,-0.026012,90.746276,174.807572,-9.842424,-0.092694,0.028083,-0.701944,-0.705616,-0.092694,0.028083,-0.701944,-0.705616,2094.798340,80197.476562,35.864975,111.028610,115.816650,115.816650,114.176842,26.000000,31.596296,72.089149,72.082832,1978.981689,115.816650,-1.038439,-1.972376,-0.335136,0.000953,0.000212,0.000335,0,1,0,62.300720,1,0.380000,0,14,0,202
1425, 101,26476,26471,1057,0,0,6.414408,0.625601,72.434120,0.156473,-0.438991,62.917778,-104.223907,-197.237640,-33.966675,6.447808,0.454745,72.706573,0.614586,0.117420,-0.018678,90.724037,174.806247,-9.841357,-0.092690,0.028086,-0.702082,-0.705479,-0.092690,0.028086,-0.702082,-0.705479,2094.798340,80197.476562,17.573837,113.498459,115.816650,115.816650,118.294212,26.000000,31.596296,72.720268,72.993332,1978.981689,115.816650,-1.042239,-1.972376,-0.339667,0.000954,0.000213,0.000335,0,1,0,62.278801,1,0.380000,0,14,0,202
1426, 101,26531,26521,1112,0,0,6.295078,-0.576238,71.432419,0.337137,0.532239,62.196583,-105.217766,-199.210770,-34.244373,6.280270,-0.679724,71.308830,0.689098,0.129853,-0.034784,90.699810,174.807340,-9.839877,-0.092668,0.028103,-0.702231,-0.705333,-0.092668,0.028103,-0.702231,-0.705333,2105.052246,80197.476562,29.728970,115.731506,126.070557,126.070557,121.962326,26.000000,31.596296,71.711578,71.588081,1978.981689,126.070557,-1.052178,-1.992108,-0.342444,0.000954,0.000214,0.000335,0,1,0,63.164974,1,0.390000,0,14,0,202
1427, 101,26597,26595,1178,0,0,6.164231,0.384991,70.967506,0.310611,-0.151713,61.433918,-105.203156,-199.093826,-34.536686,6.160600,0.411664,70.954605,0.848853,0.091720,-0.000908,90.663999,174.805824,-9.837150,-0.092652,0.028106,-0.702452,-0.705114,-0.092652,0.028106,-0.702452,-0.705114,2115.291260,80197.476562,70.516663,118.561272,136.309570,136.309570,130.082581,26.000000,31.596296,71.235756,71.222740,1978.981689,136.309570,-1.052032,-1.990938,-0.345367,0.000954,0.000215,0.000335,0,1,0,61.468060,1,0.390000,0,14,0,202
1428, 101,26653,26649,1234,0,0,6.668371,0.257245,70.465904,-0.208267,0.115247,60.979790,-105.670860,-199.444611,-33.732826,6.682360,0.253700,70.451988,1.057357,0.204187,-0.004658,90.623455,174.806206,-9.833638,-0.092618,0.028120,-0.702703,-0.704869,-0.092618,0.028120,-0.702703,-0.704869,2115.291260,80197.476562,39.106987,120.953041,136.309570,136.309570,135.436096,26.000000,31.596296,70.781197,70.768646,1978.981689,136.309570,-1.056709,-1.994446,-0.337328,0.000954,0.000215,0.000335,0,1,0,61.012741,1,0.390000,0,14,0,202
1429, 101,26726,26721,1307,0,0,5.830087,0.009794,70.475883,0.658986,0.292727,60.911942,-105.276237,-199.166901,-33.849751,5.748936,0.028721,70.480713,1.439181,0.142760,-0.058189,90.561499,174.804786,-9.829954,-0.092589,0.028138,-0.703085,-0.704491,-0.092589,0.028138,-0.703085,-0.704491,2126.015381,80197.476562,31.713364,123.961311,147.033691,147.033691,142.356293,26.000000,31.596296,70.716621,70.714790,1978.981689,147.033691,-1.052762,-1.991669,-0.338498,0.000954,0.000216,0.000335,0,1,0,60.918461,1,0.390000,0,14,0,202
1430, 101,26783,26776,1364,0,0,5.730963,-0.031981,70.098763,0.733453,0.390376,60.551517,-105.641624,-199.444611,-33.162819,5.729789,-0.033508,70.088203,1.543974,0.160329,-0.036838,90.501837,174.800414,-9.826527,-0.092580,0.028138,-0.703454,-0.704124,-0.092580,0.028138,-0.703454,-0.704124,2126.015381,80197.476562,27.745174,126.378540,147.033691,147.033691,147.558502,26.000000,31.596296,70.332649,70.322029,1978.981689,147.033691,-1.056416,-1.994446,-0.331628,0.000954,0.000217,0.000335,0,1,0,60.643261,1,0.390000,0,14,0,202
1431, 101,26853,26848,1434,0,0,6.633385,-0.825249,69.380531,-0.077457,1.433786,59.886009,-106.620872,-196.506866,-32.870502,6.658427,-0.847262,69.360603,1.772136,0.254237,0.084548,90.419677,174.797013,-9.817085,-0.092522,0.028126,-0.703961,-0.703624,-0.092522,0.028126,-0.703961,-0.703624,2137.086426,80197.476562,39.205200,129.315933,158.104736,158.104736,155.070984,26.000000,31.596296,69.701797,69.684616,1978.981689,158.104736,-1.066209,-1.965069,-0.328705,0.000954,0.000218,0.000335,0,1,0,59.932968,1,0.390000,0,14,0,202
1432, 101,26911,26903,1492,0,0,5.614357,0.029862,68.893188,0.424718,0.718901,59.326210,-106.679329,-196.579941,-32.563580,5.466516,0.095736,68.901070,1.906924,0.156107,-0.080538,90.346921,174.792204,-9.810521,-0.092494,0.028114,-0.704411,-0.703178,-0.092494,0.028114,-0.704411,-0.703178,2148.434570,80197.476562,53.872787,131.759415,169.452881,169.452881,162.975357,26.000000,31.596296,69.121590,69.117645,1978.981689,169.452881,-1.066793,-1.965799,-0.325636,0.000954,0.000219,0.000335,0,1,0,59.369144,1,0.390000,0,14,0,202
1433, 101,26982,26976,1563,0,0,5.335472,0.425012,68.112427,0.882719,0.186132,58.515446,-107.190880,-198.187668,-24.934229,5.318125,0.459532,68.034660,2.064998,0.233975,0.006275,90.254611,174.785320,-9.804060,-0.092473,0.028107,-0.704980,-0.702610,-0.092473,0.028107,-0.704980,-0.702610,2160.002686,80197.476562,51.712200,134.581039,181.020996,181.020996,172.086288,26.000000,31.596296,68.322403,68.243744,1978.981689,181.020996,-1.071909,-1.981877,-0.249342,0.000954,0.000220,0.000335,0,1,0,58.718880,1,0.390000,0,14,0,202
1434, 101,27040,27031,1621,0,0,6.199647,-0.468638,67.301613,0.693060,0.398382,57.739788,-105.817009,-199.780762,-27.857351,6.510036,-0.813755,67.292709,2.181690,0.277001,0.020817,90.170867,174.781440,-9.795272,-0.092423,0.028096,-0.705497,-0.702099,-0.092423,0.028096,-0.705497,-0.702099,2171.933838,80197.476562,49.856518,136.922440,192.952148,192.952148,178.715820,26.000000,31.596296,67.588181,67.611771,1978.981689,192.952148,-1.058170,-1.997808,-0.278574,0.000954,0.000220,0.000335,0,1,0,57.924164,1,0.390000,0,14,0,202
1435, 101,27112,27103,1693,0,0,6.102916,-0.382241,66.840599,0.161162,1.332652,57.305298,-107.015488,-197.471497,-28.631979,5.940408,-0.210619,66.646500,2.219486,0.236487,-0.021917,90.069438,174.776181,-9.785881,-0.092372,0.028088,-0.706122,-0.701478,-0.092372,0.028088,-0.706122,-0.701478,2171.933838,80197.476562,46.133823,139.649429,192.952148,192.952148,188.419418,26.000000,31.596296,67.119728,66.911049,1978.981689,192.952148,-1.070155,-1.974715,-0.286320,0.000954,0.000221,0.000335,0,1,0,57.785561,1,0.390000,0,14,0,202
1436, 101,27167,27158,1748,0,0,5.170716,-0.151025,65.872704,0.797584,1.096137,56.457092,-108.623207,-198.304596,-18.284126,5.093146,-0.143604,65.794449,2.359775,0.245040,-0.011794,89.981609,174.770088,-9.778979,-0.092346,0.028078,-0.706662,-0.700937,-0.092346,0.028078,-0.706662,-0.700937,2184.142090,80197.476562,40.528179,141.907547,205.160400,205.160400,195.164505,26.000000,31.596296,66.075508,65.991440,1978.981689,205.160400,-1.086232,-1.983046,-0.182841,0.000954,0.000222,0.000335,0,1,0,57.118603,1,0.390000,0,14,0,202
1437, 101,27450,27448,2031,0,0,5.369582,-0.211596,61.707180,0.423341,1.708416,52.114712,-112.481728,-202.265427,-9.397837,5.370780,-0.210619,61.701740,2.738815,0.313636,0.040457,89.451559,174.739229,-9.726105,-0.092083,0.027988,-0.709917,-0.697678,-0.092083,0.027988,-0.709917,-0.697678,2209.206299,80197.476562,22.134998,153.181458,230.224609,230.224609,232.396576,26.000000,31.596296,61.940723,61.935406,1978.981689,230.224609,-1.124817,-2.022654,-0.093978,0.000954,0.000226,0.000335,0,1,0,52.129505,1,0.380000,0,14,0,202
1438, 101,27505,27494,2086,0,0,5.254878,-0.748609,60.337856,0.444603,1.970777,50.913605,-113.080963,-201.636963,-8.725519,5.246323,-0.895130,60.260910,2.871574,0.353889,0.008821,89.358764,174.734749,-9.716839,-0.092031,0.027978,-0.710485,-0.697107,-0.092031,0.027978,-0.710485,-0.697107,2222.128906,80197.476562,42.246140,154.896957,243.147217,243.147217,238.595352,26.000000,31.596296,60.570877,60.495476,1978.981689,243.147217,-1.130810,-2.016370,-0.087255,0.000954,0.000227,0.000335,0,1,0,51.221310,1,0.380000,0,14,0,202
1439, 101,27562,27548,2143,0,0,4.834412,-0.680076,59.984879,0.880298,2.289965,50.332191,-112.934814,-201.900024,-10.172464,4.657548,-0.593562,59.863609,2.891527,0.309717,0.013963,89.233485,174.728424,-9.704991,-0.091968,0.027966,-0.711251,-0.696334,-0.091968,0.027966,-0.711251,-0.696334,2222.128906,80197.476562,33.320595,157.090668,243.147217,243.147217,245.361664,26.000000,31.596296,60.183216,60.047455,1978.981689,243.147217,-1.129348,-2.019000,-0.101725,0.000954,0.000228,0.000335,0,1,0,50.646618,1,0.390000,0,14,0,202
1440, 101,27617,27605,2198,0,0,4.776249,-0.314435,58.131195,1.021106,2.277231,50.206776,-116.369484,-201.651581,-10.464776,4.820299,-0.191472,57.384052,3.007124,0.368858,0.036669,89.143415,174.722318,-9.696177,-0.091930,0.027946,-0.711802,-0.695777,-0.091930,0.027946,-0.711802,-0.695777,2235.224121,80197.476562,38.523140,158.619965,256.242432,256.242432,249.137253,26.000000,31.596296,58.327927,57.586468,1978.981689,256.242432,-1.163695,-2.016516,-0.104648,0.000954,0.000228,0.000335,0,1,0,50.239933,1,0.390000,0,14,0,202
1441, 101,27674,27662,2255,0,0,4.474987,-0.830765,55.949326,0.899264,2.548052,46.268078,-115.214851,-201.578476,-8.389359,4.442142,-0.890343,55.785263,3.097441,0.374188,0.045522,89.002406,174.715856,-9.681281,-0.091845,0.027927,-0.712663,-0.694907,-0.091845,0.027927,-0.712663,-0.694907,2248.548584,80197.476562,98.192314,160.956467,269.566895,269.566895,259.569550,26.000000,31.596296,56.134151,55.968929,1978.981689,269.566895,-1.152148,-2.015785,-0.083894,0.000954,0.000229,0.000335,0,1,0,46.704872,1,0.390000,0,14,0,202
1442, 101,27744,27735,2325,0,0,4.634692,-0.226626,54.983841,0.559203,2.088107,45.335934,-115.141769,-201.783112,-8.053201,4.652761,-0.162751,54.899712,3.136411,0.338558,0.041466,88.871403,174.708562,-9.667403,-0.091774,0.027901,-0.713462,-0.694098,-0.091774,0.027901,-0.713462,-0.694098,2248.548584,80197.476562,79.989853,162.924255,269.566895,269.566895,267.677155,26.000000,31.596296,55.179295,55.096760,1978.981689,269.566895,-1.151418,-2.017831,-0.080532,0.000954,0.000230,0.000335,0,1,0,45.544594,1,0.390000,0,14,0,202
1443, 101,27799,27790,2380,0,0,4.039889,-0.813221,51.976051,0.762111,1.672047,44.213051,-115.156387,-201.636963,-7.600117,3.949103,-1.258926,51.161221,3.245100,0.413034,0.019142,88.745898,174.703303,-9.654185,-0.091696,0.027887,-0.714226,-0.693322,-0.091696,0.027887,-0.714226,-0.693322,2262.160889,80197.476562,61.426121,164.749466,283.179199,283.179199,276.815521,26.000000,31.596296,52.139160,51.328850,1978.981689,283.179199,-1.151564,-2.016370,-0.076001,0.000954,0.000230,0.000335,0,1,0,44.295189,1,0.390000,0,14,0,202
1444, 101,27873,27864,2454,0,0,3.840979,-0.821346,50.975475,1.078956,2.708221,41.242393,-115.390244,-202.396973,-8.009354,3.791139,-0.651004,50.864441,3.292704,0.329279,0.053352,88.591652,174.695571,-9.638742,-0.091613,0.027867,-0.715164,-0.692366,-0.091613,0.027867,-0.715164,-0.692366,2276.020996,80197.476562,47.716690,166.814041,297.039307,297.039307,286.384308,26.000000,31.596296,51.126575,51.009686,1978.981689,297.039307,-1.153902,-2.023970,-0.080094,0.000954,0.000231,0.000335,0,1,0,41.503593,1,0.390000,0,14,0,202
1445, 101,27929,27920,2510,0,0,4.061680,0.088167,49.458763,0.611682,1.976637,39.872707,-115.185616,-202.090027,-7.307805,4.068772,0.110096,49.418831,3.388427,0.360773,0.062456,88.458661,174.686336,-9.623884,-0.091548,0.027825,-0.715973,-0.691540,-0.091548,0.027825,-0.715973,-0.691540,2276.020996,80197.476562,58.266899,168.490067,297.039307,297.039307,294.498840,26.000000,31.596296,49.625336,49.586166,1978.981689,297.039307,-1.151856,-2.020900,-0.073078,0.000954,0.000232,0.000335,0,1,0,40.203499,1,0.390000,0,14,0,202
1446, 101,28001,27994,2582,0,0,3.714607,-0.426114,48.590866,0.930232,2.488496,38.861042,-115.799477,-202.177719,-7.468577,3.704977,-0.440385,48.566784,3.436285,0.446753,0.026073,88.295631,174.678932,-9.607020,-0.091453,0.027804,-0.716962,-0.690528,-0.091453,0.027804,-0.716962,-0.690528,2290.104980,80197.476562,56.272087,170.440155,311.123291,311.123291,305.334595,26.000000,31.596296,48.734509,48.709888,1978.981689,311.123291,-1.157995,-2.021777,-0.074686,0.000954,0.000233,0.000335,0,1,0,38.929737,1,0.390000,0,14,0,202
1447, 101,28058,28050,2639,0,0,3.590274,-0.211232,45.370209,0.862846,2.357888,36.039646,-115.200233,-202.703888,-8.023970,3.628388,-0.172324,45.196880,3.543949,0.452594,0.095130,88.155469,174.672348,-9.591013,-0.091363,0.027776,-0.717811,-0.689658,-0.091363,0.027776,-0.717811,-0.689658,2304.412598,80197.476562,53.847973,172.024109,325.430908,325.430908,313.715912,26.000000,31.596296,45.512531,45.342617,1978.981689,325.430908,-1.152002,-2.027039,-0.080240,0.000954,0.000234,0.000335,0,1,0,37.355793,1,0.390000,0,14,0,202
1448, 101,28129,28123,2710,0,0,3.815001,-0.944048,44.340416,0.532938,3.124772,34.600235,-114.644836,-202.528503,-8.535517,3.896448,-1.273286,43.966675,3.530281,0.440609,0.058888,87.989673,174.665627,-9.571678,-0.091248,0.027746,-0.718814,-0.688629,-0.091248,0.027746,-0.718814,-0.688629,2304.412598,80197.476562,52.653049,173.755768,325.430908,325.430908,323.919403,26.000000,31.596296,44.514244,44.157356,1978.981689,325.430908,-1.146448,-2.025285,-0.085355,0.000954,0.000234,0.000335,0,1,0,35.493488,1,0.390000,0,14,0,202
1449, 101,28187,28179,2768,0,0,2.694141,0.708838,42.777370,1.172949,1.496225,33.111992,-115.361008,-202.703888,-7.614733,2.661456,0.761100,42.741257,3.650351,0.408884,0.117917,87.844477,174.658510,-9.554992,-0.091157,0.027714,-0.719692,-0.687725,-0.091157,0.027714,-0.719692,-0.687725,2319.275635,80197.476562,56.041992,175.207764,340.293945,340.293945,332.657349,26.000000,31.596296,42.867985,42.830803,1978.981689,340.293945,-1.153610,-2.027039,-0.076147,0.000954,0.000235,0.000335,0,1,0,33.423824,1,0.390000,0,14,0,202
1450, 101,28464,28458,3045,0,0,2.320852,-0.190372,35.210125,1.052554,2.353055,25.391766,-116.208710,-202.674652,-7.117802,2.283299,-0.320715,34.646793,3.738677,0.510780,0.067902,87.100526,174.621422,-9.475762,-0.090736,0.027581,-0.724168,-0.683071,-0.090736,0.027581,-0.724168,-0.683071,2364.673828,80197.476562,35.898384,181.336456,385.692139,385.692139,375.783997,26.000000,31.596296,35.287045,34.723431,1978.981689,385.692139,-1.162087,-2.026747,-0.071178,0.000954,0.000239,0.000335,0,1,0,26.728176,1,0.380000,0,14,0,202
1451, 101,28521,28521,3102,0,0,2.049761,0.161962,33.425575,1.096893,1.965378,23.612036,-116.106400,-201.856186,-6.050862,1.948224,0.363796,32.880466,3.771216,0.364661,0.000698,86.936847,174.615944,-9.458705,-0.090629,0.027570,-0.725148,-0.682045,-0.090629,0.027570,-0.725148,-0.682045,2380.897949,80197.476562,70.537346,182.524765,401.916260,401.916260,386.246185,26.000000,31.596296,33.488754,32.940144,1978.981689,401.916260,-1.161064,-2.018562,-0.060509,0.000954,0.000240,0.000335,0,1,0,24.870592,1,0.390000,0,14,0,202
1452, 101,28577,28575,3158,0,0,1.698319,0.589214,32.141605,1.256487,1.502045,22.331217,-116.398712,-202.060791,-6.182403,1.670590,0.617496,32.052357,3.929959,0.537969,0.013279,86.784718,174.607461,-9.444448,-0.090561,0.027549,-0.726058,-0.681086,-0.090561,0.027549,-0.726058,-0.681086,2380.897949,80197.476562,79.755928,183.544601,401.916260,401.916260,396.097565,26.000000,31.596296,32.191833,32.101803,1978.981689,401.916260,-1.163987,-2.020608,-0.061824,0.000954,0.000240,0.000335,0,1,0,22.563044,1,0.390000,0,14,0,202
1453, 101,28637,28636,3218,0,0,0.800143,-1.835684,30.652138,2.396127,3.740381,20.593599,-116.427948,-202.002335,-6.489330,0.713232,-2.077467,30.511007,3.900654,0.569566,0.031443,86.620159,174.603800,-9.428000,-0.090447,0.027553,-0.727040,-0.680053,-0.090447,0.027553,-0.727040,-0.680053,2380.897949,80197.476562,37.956020,184.473938,401.916260,401.916260,403.798615,26.000000,31.596296,30.717480,30.589968,1978.981689,401.916260,-1.164133,-2.020023,-0.064893,0.000955,0.000241,0.000335,0,1,0,21.023811,1,0.390000,0,14,0,202
1454, 101,28693,28690,3274,0,0,2.904626,-0.738881,31.609341,0.244738,3.157191,21.791807,-116.077171,-201.768494,-6.693949,2.963024,-0.708445,31.635902,3.867302,0.402141,0.038189,86.466288,174.595399,-9.412053,-0.090368,0.027523,-0.727958,-0.679082,-0.090368,0.027523,-0.727958,-0.679082,2397.508789,80197.476562,48.223026,185.376099,418.527100,418.527100,413.503998,26.000000,31.596296,31.751114,31.782255,1978.981689,418.527100,-1.160772,-2.017685,-0.066939,0.000955,0.000242,0.000335,0,1,0,21.706623,1,0.390000,0,14,0,202
1455, 101,28768,28765,3349,0,0,1.104457,-0.931517,27.428850,1.654837,2.885197,17.463749,-116.047943,-201.841568,-5.217772,1.292434,-1.120109,26.916126,3.986525,0.474972,0.099260,86.257161,174.585236,-9.390730,-0.090256,0.027492,-0.729204,-0.677761,-0.090256,0.027492,-0.729204,-0.677761,2414.470459,80197.476562,46.621559,186.515182,435.488770,435.488770,424.316437,26.000000,31.596296,27.466877,26.970407,1978.981689,435.488770,-1.161502,-2.017831,-0.061532,0.000955,0.000243,0.000335,0,1,0,18.679802,1,0.390000,0,14,0,202
1456, 101,28824,28821,3405,0,0,0.167871,-0.622791,25.871466,2.380634,2.394812,15.857259,-116.106400,-202.367737,-6.664718,0.062228,-0.579202,25.752935,4.053644,0.501939,-0.023564,86.094896,174.578133,-9.373040,-0.090158,0.027464,-0.730168,-0.676736,-0.090158,0.027464,-0.730168,-0.676736,2432.058838,80197.476562,97.260445,187.376358,453.077148,453.077148,436.450043,26.000000,31.596296,25.879505,25.759523,1978.981689,453.077148,-1.161064,-2.023677,-0.066647,0.000955,0.000243,0.000335,0,1,0,16.177214,1,0.390000,0,14,0,202
1457, 101,28899,28896,3480,0,0,0.887470,-1.008049,24.971428,1.654430,2.925636,14.979628,-116.208710,-202.075409,-5.568547,0.909490,-1.019586,24.948755,4.036909,0.503516,0.093931,85.882648,174.569786,-9.350706,-0.090028,0.027439,-0.731427,-0.675393,-0.090028,0.027439,-0.731427,-0.675393,2432.058838,80197.476562,61.303558,188.297806,453.077148,453.077148,449.509979,26.000000,31.596296,25.007519,24.986139,1978.981689,453.077148,-1.162087,-2.020754,-0.055685,0.000955,0.000244,0.000335,0,1,0,15.039188,1,0.390000,0,14,0,202
1458, 101,28955,28952,3536,0,0,0.423774,-0.774469,22.960461,1.884510,2.538683,12.957863,-116.179482,-202.309280,-5.948553,0.033508,-0.770673,22.785126,4.067555,0.511901,-0.003858,85.719619,174.562437,-9.333460,-0.089934,0.027413,-0.732393,-0.674360,-0.089934,0.027413,-0.732393,-0.674360,2468.636475,80197.476562,64.920952,188.978043,489.654785,489.654785,460.023804,26.000000,31.596296,22.977427,22.798180,1978.981689,489.654785,-1.161795,-2.023093,-0.059486,0.000955,0.000245,0.000335,0,1,0,13.452008,1,0.390000,0,14,0,202
1459, 101,29030,29027,3611,0,0,0.250112,-0.701008,22.054743,1.960201,2.451629,12.041911,-115.828705,-202.075409,-6.123940,0.268060,-0.694085,21.980946,4.074210,0.491148,0.121591,85.505069,174.554432,-9.311215,-0.089803,0.027392,-0.733661,-0.672998,-0.089803,0.027392,-0.733661,-0.672998,2468.636475,80197.476562,126.770599,189.893875,489.654785,489.654785,477.459869,26.000000,31.596296,22.067297,21.993534,1978.981689,489.654785,-1.158287,-2.020754,-0.061239,0.000955,0.000246,0.000335,0,1,0,12.228382,1,0.390000,0,14,0,202
1460, 101,29085,29083,3666,0,0,0.202370,-0.405504,19.961561,1.763738,2.046751,9.982058,-115.974854,-202.250809,-6.167788,0.201045,-0.397304,19.903477,4.038865,0.438892,-0.049034,85.340325,174.545839,-9.296547,-0.089732,0.027376,-0.734633,-0.671948,-0.089732,0.027376,-0.734633,-0.671948,2487.850830,80197.476562,92.988808,190.580734,508.869141,508.869141,491.813721,26.000000,31.596296,19.966705,19.908457,1978.981689,508.869141,-1.159749,-2.022508,-0.061678,0.000955,0.000246,0.000335,0,1,0,10.132582,1,0.390000,0,14,0,202
1461, 101,29161,29158,3742,0,0,0.513262,-0.918215,19.541752,1.503463,2.639595,9.531841,-116.340256,-201.987717,-6.211634,1.096175,-0.995653,18.950907,3.999701,0.483404,0.105004,85.130358,174.537015,-9.273030,-0.089600,0.027337,-0.735870,-0.670612,-0.089600,0.027337,-0.735870,-0.670612,2507.531738,80197.476562,66.282272,191.283447,528.550049,528.550049,506.984894,26.000000,31.596296,19.570044,19.008677,1978.981689,528.550049,-1.163403,-2.019877,-0.062116,0.000955,0.000247,0.000335,0,1,0,10.808846,1,0.390000,0,14,0,202
1462, 101,29215,29214,3796,0,0,-0.099029,-0.661837,18.169378,1.935294,2.219182,8.140683,-116.354874,-202.265427,-6.357790,-0.588775,-0.521760,17.811649,4.018270,0.436390,0.044606,84.969179,174.529788,-9.253820,-0.089496,0.027297,-0.736818,-0.669585,-0.089496,0.027297,-0.736818,-0.669585,2507.531738,80197.476562,77.758812,191.815109,528.550049,528.550049,518.754578,26.000000,31.596296,18.181700,17.829014,1978.981689,528.550049,-1.163549,-2.022654,-0.063578,0.000955,0.000248,0.000335,0,1,0,9.032489,1,0.390000,0,14,0,202
1463, 101,29500,29498,4081,0,0,0.926708,-2.701497,11.738248,0.645312,4.001189,1.579571,-116.237938,-202.440811,-6.533177,0.957358,-2.714111,11.718065,4.052946,0.506741,0.002933,84.121894,174.487974,-9.167973,-0.089063,0.027158,-0.741776,-0.664152,-0.089063,0.027158,-0.741776,-0.664152,2568.348145,80197.476562,63.763321,193.690765,589.366455,589.366455,582.001587,26.000000,31.596296,12.080701,12.066316,1978.981689,589.366455,-1.162379,-2.024408,-0.065332,0.000954,0.000251,0.000335,0,1,0,1.632040,2,0.390000,0,14,0,202
1464, 101,29556,29545,4137,0,0,-0.565248,-0.625915,11.016929,2.933707,0.661150,2.040337,-115.945625,-201.929260,-6.387022,-0.014360,-1.019586,10.564448,4.160117,0.544417,0.114145,83.984689,174.479313,-9.155696,-0.089015,0.027135,-0.742575,-0.663266,-0.089015,0.027135,-0.742575,-0.663266,2589.162842,80197.476562,87.091232,193.869125,610.181152,610.181152,592.606323,26.000000,31.596296,11.049163,10.613544,1978.981689,610.181152,-1.159456,-2.019293,-0.063870,0.000955,0.000252,0.000335,0,1,0,1.922040,2,0.390000,0,14,0,202
1465, 101,29612,29602,4193,0,0,-0.896074,-1.431487,9.269871,1.849331,2.185886,-0.516133,-116.106400,-202.192337,-7.351652,-0.966932,-1.483905,9.128410,4.066215,0.460669,0.049628,83.837410,174.475024,-9.137455,-0.088902,0.027106,-0.743432,-0.662322,-0.088902,0.027106,-0.743432,-0.662322,2610.686035,80197.476562,99.666809,194.088730,631.704346,631.704346,604.828003,26.000000,31.596296,9.422452,9.298645,1978.981689,631.704346,-1.161064,-2.021923,-0.073517,0.000954,0.000253,0.000335,0,1,0,0.677927,2,0.390000,0,14,0,202
1466, 101,29669,29664,4250,0,0,-0.772912,-0.748723,8.883134,1.734079,1.576381,-1.165258,-116.179482,-202.192337,-6.635486,-0.698871,-0.440385,8.759828,4.040129,0.465914,0.057394,83.683737,174.467921,-9.120768,-0.088815,0.027075,-0.744325,-0.661332,-0.088815,0.027075,-0.744325,-0.661332,2610.686035,80197.476562,89.491013,194.249435,631.704346,631.704346,617.836365,26.000000,31.596296,8.948075,8.798690,1978.981689,631.704346,-1.161795,-2.021923,-0.066355,0.000955,0.000253,0.000335,0,1,0,-0.976744,2,0.390000,0,14,0,202
1467, 101,29724,29723,4305,0,0,-0.722650,-1.067259,8.266575,1.675899,1.854523,-1.816663,-116.267166,-202.133865,-7.073955,-0.722805,-1.120109,8.214133,4.105427,0.601818,0.083150,83.505469,174.462798,-9.100459,-0.088689,0.027051,-0.745358,-0.660185,-0.088689,0.027051,-0.745358,-0.660185,2610.686035,80197.476562,42.413414,194.264908,631.704346,631.704346,628.204407,26.000000,31.596296,8.366452,8.321603,1978.981689,631.704346,-1.162672,-2.021339,-0.070740,0.000955,0.000254,0.000335,0,1,0,-1.663667,2,0.390000,0,14,0,202
1468, 101,29801,29802,4382,0,0,-0.629653,-1.259408,7.501954,1.541232,2.000980,-2.598045,-116.179482,-202.791565,-6.679334,-0.627070,-1.263713,7.481754,4.033097,0.492419,0.052060,83.279738,174.456856,-9.075092,-0.088528,0.027026,-0.746664,-0.658730,-0.088528,0.027026,-0.746664,-0.658730,2632.734375,80197.476562,46.397896,194.305313,653.752686,653.752686,643.334961,26.000000,31.596296,7.632946,7.613595,1978.981689,653.752686,-1.161795,-2.027916,-0.066793,0.000955,0.000255,0.000335,0,1,0,-2.542858,2,0.390000,0,14,0,202
1469, 101,29858,29859,4439,0,0,-0.800038,-1.307827,5.886336,1.560474,1.848142,-4.219897,-116.632568,-202.236206,-6.240865,-0.785034,-1.364236,5.519170,4.018447,0.504357,0.028325,83.113102,174.450913,-9.057199,-0.088424,0.027004,-0.747626,-0.657653,-0.088424,0.027004,-0.747626,-0.657653,2655.241455,80197.476562,144.913239,194.374649,676.259766,676.259766,656.564758,26.000000,31.596296,6.082715,5.739221,1978.981689,676.259766,-1.166326,-2.022362,-0.062409,0.000955,0.000255,0.000335,0,1,0,-3.332848,2,0.390000,0,14,0,202
1470, 101,29927,29921,4508,0,0,-1.264597,-0.931470,4.845195,1.857752,1.292915,-5.238119,-116.544868,-202.192337,-6.430868,-1.311581,-0.890343,4.767644,3.982661,0.466549,0.073798,82.927560,174.444070,-9.036946,-0.088309,0.026975,-0.748696,-0.656452,-0.088309,0.026975,-0.748696,-0.656452,2678.035156,80197.476562,235.246521,194.452850,699.053467,699.053467,673.108765,26.000000,31.596296,5.093404,5.024280,1978.981689,699.053467,-1.165449,-2.021923,-0.064309,0.000955,0.000256,0.000335,0,1,0,-5.043438,2,0.390000,0,14,0,202
1471, 101,29984,29980,4565,0,0,-0.874714,-1.144100,4.168612,1.442388,1.495476,-5.910693,-116.457176,-201.914642,-5.875475,-0.832902,-1.167977,4.107067,4.010884,0.483935,0.082109,82.754353,174.437239,-9.016750,-0.088197,0.026937,-0.749693,-0.655329,-0.088197,0.026937,-0.749693,-0.655329,2678.035156,80197.476562,138.287430,194.412277,699.053467,699.053467,686.581726,26.000000,31.596296,4.410377,4.350390,1978.981689,699.053467,-1.164572,-2.019146,-0.058755,0.000956,0.000257,0.000335,0,1,0,-5.751764,2,0.390000,0,14,0,202
1472, 101,30058,30056,4639,0,0,-0.926961,-1.153945,2.486202,1.332093,1.293882,-7.582116,-116.296402,-202.148483,-6.606256,-0.737166,-1.273286,2.149269,4.006629,0.491884,0.060584,82.540773,174.429535,-8.992397,-0.088058,0.026897,-0.750920,-0.653943,-0.088058,0.026897,-0.750920,-0.653943,2701.586914,80197.476562,95.097778,194.368698,722.605225,722.605225,704.804565,26.000000,31.596296,2.893449,2.604617,1978.981689,722.605225,-1.162964,-2.021485,-0.066063,0.000955,0.000257,0.000335,0,1,0,-6.791393,2,0.390000,0,14,0,202
1473, 101,30113,30099,4694,0,0,-1.080716,-1.276766,1.752925,1.430964,1.298233,-8.338893,-116.267166,-202.119263,-6.240865,-1.220632,-1.282860,1.570068,3.975136,0.507818,0.058956,82.368980,174.423907,-8.973181,-0.087945,0.026871,-0.751904,-0.652827,-0.087945,0.026871,-0.751904,-0.652827,2725.302979,80197.476562,93.615631,194.243881,746.321289,746.321289,718.356384,26.000000,31.596296,2.422979,2.366597,1978.981689,746.321289,-1.162672,-2.021193,-0.062409,0.000956,0.000258,0.000335,0,1,0,-7.887871,2,0.390000,0,14,0,202
1474, 101,30186,30175,4767,0,0,-1.242990,-1.030049,1.052287,1.483933,0.940319,-9.009120,-116.194092,-202.616196,-6.182403,-1.249352,-1.005226,0.995653,3.948015,0.471803,0.033417,82.192803,174.418101,-8.954061,-0.087832,0.026847,-0.752912,-0.651681,-0.087832,0.026847,-0.752912,-0.651681,2725.302979,80197.476562,92.038788,194.083878,746.321289,746.321289,732.588562,26.000000,31.596296,1.927001,1.887508,1978.981689,746.321289,-1.161941,-2.026162,-0.061824,0.000956,0.000259,0.000335,0,1,0,-8.871825,2,0.390000,0,14,0,202
1475, 101,30242,30235,4823,0,0,-1.327474,-1.121263,0.165493,1.996416,0.190523,-9.238574,-116.603325,-202.280045,-5.670856,-1.086601,-1.426464,-0.095736,3.940057,0.517860,0.056430,82.026003,174.412555,-8.936088,-0.087727,0.026825,-0.753865,-0.650593,-0.087727,0.026825,-0.753865,-0.650593,2749.437256,80197.476562,93.665123,193.937820,770.455566,770.455566,747.114075,26.000000,31.596296,1.745510,1.795736,1978.981689,770.455566,-1.166033,-2.022800,-0.056709,0.000956,0.000259,0.000335,0,1,0,-9.189607,2,0.390000,0,14,0,202
1476, 101,30526,30524,5107,0,0,-1.675639,-1.408497,-3.762648,1.495585,0.520673,-13.855783,-116.164864,-202.864670,-5.641625,-1.689737,-1.421677,-3.791139,3.783701,0.489126,0.056963,81.211946,174.390903,-8.846492,-0.087172,0.026732,-0.758492,-0.645273,-0.087172,0.026732,-0.758492,-0.645273,2823.447754,80197.476562,67.846497,192.811844,844.466064,844.466064,823.272949,26.000000,31.596296,4.353062,4.387381,1978.981689,844.466064,-1.161649,-2.028647,-0.056416,0.000954,0.000262,0.000335,0,1,0,-13.773870,2,0.390000,0,14,0,202
1477, 101,30581,30573,5162,0,0,-1.920223,-1.090267,-4.029948,1.624627,0.210988,-14.036691,-115.931007,-202.090027,-5.568547,-1.943437,-1.057881,-4.054412,3.768162,0.429625,0.033363,81.075589,174.386792,-8.831374,-0.087083,0.026712,-0.759263,-0.644378,-0.087083,0.026712,-0.759263,-0.644378,2823.447754,80197.476562,48.392422,192.410263,844.466064,844.466064,832.996033,26.000000,31.596296,4.595261,4.618908,1978.981689,844.466064,-1.159310,-2.020900,-0.055685,0.000955,0.000263,0.000335,0,1,0,-13.877617,2,0.390000,0,14,0,202
1478, 101,30638,30630,5219,0,0,-1.486371,-1.147249,-4.761698,1.202230,0.121374,-14.737196,-115.887161,-202.280045,-6.708565,-1.474332,-1.148830,-4.782004,3.772499,0.446610,0.031497,80.930748,174.381273,-8.815968,-0.086999,0.026688,-0.760081,-0.643425,-0.086999,0.026688,-0.760081,-0.643425,2848.517578,80197.476562,85.229492,192.079926,869.535889,869.535889,846.497314,26.000000,31.596296,5.118520,5.134299,1978.981689,869.535889,-1.158872,-2.022800,-0.067086,0.000955,0.000264,0.000335,0,1,0,-14.570103,2,0.390000,0,14,0,202
1479, 101,30696,30693,5277,0,0,-1.527687,-1.196603,-4.936992,1.200824,0.123201,-14.966503,-116.311028,-202.557724,-6.270096,-1.531773,-1.201484,-4.954329,3.778425,0.448493,0.005276,80.785504,174.376109,-8.801163,-0.086916,0.026671,-0.760900,-0.642468,-0.086916,0.026671,-0.760900,-0.642468,2848.517578,80197.476562,95.037575,191.673309,869.535889,869.535889,858.520203,26.000000,31.596296,5.304675,5.323088,1978.981689,869.535889,-1.163110,-2.025577,-0.062701,0.000955,0.000264,0.000335,0,1,0,-14.919308,2,0.390000,0,14,0,202
1480, 101,30752,30752,5333,0,0,-1.797780,-0.707988,-5.687307,1.317909,-0.532585,-15.636939,-116.121017,-202.411575,-6.138556,-1.766326,-0.526547,-5.906900,3.680114,0.448134,0.043646,80.625117,174.371396,-8.783383,-0.086810,0.026648,-0.761803,-0.641412,-0.086810,0.026648,-0.761803,-0.641412,2873.981445,80197.476562,96.943069,191.301910,894.999756,894.999756,874.606934,26.000000,31.596296,6.006557,6.187780,1978.981689,894.999756,-1.161210,-2.024116,-0.061386,0.000955,0.000265,0.000335,0,1,0,-15.211372,2,0.390000,0,14,0,202
1481, 101,30825,30812,5406,0,0,-1.784005,-1.843523,-6.436551,1.365955,0.163770,-16.394400,-116.047943,-202.294662,-6.343175,-1.785473,-1.972158,-6.490889,3.642985,0.490984,0.015587,80.462483,174.366492,-8.765954,-0.086707,0.026627,-0.762717,-0.640340,-0.086707,0.026627,-0.762717,-0.640340,2899.609863,80197.476562,100.033470,190.837387,920.628174,920.628174,889.160339,26.000000,31.596296,6.928957,7.014910,1978.981689,920.628174,-1.160479,-2.022947,-0.063432,0.000955,0.000265,0.000335,0,1,0,-15.799442,2,0.390000,0,14,0,202
1482, 101,30883,30874,5464,0,0,-2.437490,-2.285398,-6.587230,2.051410,0.694044,-16.829739,-115.799477,-202.046173,-6.182403,-2.455624,-2.297660,-6.591412,3.610534,0.422873,0.023243,80.319200,174.362544,-8.751124,-0.086617,0.026615,-0.763521,-0.639394,-0.086617,0.026615,-0.763521,-0.639394,2899.609863,80197.476562,101.663986,190.442093,920.628174,920.628174,903.402405,26.000000,31.596296,7.386204,7.399732,1978.981689,920.628174,-1.157995,-2.020462,-0.061824,0.000955,0.000266,0.000335,0,1,0,-16.763557,2,0.390000,0,14,0,202
1483, 101,30957,30954,5538,0,0,-2.747722,-1.212857,-7.846156,2.113942,-0.616134,-17.908699,-116.340256,-202.250809,-7.030108,-3.269379,-1.560494,-8.104037,3.565003,0.371069,0.046793,80.136881,174.353720,-8.729604,-0.086513,0.026559,-0.764543,-0.638188,-0.086513,0.026559,-0.764543,-0.638188,2925.245850,80197.476562,98.429245,189.944931,946.264160,946.264160,923.311157,26.000000,31.596296,8.401379,8.876903,1978.981689,946.264160,-1.163403,-2.022508,-0.070301,0.000955,0.000267,0.000335,0,1,0,-17.083460,2,0.390000,0,14,0,202
1484, 101,31013,31013,5594,0,0,-2.632054,-0.740225,-8.485762,1.864663,-1.187586,-18.437923,-116.486404,-202.133865,-6.036247,-2.379035,-0.402090,-8.659305,3.502851,0.362933,0.089016,79.981966,174.346534,-8.712610,-0.086431,0.026522,-0.765410,-0.637161,-0.086431,0.026522,-0.765410,-0.637161,2951.169678,80197.476562,102.862633,189.424454,972.187988,972.187988,938.381958,26.000000,31.596296,8.915368,8.989162,1978.981689,972.187988,-1.164864,-2.021339,-0.060362,0.000955,0.000267,0.000335,0,1,0,-18.226917,2,0.390000,0,14,0,202
1485, 101,31086,31075,5667,0,0,-2.547038,-0.502696,-9.085862,1.685037,-1.532683,-18.971851,-115.901779,-202.250809,-7.073955,-2.556146,-0.502613,-9.133198,3.496811,0.420101,0.009939,79.822543,174.340114,-8.694326,-0.086335,0.026484,-0.766301,-0.636104,-0.086335,0.026484,-0.766301,-0.636104,2951.169678,80197.476562,110.979332,188.854996,972.187988,972.187988,954.138306,26.000000,31.596296,9.449497,9.497463,1978.981689,972.187988,-1.165010,-2.026454,-0.061093,0.000956,0.000268,0.000335,0,1,0,-18.851645,2,0.390000,0,14,0,202
1486, 101,31141,31135,5722,0,0,-3.130890,-0.668143,-9.550093,2.237555,-1.575113,-19.494581,-115.945625,-202.411575,-6.869336,-3.188003,-0.684511,-9.592729,3.429412,0.395124,0.061358,79.673241,174.335073,-8.678211,-0.086244,0.026461,-0.767133,-0.635113,-0.086244,0.026461,-0.767133,-0.635113,2977.114014,80197.476562,107.930038,188.338516,998.132324,998.132324,970.056702,26.000000,31.596296,10.072396,10.131750,1978.981689,998.132324,-1.159456,-2.024116,-0.068693,0.000956,0.000268,0.000335,0,1,0,-19.369398,2,0.390000,0,14,0,202
1487, 101,31216,31213,5797,0,0,-2.765727,-0.767035,-10.138366,1.833903,-1.554964,-20.059797,-116.296402,-202.163101,-6.898568,-2.900795,-0.794607,-10.215012,3.387744,0.402100,0.046333,79.492084,174.329090,-8.656547,-0.086123,0.026419,-0.768142,-0.633911,-0.086123,0.026419,-0.768142,-0.633911,3002.907715,80197.476562,105.226189,187.653336,1023.926025,1023.926025,989.543030,26.000000,31.596296,10.536795,10.648590,1978.981689,1023.926025,-1.162964,-2.021631,-0.068986,0.000956,0.000269,0.000335,0,1,0,-19.851032,2,0.390000,0,14,0,202
1488, 101,31270,31269,5851,0,0,-2.618366,-0.715455,-10.622405,1.632490,-1.693899,-20.509356,-116.164864,-202.119263,-6.416252,-2.594441,-0.708445,-10.664970,3.357077,0.416293,0.061830,79.351710,174.324842,-8.640691,-0.086031,0.026394,-0.768922,-0.632978,-0.086031,0.026394,-0.768922,-0.632978,3002.907715,80197.476562,105.262108,187.104111,1023.926025,1023.926025,1004.704407,26.000000,31.596296,10.963722,10.998846,1978.981689,1023.926025,-1.161649,-2.021193,-0.064163,0.000956,0.000270,0.000335,0,1,0,-20.410524,2,0.290000,0,14,0,202
1489, 101,32062,32063,6643,0,0,-2.601618,-0.710548,-10.652201,1.598330,-2.185772,-20.450432,-116.252556,-202.382355,-7.176264,-2.594441,-0.708445,-10.664970,3.355275,0.417341,0.063676,76.680867,174.260228,-8.324956,-0.084137,0.025883,-0.783543,-0.615070,-0.084137,0.025883,-0.783543,-0.615070,3002.907715,80197.476562,105.267731,167.555740,1023.926025,1023.926025,1131.445312,26.000000,31.596296,10.988297,10.998846,1978.981689,1023.926025,-1.162526,-2.023823,-0.071763,0.001156,0.000461,0.000335,0,1,0,-20.542223,2,0.290000,0,14,0,202
1490, 101,32290,32285,6871,0,0,-2.953144,-0.097929,-17.209394,1.196630,-4.470259,-26.637827,-116.574097,-202.046173,-6.854721,-2.958237,-0.086162,-17.208515,2.707953,0.283579,-0.000292,76.209434,174.246937,-8.271520,-0.083835,0.025791,-0.786080,-0.611870,-0.083835,0.025791,-0.786080,-0.611870,3287.253174,80197.476562,125.302399,180.538757,1308.271484,1308.271484,1268.800049,26.000000,31.596296,17.461210,17.461145,1978.981689,1308.271484,-1.165741,-2.020462,-0.068547,0.000968,0.000420,0.000335,0,1,0,-26.648640,2,0.290000,0,14,0,202
1491, 101,32346,32343,6927,0,0,-2.749012,-0.482874,-17.143198,1.056492,-4.084530,-26.649736,-116.237938,-202.075409,-6.708565,-2.728471,-0.521760,-17.136711,2.690400,0.343658,0.017389,76.098983,174.244068,-8.260028,-0.083769,0.025777,-0.786672,-0.611118,-0.083769,0.025777,-0.786672,-0.611118,3287.253174,80197.476562,58.806732,180.181931,1308.271484,1308.271484,1285.138916,26.000000,31.596296,17.368921,17.360405,1978.981689,1308.271484,-1.162379,-2.020754,-0.067086,0.000965,0.000419,0.000335,0,1,0,-26.646242,2,0.290000,0,14,0,202
1492, 101,32400,32389,6981,0,0,-2.645759,-0.877432,-17.233456,1.033001,-3.627626,-26.926796,-115.989479,-201.622345,-6.240865,-2.637522,-0.818541,-17.203726,2.635249,0.275420,0.017203,76.004187,174.241882,-8.249565,-0.083706,0.025763,-0.787180,-0.610474,-0.083706,0.025763,-0.787180,-0.610474,3312.259033,80197.476562,50.178200,179.501740,1333.277344,1333.277344,1294.765015,26.000000,31.596296,17.457432,17.423969,1978.981689,1333.277344,-1.159895,-2.016223,-0.062409,0.000965,0.000419,0.000335,0,1,0,-26.856869,2,0.290000,0,14,0,202
1493, 101,32454,32454,7035,0,0,-2.588002,-0.683110,-17.192999,0.919539,-3.939037,-26.724417,-116.413330,-202.660034,-6.328559,-2.565720,-0.617496,-17.184580,2.582780,0.306865,0.027624,75.890655,174.237730,-8.237332,-0.083644,0.025739,-0.787787,-0.609699,-0.083644,0.025739,-0.787787,-0.609699,3336.919434,80197.476562,105.191856,179.151566,1357.937744,1357.937744,1313.604126,26.000000,31.596296,17.400105,17.386028,1978.981689,1357.937744,-1.164133,-2.026600,-0.063286,0.000963,0.000418,0.000335,0,1,0,-26.789379,2,0.290000,0,14,0,202
1494, 101,32509,32496,7090,0,0,-2.556269,-0.827014,-17.164703,0.891324,-4.014769,-26.694929,-116.457176,-202.280045,-7.176264,-2.551359,-0.914277,-17.155861,2.546679,0.323814,0.026327,75.808577,174.236186,-8.228068,-0.083587,0.025727,-0.788226,-0.609140,-0.083587,0.025727,-0.788226,-0.609140,3336.919434,80197.476562,136.595764,178.825745,1357.937744,1357.937744,1326.565430,26.000000,31.596296,17.373703,17.368618,1978.981689,1357.937744,-1.164572,-2.022800,-0.071763,0.000962,0.000418,0.000335,0,1,0,-26.703798,2,0.290000,0,14,0,202
1495, 101,32563,32555,7144,0,0,-2.673460,-0.437119,-16.907806,0.977723,-4.080045,-26.460028,-116.325638,-202.236206,-6.518562,-2.685390,-0.392517,-16.883011,2.438392,0.258110,0.048249,75.712121,174.234069,-8.217204,-0.083522,0.025711,-0.788741,-0.608483,-0.083522,0.025711,-0.788741,-0.608483,3361.098145,80197.476562,109.709190,178.436020,1382.116455,1382.116455,1342.609253,26.000000,31.596296,17.123446,17.099751,1978.981689,1382.116455,-1.163256,-2.022362,-0.065186,0.000961,0.000417,0.000335,0,1,0,-26.731552,2,0.290000,0,14,0,202
1496, 101,32618,32608,7199,0,0,-2.467268,-0.620232,-16.844479,0.865247,-4.027822,-26.347357,-116.603325,-202.090027,-6.109325,-2.446050,-0.641430,-16.839931,2.398956,0.292036,0.051521,75.626826,174.231118,-8.206902,-0.083469,0.025687,-0.789196,-0.607901,-0.083469,0.025687,-0.789196,-0.607901,3361.098145,80197.476562,99.925270,178.087448,1382.116455,1382.116455,1357.994263,26.000000,31.596296,17.035509,17.028738,1978.981689,1382.116455,-1.166033,-2.020900,-0.061093,0.000959,0.000417,0.000335,0,1,0,-26.351538,2,0.290000,0,14,0,202
1497, 101,32674,32664,7255,0,0,-2.398707,-0.815097,-16.670170,0.803944,-3.804960,-26.247900,-116.720261,-202.747726,-5.904706,-2.393395,-0.832902,-16.653246,2.367728,0.272486,0.015323,75.541851,174.229137,-8.196916,-0.083410,0.025669,-0.789649,-0.607321,-0.083410,0.025669,-0.789649,-0.607321,3384.940186,80197.476562,83.904953,177.596909,1405.958496,1405.958496,1371.736206,26.000000,31.596296,16.861576,16.844959,1978.981689,1405.958496,-1.167203,-2.027477,-0.059047,0.000959,0.000417,0.000335,0,1,0,-26.343306,2,0.290000,0,14,0,202
1498, 101,32728,32717,7309,0,0,-2.230525,-0.548310,-16.509319,0.625705,-3.950732,-25.994999,-116.457176,-202.601578,-6.752411,-2.225858,-0.540907,-16.504856,2.347837,0.261020,0.003018,75.462867,174.226733,-8.188694,-0.083365,0.025657,-0.790069,-0.606781,-0.083365,0.025657,-0.790069,-0.606781,3384.940186,80197.476562,92.715279,177.162827,1405.958496,1405.958496,1385.489502,26.000000,31.596296,16.668339,16.663052,1978.981689,1405.958496,-1.164572,-2.026016,-0.067524,0.000958,0.000417,0.000335,0,1,0,-26.053064,2,0.290000,0,14,0,202
1499, 101,32784,32769,7365,0,0,-2.719684,-1.025492,-16.360590,1.140571,-3.598470,-25.985834,-116.237938,-202.265427,-6.693949,-2.733258,-1.038734,-16.356464,2.313095,0.263820,-0.013380,75.384299,174.224356,-8.180997,-0.083323,0.025649,-0.790487,-0.606243,-0.083323,0.025649,-0.790487,-0.606243,3408.362061,80197.476562,89.870461,176.746078,1429.380371,1429.380371,1399.942505,26.000000,31.596296,16.616776,16.615763,1978.981689,1429.380371,-1.162379,-2.022654,-0.066939,0.000957,0.000417,0.000335,0,1,0,-25.984619,2,0.280000,0,14,0,202
1500, 101,32838,32838,7419,0,0,-2.732891,-0.926595,-16.244797,1.186464,-3.668388,-25.843317,-116.208710,-202.426193,-6.489330,-2.733258,-0.923851,-16.241583,2.258777,0.221399,0.043185,75.278042,174.220203,-8.169242,-0.083266,0.025623,-0.791051,-0.605515,-0.083266,0.025623,-0.791051,-0.605515,3408.362061,80197.476562,62.379108,175.956436,1429.380371,1429.380371,1416.022949,26.000000,31.596296,16.499111,16.495853,1978.981689,1429.380371,-1.162087,-2.024262,-0.064893,0.000957,0.000417,0.000335,0,1,0,-25.854780,2,0.290000,0,14,0,202
1501, 101,32894,32876,7475,0,0,-2.290781,-0.732965,-16.250986,0.721705,-3.807657,-25.765347,-116.515640,-202.367737,-6.416252,-2.278512,-0.727592,-16.251158,2.229843,0.207297,0.070625,75.186681,174.215736,-8.157319,-0.083213,0.025583,-0.791536,-0.604889,-0.083213,0.025583,-0.791536,-0.604889,3408.362061,80197.476562,21.396032,175.020401,1429.380371,1429.380371,1425.295166,26.000000,31.596296,16.428009,16.426233,1978.981689,1429.380371,-1.165156,-2.023677,-0.064163,0.000957,0.000417,0.000335,0,1,0,-25.772528,2,0.290000,0,14,0,202
1502, 101,32949,32947,7530,0,0,-2.381310,-0.522805,-15.976356,0.808078,-3.975158,-25.444946,-116.559479,-201.987717,-6.445484,-2.383822,-0.516973,-15.968735,2.178273,0.245267,0.019541,75.103722,174.213018,-8.147959,-0.083164,0.025564,-0.791976,-0.604321,-0.083164,0.025564,-0.791976,-0.604321,3431.251465,80197.476562,63.035511,174.357666,1452.269775,1452.269775,1437.634155,26.000000,31.596296,16.161308,16.153957,1978.981689,1452.269775,-1.165595,-2.019877,-0.064455,0.000957,0.000417,0.000335,0,1,0,-25.469431,2,0.290000,0,14,0,202
1503, 101,33009,33001,7590,0,0,-2.390858,-0.840378,-15.829114,0.876360,-3.658611,-25.383999,-116.793335,-202.396973,-6.840106,-2.379035,-0.842475,-15.782050,2.100329,0.228232,0.052232,75.020626,174.210641,-8.138023,-0.083109,0.025543,-0.792417,-0.603752,-0.083109,0.025543,-0.792417,-0.603752,3453.715332,80197.476562,114.690186,173.815308,1474.733643,1474.733643,1452.715088,26.000000,31.596296,16.030699,15.982574,1978.981689,1474.733643,-1.167933,-2.023970,-0.068401,0.000957,0.000417,0.000335,0,1,0,-25.490875,2,0.290000,0,14,0,202
1504, 101,33068,33054,7649,0,0,-2.139552,-0.642083,-15.765008,0.606215,-3.817113,-25.247280,-116.588715,-202.543121,-6.372406,-2.115762,-0.622283,-15.762904,2.070370,0.203764,0.057538,74.918938,174.206680,-8.124996,-0.083046,0.025505,-0.792955,-0.603055,-0.083046,0.025505,-0.792955,-0.603055,3453.715332,80197.476562,51.425800,172.865952,1474.733643,1474.733643,1466.475098,26.000000,31.596296,15.922482,15.916432,1978.981689,1474.733643,-1.165887,-2.025431,-0.063724,0.000957,0.000417,0.000335,0,1,0,-25.271566,2,0.290000,0,14,0,202
1505, 101,33294,33286,7875,0,0,-1.682521,-0.613694,-16.395563,0.115019,-4.327768,-25.879751,-115.960243,-201.943878,-6.182403,-1.646656,-0.727592,-16.327744,1.831942,0.229552,0.013404,74.604988,174.198278,-8.087855,-0.082838,0.025431,-0.794613,-0.600901,-0.082838,0.025431,-0.794613,-0.600901,3518.644287,80197.476562,90.313553,170.101517,1539.662598,1539.662598,1521.819702,26.000000,31.596296,16.493088,16.426687,1978.981689,1539.662598,-1.159602,-2.019439,-0.061824,0.000954,0.000419,0.000335,0,1,0,-25.861984,2,0.290000,0,14,0,202
1506, 101,33350,33346,7931,0,0,-1.649884,-0.717341,-16.333847,0.074056,-3.919421,-25.759193,-115.857933,-202.163101,-6.036247,-1.646656,-0.727592,-16.327744,1.821539,0.238029,0.011882,74.532964,174.197349,-8.080091,-0.082788,0.025424,-0.794992,-0.600406,-0.082788,0.025424,-0.794992,-0.600406,3518.644287,80197.476562,44.253639,169.234116,1539.662598,1539.662598,1531.905884,26.000000,31.596296,16.432629,16.426687,1978.981689,1539.662598,-1.158579,-2.021631,-0.060362,0.000955,0.000419,0.000335,0,1,0,-25.769060,2,0.290000,0,14,0,202
1507, 101,33404,33392,7985,0,0,-1.776484,-0.686269,-15.928465,0.310904,-3.811325,-25.631804,-116.384102,-202.221588,-6.036247,-1.742392,-0.622283,-15.829918,1.718812,0.177031,0.041536,74.469252,174.195901,-8.073427,-0.082749,0.025416,-0.795327,-0.599968,-0.082749,0.025416,-0.795327,-0.599968,3539.855957,80197.476562,41.152584,168.357040,1560.874268,1560.874268,1538.365479,26.000000,31.596296,16.041910,15.937675,1978.981689,1560.874268,-1.163841,-2.022216,-0.060362,0.000956,0.000420,0.000335,0,1,0,-25.665102,2,0.290000,0,14,0,202
1508, 101,33458,33458,8039,0,0,-1.648288,-0.778826,-15.657846,0.148057,-3.717963,-25.119173,-115.989479,-201.973099,-6.664718,-1.603575,-0.837689,-15.571431,1.668074,0.171932,0.048529,74.394345,174.192924,-8.063734,-0.082702,0.025387,-0.795721,-0.599452,-0.082702,0.025387,-0.795721,-0.599452,3560.614014,80197.476562,88.740822,167.563416,1581.632324,1581.632324,1552.311646,26.000000,31.596296,15.763616,15.676181,1978.981689,1581.632324,-1.160333,-2.023385,-0.060655,0.000957,0.000420,0.000335,0,1,0,-25.284735,2,0.290000,0,14,0,202
1509, 101,33512,33500,8093,0,0,-1.789074,-0.661860,-15.446436,0.122809,-3.653425,-25.053095,-116.062561,-201.841568,-5.860859,-1.866848,-0.588775,-15.389533,1.633885,0.171969,0.026050,74.341097,174.190997,-8.056843,-0.082668,0.025368,-0.796001,-0.599086,-0.082668,0.025368,-0.796001,-0.599086,3560.614014,80197.476562,114.828568,167.006210,1581.632324,1581.632324,1562.217285,26.000000,31.596296,15.563779,15.513527,1978.981689,1581.632324,-1.160626,-2.018416,-0.058609,0.000958,0.000420,0.000335,0,1,0,-25.070898,2,0.290000,4,14,4,202
1510, 101,33569,33561,8150,0,0,-1.970424,-0.813152,-15.193609,0.515963,-3.643375,-24.695601,-116.413330,-201.680801,-5.656241,-2.024813,-0.899917,-15.102325,1.579748,0.194033,0.051050,74.276811,174.189058,-8.049075,-0.082626,0.025350,-0.796339,-0.598644,-0.082626,0.025350,-0.796339,-0.598644,3581.171387,80197.476562,97.545532,166.335373,1602.189697,1602.189697,1574.594727,26.000000,31.596296,15.342410,15.264009,1978.981689,1602.189697,-1.164133,-2.016808,-0.056562,0.000958,0.000420,0.000335,0,1,0,-24.838190,2,0.290000,4,14,4,202
1511, 101,33623,33613,8204,0,0,-1.847385,-1.001680,-15.112380,0.437908,-3.447024,-24.659754,-116.267166,-202.177719,-6.664718,-1.842915,-1.005226,-15.111899,1.532217,0.186533,0.082492,74.219479,174.188142,-8.040644,-0.082576,0.025328,-0.796641,-0.598250,-0.082576,0.025328,-0.796641,-0.598250,3581.171387,80197.476562,84.680939,165.755737,1602.189697,1602.189697,1586.728882,26.000000,31.596296,15.257792,15.257009,1978.981689,1602.189697,-1.162672,-2.021777,-0.066647,0.000957,0.000420,0.000335,0,1,0,-24.658419,2,0.290000,4,14,4,202
1512, 101,33678,33671,8259,0,0,-1.437929,-0.687144,-14.937674,0.097468,-3.592474,-24.441582,-116.194092,-201.710037,-6.562409,-1.397743,-0.655790,-14.920428,1.480903,0.132366,0.050610,74.164960,174.186612,-8.032511,-0.082532,0.025302,-0.796927,-0.597876,-0.082532,0.025302,-0.796927,-0.597876,3620.922363,80197.476562,125.584076,165.233078,1641.940674,1641.940674,1599.419189,26.000000,31.596296,15.022447,15.000097,1978.981689,1641.940674,-1.161941,-2.017100,-0.065624,0.000957,0.000420,0.000335,0,1,0,-24.658606,2,0.290000,4,14,4,202
1513, 101,33735,33723,8316,0,0,-1.561842,-0.419102,-14.669386,0.103128,-3.836721,-24.068958,-116.077171,-202.031570,-6.313943,-1.565281,-0.411664,-14.661941,1.440786,0.145837,0.009150,74.114287,174.184358,-8.026413,-0.082505,0.025285,-0.797193,-0.597526,-0.082505,0.025285,-0.797193,-0.597526,3620.922363,80197.476562,167.439651,164.905167,1641.940674,1641.940674,1615.149414,26.000000,31.596296,14.758247,14.751002,1978.981689,1641.940674,-1.160772,-2.020316,-0.063139,0.000957,0.000420,0.000335,0,1,0,-24.148018,2,0.290000,4,14,4,202
1514, 101,33789,33777,8370,0,0,-1.839983,-0.607482,-14.326797,0.423297,-3.648921,-23.803621,-116.588715,-202.046173,-5.787781,-1.847701,-0.612709,-14.317291,1.373885,0.186106,0.037571,74.066701,174.183375,-8.020757,-0.082472,0.025274,-0.797442,-0.597198,-0.082472,0.025274,-0.797442,-0.597198,3640.449707,80197.476562,107.742836,164.575836,1661.468018,1661.468018,1630.207764,26.000000,31.596296,14.457237,14.449022,1978.981689,1661.468018,-1.165887,-2.020462,-0.057878,0.000957,0.000420,0.000335,0,1,0,-23.866289,2,0.290000,4,14,4,202
1515, 101,33844,33834,8425,0,0,-1.717082,-0.859418,-14.131248,0.382835,-3.353990,-23.669704,-116.340256,-201.768494,-5.773166,-1.713671,-0.866409,-14.125821,1.335283,0.176829,0.055959,74.017271,174.183033,-8.014049,-0.082428,0.025261,-0.797701,-0.596859,-0.082428,0.025261,-0.797701,-0.596859,3640.449707,80197.476562,64.293747,164.070465,1661.468018,1661.468018,1643.174194,26.000000,31.596296,14.261106,14.255741,1978.981689,1661.468018,-1.163403,-2.017685,-0.057732,0.000957,0.000421,0.000335,0,1,0,-23.699818,2,0.290000,4,14,4,202
1516, 101,33900,33889,8481,0,0,-1.709374,-0.482224,-13.868059,0.238070,-3.453715,-23.503048,-115.770248,-201.914642,-6.167788,-1.761539,-0.392517,-13.800318,1.261346,0.134592,0.022195,73.972649,174.181845,-8.008119,-0.082396,0.025246,-0.797935,-0.596552,-0.082396,0.025246,-0.797935,-0.596552,3659.416260,80197.476562,72.914307,163.623749,1680.434570,1680.434570,1655.943359,26.000000,31.596296,13.981329,13.917826,1978.981689,1680.434570,-1.157702,-2.019146,-0.061678,0.000956,0.000421,0.000335,0,1,0,-23.543865,2,0.290000,4,14,4,202
1517, 101,33954,33945,8535,0,0,-1.790287,-0.508865,-13.731781,0.386303,-3.707682,-23.216213,-115.711784,-202.367737,-5.787781,-1.804620,-0.555268,-13.699796,1.235055,0.155729,0.027551,73.924128,174.180301,-8.002427,-0.082366,0.025233,-0.798188,-0.596217,-0.082366,0.025233,-0.798188,-0.596217,3678.271729,80197.476562,81.654030,162.988800,1699.290039,1699.290039,1667.383545,26.000000,31.596296,13.857341,13.829294,1978.981689,1699.290039,-1.159456,-2.023239,-0.059047,0.000957,0.000421,0.000335,0,1,0,-23.237713,2,0.290000,4,14,4,202
1518, 101,34012,33998,8593,0,0,-1.712758,-0.636779,-13.517710,0.417081,-3.442952,-23.040318,-115.784859,-202.163101,-6.723180,-1.704098,-0.646217,-13.498752,1.154662,0.148545,0.060412,73.882628,174.179837,-7.996972,-0.082332,0.025222,-0.798405,-0.595931,-0.082332,0.025222,-0.798405,-0.595931,3678.271729,80197.476562,91.533379,162.565979,1699.290039,1699.290039,1680.202393,26.000000,31.596296,13.640656,13.621227,1978.981689,1699.290039,-1.157849,-2.021631,-0.067232,0.000956,0.000421,0.000335,0,1,0,-23.165195,2,0.290000,4,14,0,202
1519, 101,34073,34072,8654,0,0,-1.459726,-0.515283,-13.378636,0.152495,-3.454748,-22.817362,-116.398712,-202.206940,-6.284712,-1.354662,-0.459532,-13.326427,1.113529,0.133515,0.053619,73.827487,174.179086,-7.988522,-0.082281,0.025199,-0.798694,-0.595553,-0.082281,0.025199,-0.798694,-0.595553,3696.837158,80197.476562,68.816162,161.782150,1717.855469,1717.855469,1694.286133,26.000000,31.596296,13.467896,13.402982,1978.981689,1717.855469,-1.163987,-2.022069,-0.062847,0.000957,0.000421,0.000335,0,1,0,-22.986423,2,0.290000,4,14,0,202
1520, 101,34297,34291,8878,0,0,-1.570068,-0.507400,-13.000925,0.298472,-3.413266,-22.450394,-115.814087,-202.148483,-5.597778,-1.570068,-0.507400,-13.000925,1.053514,0.156331,-0.000523,73.653509,174.179728,-7.969292,-0.082138,0.025193,-0.799601,-0.594353,-0.082138,0.025193,-0.799601,-0.594353,3715.089111,80197.476562,1.408530,158.965973,1736.107422,1736.107422,1738.171753,26.000000,31.596296,13.105213,13.105213,1978.981689,1736.107422,-1.158141,-2.021485,-0.055978,0.000954,0.000423,0.000335,0,1,0,-22.450941,2,0.290000,4,14,0,202
1521, 101,34352,34335,8933,0,0,-1.375724,-0.547609,-12.799880,0.298518,-3.420559,-22.448421,-116.252556,-201.943878,-5.641625,-1.292434,-0.564841,-12.713717,0.946879,0.156711,0.005815,73.620055,174.180001,-7.965916,-0.082112,0.025195,-0.799776,-0.594123,-0.082112,0.025195,-0.799776,-0.594123,3733.004150,80197.476562,20.763765,158.218521,1754.022461,1754.022461,1742.043457,26.000000,31.596296,12.885240,12.791718,1978.981689,1754.022461,-1.162526,-2.019439,-0.056416,0.000955,0.000423,0.000335,0,1,0,-22.449347,2,0.290000,4,14,0,202
1522, 101,34407,34397,8988,0,0,-1.299930,-0.563290,-12.721472,0.068640,-3.254293,-22.180330,-116.311028,-202.119263,-5.933938,-1.292434,-0.564841,-12.713717,0.905292,0.156859,0.008286,73.579845,174.181162,-7.961532,-0.082072,0.025200,-0.799985,-0.593846,-0.082072,0.025200,-0.799985,-0.593846,3733.004150,80197.476562,44.651333,157.347733,1754.022461,1754.022461,1750.640991,26.000000,31.596296,12.800116,12.791718,1978.981689,1754.022461,-1.163110,-2.021193,-0.059339,0.000956,0.000423,0.000335,0,1,0,-22.200224,2,0.290000,4,14,0,202
1523, 101,34461,34447,9042,0,0,-1.440773,-0.338020,-12.206991,0.228361,-3.353792,-21.628960,-116.091789,-202.119263,-6.094709,-1.431251,-0.263274,-12.196744,0.789243,0.103005,0.041692,73.538598,174.180465,-7.955484,-0.082036,0.025183,-0.800200,-0.593562,-0.082036,0.025183,-0.800200,-0.593562,3768.167969,80197.476562,110.287956,156.543945,1789.186279,1789.186279,1764.123413,26.000000,31.596296,12.296371,12.283255,1978.981689,1789.186279,-1.160918,-2.021193,-0.060947,0.000957,0.000424,0.000335,0,1,0,-21.708797,2,0.290000,4,14,0,202
