checksum,uptime mp,uptime nav, errorflag mp, errorflag nav,accel x, accel y, accel z, gyro x, gyro y, gyro z, mag x, mag y, mag z, magraw x, magraw y, magraw z, euler x, euler y, euler z, quat w, quat x, quat y, quat z, altitude, pressure, verticalvel,maxrecorded alt,altitudeagl,filteredalt,imutemp, barotemp, state,checksum2
101,1260387,1252626,0,0,-0.177125,0.500252,9.898839,0.354960,0.654396,0.094211,-18.479397,40.888618,-0.321543,-3787.000000,3631.000000,-22.000000,4.268216,-86.976380,69.927217,0.608846,-0.371965,-0.579086,0.394471,1214.335449,87473.000000,-0.153709,1.551636,1.353394,1.311904,35.000000,38.999214,0,202
101,1262394,1262310,0,0,-0.164170,0.498941,9.900160,-0.031020,-0.137473,0.366430,-18.503839,40.928665,-0.643087,-3791.000000,3638.000000,-44.000000,6.118524,-86.963007,71.786914,0.608505,-0.371485,-0.579361,0.395046,1214.402954,87475.445312,0.144479,1.561157,1.420898,1.417515,35.000000,39.003880,0,202
101,1264451,1264328,0,0,-0.163241,0.501983,9.896131,-0.100714,0.115368,-0.144024,-18.357176,40.985878,-1.286174,-3767.000000,3648.000000,-88.000000,5.016023,-86.967706,70.520877,0.609269,-0.370959,-0.579691,0.393877,1214.455566,87470.585938,0.063641,1.561157,1.473511,1.416834,35.000000,39.003880,0,202
101,1266509,1266423,0,0,-0.181434,0.488651,9.897257,0.723711,0.253021,-0.536676,-18.784939,40.951550,-0.087694,-3837.000000,3642.000000,-6.000000,4.897716,-86.968717,70.367498,0.609409,-0.370816,-0.579786,0.393656,1214.417480,87470.890625,-0.168771,1.573364,1.435425,1.461504,35.000000,39.003880,0,202
101,1268567,1268439,0,0,-0.194344,0.484917,9.890740,0.037296,0.061211,0.087092,-18.485506,41.083138,-1.154633,-3788.000000,3665.000000,-79.000000,2.385879,-86.976551,68.160254,0.608810,-0.373043,-0.578350,0.394588,1214.430786,87473.375000,0.081501,1.573364,1.448730,1.448134,35.000000,39.022541,0,202
101,1270635,1270509,0,0,-0.156525,0.505892,9.897131,0.318929,-0.060841,-0.014402,-18.589392,40.757034,-0.613856,-3805.000000,3608.000000,-42.000000,4.580251,-86.948315,70.203198,0.609042,-0.371595,-0.579123,0.394463,1214.505127,87472.765625,-0.036196,1.582642,1.523071,1.456218,35.000000,39.022541,0,202
101,1272723,1272606,0,0,-0.175723,0.488677,9.891378,-1.102452,0.051758,-0.110048,-18.558836,40.779922,0.102309,-3800.000000,3612.000000,7.000000,4.699035,-86.994651,70.221878,0.609142,-0.371236,-0.579705,0.393792,1214.472900,87470.953125,0.064859,1.582642,1.490845,1.485560,35.000000,39.027206,0,202
101,1274837,1274680,0,0,-0.188578,0.495685,9.897576,-0.084132,0.066064,-0.193003,-18.564949,40.940105,0.000000,-3801.000000,3640.000000,0.000000,4.770742,-86.887397,70.174101,0.610049,-0.370201,-0.579566,0.393568,1214.222778,87476.812500,-0.183253,1.582642,1.240723,1.290057,35.000000,39.059864,0,202
101,1276899,1276752,0,0,-0.178107,0.495343,9.905251,-0.400343,0.226687,0.026119,-18.729942,41.128902,-0.526162,-3828.000000,3673.000000,-36.000000,4.711374,-86.958021,70.223340,0.609352,-0.371037,-0.579558,0.393871,1214.380005,87472.851562,-0.264691,1.582642,1.397949,1.403130,35.000000,39.055199,0,202
101,1278966,1278849,0,0,-0.182215,0.478232,9.888382,-0.373754,-0.280584,-0.411468,-18.540506,41.077415,0.833090,-3797.000000,3664.000000,57.000000,5.190612,-86.992882,70.693797,0.609121,-0.371003,-0.579857,0.393820,1214.342773,87474.117188,-0.313931,1.709961,1.360718,1.370486,35.000000,39.073860,0,202
101,1281054,1280901,0,0,-0.184302,0.497489,9.909503,-0.041144,-0.260910,0.017625,-18.442730,41.020206,0.453084,-3781.000000,3654.000000,31.000000,5.455600,-86.930270,71.099599,0.608878,-0.371403,-0.579142,0.394869,1214.376343,87473.789062,-0.072852,1.709961,1.394287,1.459093,35.125000,39.064529,0,202
101,1283142,1283016,0,0,-0.178410,0.500147,9.898168,0.814141,-0.374893,0.268355,-18.839937,40.865734,0.876937,-3846.000000,3627.000000,60.000000,5.432927,-86.993865,70.958692,0.608990,-0.371060,-0.579837,0.393998,1214.392822,87472.648438,-0.062012,1.709961,1.410767,1.409654,35.000000,39.092522,0,202
101,1285230,1285114,0,0,-0.168211,0.488960,9.899165,0.605026,0.435274,-0.040377,-18.650499,40.739872,0.087694,-3815.000000,3605.000000,6.000000,4.503320,-86.996966,70.097091,0.608926,-0.371654,-0.579448,0.394110,1214.354370,87472.382812,-0.019635,1.709961,1.372314,1.299506,35.125000,39.106518,0,202
101,1287318,1287165,0,0,-0.184153,0.484719,9.895697,-0.405964,-0.155382,-0.175507,-18.723833,41.100300,0.131540,-3827.000000,3668.000000,9.000000,3.695315,-87.000518,69.197377,0.609381,-0.371412,-0.579607,0.393401,1214.362061,87472.367188,-0.095583,1.709961,1.380005,1.378185,35.125000,39.101852,0,202
101,1289394,1289280,0,0,-0.175643,0.484056,9.896312,0.267904,-0.402658,-0.540271,-18.577169,40.940105,0.248465,-3803.000000,3640.000000,17.000000,5.168219,-86.984365,70.734887,0.608948,-0.371297,-0.579604,0.394183,1214.375000,87475.195312,0.052830,1.709961,1.392944,1.472283,35.125000,39.134510,0,202
101,1291524,1291435,0,0,-0.179609,0.497917,9.894048,-0.372855,-0.495693,0.105970,-18.454950,41.146069,-1.154633,-3783.000000,3676.000000,-79.000000,5.495367,-86.930925,71.032041,0.609237,-0.370853,-0.579501,0.394307,1214.402344,87472.789062,0.135095,1.709961,1.420288,1.441973,35.125000,39.143841,0,202
101,1293593,1293483,0,0,-0.181631,0.476628,9.889597,0.476380,0.195527,0.169857,-18.552727,41.008762,-0.175387,-3799.000000,3652.000000,-12.000000,3.780520,-86.950760,69.365181,0.609320,-0.371620,-0.579102,0.394040,1214.361816,87473.101562,0.020941,1.709961,1.379761,1.432173,35.125000,39.148506,0,202
101,1295665,1295518,0,0,-0.169676,0.494235,9.899421,0.731191,-0.107269,0.493947,-18.503839,41.174671,0.380006,-3791.000000,3681.000000,26.000000,4.719332,-87.011501,70.436483,0.608390,-0.372278,-0.579163,0.394767,1214.395874,87472.554688,0.167647,1.709961,1.413818,1.348432,35.125000,39.171833,0,202
101,1297739,1297659,0,0,-0.172752,0.496239,9.889320,0.748769,0.263452,0.664215,-18.748276,40.917225,-0.263081,-3831.000000,3636.000000,-18.000000,4.958728,-86.942516,70.386056,0.609667,-0.370485,-0.579804,0.393542,1214.427002,87469.507812,-0.042620,1.709961,1.444946,1.331698,35.125000,39.167168,0,202
101,1299821,1299696,0,0,-0.168662,0.488589,9.898602,0.080710,0.412582,0.419611,-18.375509,40.768478,-0.526162,-3770.000000,3610.000000,-36.000000,4.496321,-87.005846,69.891857,0.609566,-0.370686,-0.580134,0.393022,1214.353149,87472.601562,-0.121868,1.709961,1.371094,1.328754,35.125000,39.190495,0,202
101,1301909,1301720,0,0,-0.172547,0.492947,9.890799,-0.401245,0.436220,-0.178296,-18.467175,40.745590,-0.394621,-3785.000000,3606.000000,-27.000000,5.003015,-86.968737,70.335717,0.609858,-0.370095,-0.580250,0.392954,1214.371826,87473.250000,-0.000242,1.709961,1.389771,1.427555,35.125000,39.204487,0,202
101,1303997,1303871,0,0,-0.179339,0.494052,9.891053,0.397946,-0.343519,0.184424,-18.662724,40.951550,0.277697,-3817.000000,3642.000000,19.000000,5.992301,-86.922586,71.546300,0.609114,-0.370779,-0.579506,0.394559,1214.436523,87471.460938,-0.126864,1.709961,1.454468,1.217778,35.250000,39.218483,0,202
101,1306085,1305972,0,0,-0.170158,0.505339,9.897983,0.704317,0.333440,0.346822,-18.876604,40.882900,0.482315,-3852.000000,3630.000000,33.000000,6.186912,-86.916377,71.390578,0.610306,-0.368931,-0.580646,0.392768,1214.384155,87473.312500,-0.166402,1.709961,1.402100,1.406628,35.250000,39.227814,0,202
101,1308222,1308126,0,0,-0.166523,0.506992,9.905757,-0.607429,0.373821,-0.096935,-18.540506,40.739872,-0.102309,-3797.000000,3605.000000,-7.000000,5.619921,-86.884268,71.210432,0.609245,-0.370910,-0.579120,0.394800,1214.430542,87471.804688,0.100561,1.709961,1.448486,1.390508,35.125000,39.232479,0,202
101,1310304,1310151,0,0,-0.179371,0.488063,9.890720,-0.120125,-0.295824,0.391826,-18.546616,40.631168,-0.321543,-3798.000000,3586.000000,-22.000000,4.360076,-86.990587,69.820803,0.609442,-0.370993,-0.579819,0.393389,1214.282349,87473.968750,-0.085290,1.709961,1.300293,1.303538,35.250000,39.246475,0,202
101,1312438,1312287,0,0,-0.175722,0.491134,9.905979,0.676355,-0.275352,-0.202390,-18.528284,40.608284,0.321543,-3795.000000,3582.000000,22.000000,5.513516,-86.986339,70.974101,0.609234,-0.370680,-0.580027,0.393700,1214.372559,87472.773438,0.056792,1.709961,1.390503,1.410789,35.250000,39.255806,0,202
101,1314491,1314390,0,0,-0.173944,0.482772,9.897186,0.114014,0.459776,-0.006800,-18.760496,40.945827,0.730780,-3833.000000,3641.000000,50.000000,4.812412,-87.031971,70.185719,0.609456,-0.370593,-0.580399,0.392889,1214.354248,87473.117188,0.089495,1.709961,1.372192,1.373634,35.250000,39.269802,0,202
101,1316546,1316404,0,0,-0.179257,0.486867,9.892514,-0.011182,0.003708,-0.306079,-18.424397,40.694103,0.526162,-3778.000000,3597.000000,36.000000,4.871232,-87.019745,70.388972,0.609007,-0.371262,-0.579881,0.393716,1214.291260,87472.531250,-0.324191,1.709961,1.309204,1.252274,35.250000,39.279133,0,202
101,1318613,1318498,0,0,-0.177515,0.486154,9.893140,0.253445,-0.330418,0.161849,-18.644390,40.842850,-0.993861,-3814.000000,3623.000000,-68.000000,3.790010,-87.046581,69.418177,0.608707,-0.372199,-0.579450,0.393930,1214.383789,87471.656250,0.261039,1.709961,1.401733,1.133829,35.250000,39.293129,0,202
101,1320687,1320534,0,0,-0.181683,0.485218,9.896287,0.743708,0.361746,0.400349,-18.956045,40.985878,-0.599240,-3865.000000,3648.000000,-41.000000,4.295835,-87.003038,69.472327,0.610368,-0.369618,-0.580788,0.391814,1214.409424,87471.023438,0.111897,1.709961,1.427368,1.424316,35.250000,39.283798,0,202
101,1322775,1322649,0,0,-0.174133,0.491727,9.906270,-0.161567,-0.703919,-0.044010,-18.571058,40.945827,0.584624,-3802.000000,3641.000000,40.000000,3.944777,-87.022846,69.471343,0.609141,-0.371556,-0.579689,0.393515,1214.394531,87472.609375,0.169878,1.709961,1.412476,1.325631,35.125000,39.311787,0,202
101,1324897,1324817,0,0,-0.181029,0.486012,9.900462,-1.051401,-0.695433,-0.514867,-18.528284,40.802803,-0.190003,-3795.000000,3616.000000,-13.000000,5.416653,-87.014431,71.145354,0.608198,-0.372171,-0.579278,0.394995,1214.275146,87475.992188,0.018389,1.709961,1.293091,1.380651,35.250000,39.325783,0,202
101,1326960,1326837,0,0,-0.179754,0.493346,9.893831,0.748684,-0.179190,0.312702,-18.613834,40.751312,0.760012,-3809.000000,3607.000000,52.000000,4.529738,-86.994357,70.103887,0.609001,-0.371538,-0.579504,0.394022,1214.437988,87471.453125,0.202241,1.709961,1.455933,1.452652,35.250000,39.335114,0,202
101,1329039,1328886,0,0,-0.176679,0.492776,9.897152,0.437691,0.641699,-0.427491,-18.632168,40.951550,0.306928,-3812.000000,3642.000000,21.000000,5.699299,-86.958458,71.092550,0.609559,-0.370182,-0.580143,0.393494,1214.530029,87469.914062,0.182008,1.709961,1.547974,1.482700,35.250000,39.325783,0,202
101,1331127,1331001,0,0,-0.183916,0.476317,9.882216,-0.578001,-0.066334,0.016212,-18.705500,40.894337,0.058462,-3824.000000,3632.000000,4.000000,3.485129,-87.059374,68.772915,0.609870,-0.370602,-0.580561,0.391997,1214.427124,87473.929688,0.192332,1.709961,1.445068,1.529514,35.250000,39.353775,0,202
101,1333207,1333022,0,0,-0.167138,0.492009,9.896029,-0.310050,-0.486495,0.128057,-18.748276,40.831406,1.242327,-3831.000000,3621.000000,85.000000,4.111098,-87.005525,69.527439,0.609571,-0.370890,-0.579990,0.393034,1214.446533,87470.304688,0.129614,1.709961,1.464478,1.375287,35.250000,39.363106,0,202
101,1335289,1335169,0,0,-0.170911,0.490525,9.895009,-0.124162,-0.452053,-0.322348,-18.827717,40.900063,-0.029231,-3844.000000,3633.000000,-2.000000,5.516037,-86.994965,70.790430,0.609832,-0.369770,-0.580672,0.392678,1214.317505,87472.773438,-0.037751,1.709961,1.335449,1.340787,35.250000,39.377102,0,202
101,1337377,1337224,0,0,-0.181753,0.486006,9.898289,-0.169842,0.296422,0.016228,-18.461063,40.734150,0.730780,-3784.000000,3604.000000,50.000000,4.755258,-86.940310,70.469281,0.608732,-0.371978,-0.578823,0.395022,1214.198242,87475.484375,-0.123048,1.709961,1.216187,1.239290,35.250000,39.367771,0,202
101,1339465,1339339,0,0,-0.179764,0.490593,9.897302,0.946849,-0.243508,0.317060,-18.509949,40.819965,1.110786,-3792.000000,3619.000000,76.000000,4.390611,-86.966627,69.827640,0.609632,-0.370774,-0.579781,0.393358,1214.317139,87473.429688,0.115391,1.709961,1.335083,1.440017,35.250000,39.395760,0,202
101,1341588,1341449,0,0,-0.172347,0.504644,9.892479,0.929047,0.027268,0.344298,-18.467175,40.739872,0.818474,-3785.000000,3605.000000,56.000000,5.541813,-86.914410,71.143838,0.609080,-0.371107,-0.579216,0.394728,1214.402344,87472.234375,0.007458,1.709961,1.420288,1.421033,35.375000,39.405090,0,202
101,1343657,1343559,0,0,-0.174193,0.496981,9.900965,0.219782,0.321101,0.764133,-18.222738,40.619728,0.803859,-3745.000000,3584.000000,55.000000,4.398428,-87.033289,70.274539,0.607801,-0.373246,-0.578693,0.395449,1214.374023,87472.257812,-0.083954,1.709961,1.391968,1.274354,35.375000,39.414421,0,202
101,1345729,1345581,0,0,-0.177319,0.503499,9.888521,0.661496,-0.447234,-0.079829,-18.296066,40.802803,-0.175387,-3757.000000,3616.000000,-12.000000,4.756503,-86.910011,70.599055,0.608432,-0.372510,-0.578253,0.395816,1214.319580,87473.789062,0.151440,1.709961,1.337524,1.337455,35.375000,39.419086,0,202
101,1347801,1347720,0,0,-0.161527,0.509438,9.894741,-0.490685,0.032011,0.242851,-18.448839,40.659779,1.110786,-3782.000000,3591.000000,76.000000,4.510829,-86.978265,70.123667,0.608948,-0.371676,-0.579293,0.394281,1214.375000,87473.226562,0.090174,1.709961,1.392944,1.484264,35.375000,39.437748,0,202
101,1349876,1349744,0,0,-0.172949,0.487014,9.896676,0.392120,0.070251,-0.285080,-18.442730,40.997322,0.584624,-3781.000000,3650.000000,40.000000,4.844261,-86.985116,70.461727,0.608834,-0.371640,-0.579379,0.394367,1214.347168,87473.554688,-0.016899,1.709961,1.365112,1.261111,35.375000,39.447075,0,202
101,1351958,1351841,0,0,-0.175810,0.491590,9.892845,0.429203,-0.014776,0.130657,-18.320509,40.922947,0.336159,-3761.000000,3637.000000,23.000000,4.809185,-86.937660,70.468557,0.608922,-0.371678,-0.578998,0.394755,1214.362793,87472.054688,0.081745,1.709961,1.380737,1.361601,35.375000,39.456406,0,202
101,1354035,1353944,0,0,-0.184887,0.479957,9.886344,0.784505,-0.320319,-0.255985,-18.589392,40.985878,0.628471,-3805.000000,3648.000000,43.000000,3.993610,-86.978723,69.379791,0.609826,-0.370666,-0.579929,0.392940,1214.319824,87472.687500,-0.130692,1.709961,1.337769,1.417249,35.375000,39.465736,0,202
101,1356113,1355966,0,0,-0.171914,0.486673,9.894012,0.147899,-0.521237,-0.137583,-18.693277,40.837128,-0.014616,-3822.000000,3622.000000,-1.000000,5.147442,-87.013735,70.544543,0.609395,-0.370558,-0.580296,0.393167,1214.247070,87474.226562,-0.049497,1.709961,1.265015,1.263472,35.375000,39.475067,0,202
101,1358248,1358136,0,0,-0.180535,0.488071,9.898069,0.123842,-0.086681,0.378195,-18.644390,40.894337,-0.029231,-3814.000000,3632.000000,-2.000000,4.078561,-87.066252,69.631463,0.608817,-0.371819,-0.579849,0.393533,1214.330200,87475.171875,-0.068010,1.709961,1.348145,1.451216,35.375000,39.489063,0,202
101,1360329,1360191,0,0,-0.181285,0.488347,9.896817,0.170654,0.063769,0.015245,-18.797163,41.020206,-0.219234,-3839.000000,3654.000000,-15.000000,4.257968,-86.987069,69.633970,0.609769,-0.370577,-0.580055,0.392925,1214.310669,87473.664062,-0.142465,1.709961,1.328613,1.325310,35.375000,39.493729,0,202
101,1362408,1362298,0,0,-0.173841,0.491868,9.896293,0.610361,0.416412,0.305315,-18.607725,40.711266,0.248465,-3808.000000,3600.000000,17.000000,5.065097,-87.011795,70.522106,0.609215,-0.370875,-0.580076,0.393472,1214.351685,87474.921875,0.150595,1.709961,1.369629,1.552906,35.375000,39.512386,0,202
101,1364539,1364385,0,0,-0.179305,0.502951,9.893367,-0.099180,-0.122375,0.669885,-18.332735,40.636890,0.073078,-3763.000000,3587.000000,5.000000,4.667521,-86.910674,70.378542,0.608900,-0.371872,-0.578666,0.395091,1214.328369,87472.195312,-0.129323,1.709961,1.346313,1.348005,35.500000,39.517052,0,202
101,1366593,1366481,0,0,-0.169991,0.486451,9.895836,0.234195,-0.400916,-0.441076,-18.693277,40.779922,0.087694,-3822.000000,3612.000000,6.000000,4.868545,-86.995628,70.325656,0.609330,-0.370863,-0.579956,0.393482,1214.302246,87473.437500,-0.053620,1.709961,1.320190,1.397825,35.375000,39.526382,0,202
101,1368648,1368496,0,0,-0.184366,0.478810,9.900076,0.087811,0.670354,-0.583628,-18.399954,40.951550,0.496931,-3774.000000,3642.000000,34.000000,4.268449,-86.936560,69.784644,0.609528,-0.371092,-0.579348,0.393856,1214.377441,87471.335938,0.200064,1.709961,1.395386,1.337587,35.500000,39.540379,0,202
101,1370704,1370623,0,0,-0.180566,0.483261,9.897093,0.194518,-0.581017,0.286181,-18.393845,40.854294,-0.277697,-3773.000000,3625.000000,-19.000000,3.888485,-87.030591,69.355592,0.609319,-0.371298,-0.579910,0.393157,1214.315186,87471.937500,-0.028505,1.709961,1.333130,1.276894,35.500000,39.535713,0,202
101,1372785,1372659,0,0,-0.165836,0.512601,9.901401,-0.005557,-0.367767,-0.033658,-18.528284,40.734150,-0.160772,-3795.000000,3604.000000,-11.000000,4.267693,-87.016501,69.943111,0.608598,-0.372201,-0.579236,0.394412,1214.372803,87472.000000,0.044146,1.709961,1.390747,1.359342,35.375000,39.563702,0,202
101,1374899,1374746,0,0,-0.179467,0.499075,9.897623,0.324558,-0.178774,-0.208067,-18.375509,40.888618,-1.037708,-3770.000000,3631.000000,-71.000000,4.421598,-86.932749,70.221414,0.608539,-0.372470,-0.578439,0.395418,1214.317749,87472.632812,0.028777,1.709961,1.335693,1.336455,35.500000,39.573032,0,202
101,1376961,1376841,0,0,-0.172255,0.499851,9.901570,-0.061587,0.241802,0.802857,-18.473284,40.917225,-1.110786,-3786.000000,3636.000000,-76.000000,3.803686,-87.037196,69.392878,0.608884,-0.371963,-0.579532,0.393760,1214.325684,87474.468750,-0.325589,1.709961,1.343628,1.346143,35.500000,39.577698,0,202
101,1379035,1378882,0,0,-0.180020,0.498244,9.902026,0.047043,0.065209,0.695321,-18.528284,40.837128,-0.570009,-3795.000000,3622.000000,-39.000000,4.321395,-87.036711,69.983921,0.608535,-0.372200,-0.579390,0.394284,1214.261963,87475.390625,-0.092686,1.709961,1.279907,1.450677,35.500000,39.582363,0,202
101,1381123,1380997,0,0,-0.189924,0.484717,9.896020,-0.364199,-0.308594,0.540381,-18.430508,40.722706,-1.607717,-3779.000000,3602.000000,-110.000000,3.661790,-86.966306,69.223428,0.609348,-0.371594,-0.579233,0.393831,1214.297119,87473.898438,-0.141969,1.709961,1.315063,1.330734,35.500000,39.596355,0,202
101,1383211,1383094,0,0,-0.189990,0.468684,9.892291,-0.284552,0.551464,-0.097929,-18.228848,41.020206,-0.672318,-3746.000000,3654.000000,-46.000000,3.136713,-86.993961,68.842289,0.608820,-0.372562,-0.578806,0.394360,1214.248047,87476.062500,-0.107150,1.709961,1.265991,1.386346,35.500000,39.610352,0,202
101,1385299,1385146,0,0,-0.168989,0.502134,9.896139,0.335664,-0.157875,0.235035,-18.332735,40.974438,-0.453084,-3763.000000,3646.000000,-31.000000,5.509263,-86.935495,71.399758,0.607992,-0.372655,-0.578378,0.396172,1214.292236,87473.914062,0.034950,1.709961,1.310181,1.309206,35.500000,39.601021,0,202
101,1387387,1387261,0,0,-0.180874,0.486897,9.905893,0.054767,-0.330862,0.110438,-18.155518,41.020206,-0.730780,-3734.000000,3654.000000,-50.000000,4.051402,-86.965862,69.898735,0.608290,-0.372933,-0.578378,0.395453,1214.385864,87472.132812,0.231436,1.709961,1.403809,1.424053,35.500000,39.619682,0,202
101,1389475,1389361,0,0,-0.185752,0.502942,9.895523,-0.575765,-0.218926,0.182647,-18.369398,40.911503,-0.862321,-3769.000000,3635.000000,-59.000000,3.911115,-86.898694,69.729230,0.608741,-0.372568,-0.578105,0.395503,1214.363037,87473.984375,-0.123031,1.709961,1.380981,1.384074,35.500000,39.633678,0,202
101,1391607,1391516,0,0,-0.174819,0.498422,9.904845,-0.085512,0.033294,0.316366,-18.192181,41.037369,-0.526162,-3740.000000,3657.000000,-36.000000,3.532526,-86.985294,69.316311,0.608517,-0.372821,-0.578583,0.394910,1214.326172,87472.484375,-0.095553,1.709961,1.344116,1.219631,35.500000,39.643005,0,202
101,1393667,1393567,0,0,-0.173294,0.487014,9.903361,-0.380801,-0.014939,0.590545,-18.289957,40.819965,0.131540,-3756.000000,3619.000000,3.000000,4.555237,-87.012041,70.412939,0.607935,-0.373032,-0.578677,0.395469,1214.358398,87472.484375,0.080886,1.709961,1.376343,1.372268,35.500000,39.643005,1,202
101,1393838,1393645,0,0,-0.182689,0.485323,9.902153,-0.027079,-0.281346,0.507008,-18.338846,40.694103,-0.628471,-3764.000000,3597.000000,-43.000000,4.555237,-87.012041,70.412939,0.607935,-0.373032,-0.578677,0.395469,1214.299438,87474.953125,0.115170,1.709961,1.317383,1.381999,35.500000,39.657001,1,202
101,1394009,1393780,0,0,-0.168141,0.494303,9.900879,-0.977148,-0.569770,-0.056400,-18.253290,40.739872,-0.643087,-3750.000000,3605.000000,-44.000000,4.555237,-87.012041,70.412939,0.607935,-0.373032,-0.578677,0.395469,1214.363281,87471.218750,0.186935,1.709961,1.381226,1.391369,35.500000,39.619682,1,202
101,1394176,1394077,0,0,-0.185337,0.488126,9.892037,-0.152545,0.101850,0.072685,-18.241070,40.751312,0.058462,-3743.000000,3623.000000,16.000000,4.474357,-86.989761,70.187550,0.608555,-0.372237,-0.579018,0.394763,1214.411133,87471.570312,0.235317,1.709961,1.429077,1.420375,35.500000,39.643005,1,202
101,1394354,1394166,0,0,-0.186201,0.495446,9.901693,0.301171,0.093789,0.238853,-18.241070,40.728428,-0.233850,-3748.000000,3603.000000,-16.000000,4.474357,-86.989761,70.187550,0.608555,-0.372237,-0.579018,0.394763,1214.379883,87473.398438,0.189497,1.709961,1.397827,1.456089,35.500000,39.643005,1,202
101,1394532,1394305,0,0,-0.178383,0.500165,9.903577,0.139913,-0.144476,0.234014,-18.320509,40.785641,-0.613856,-3761.000000,3613.000000,-42.000000,4.563695,-86.930775,70.371378,0.608492,-0.372465,-0.578432,0.395504,1214.479736,87469.078125,0.236241,1.709961,1.497681,1.491586,35.500000,39.615017,1,202
101,1394707,1394607,0,0,-0.176858,0.497656,9.892008,0.261428,0.167813,-0.359883,-18.351067,40.768478,-1.081555,-3766.000000,3610.000000,-74.000000,4.563695,-86.930775,70.371378,0.608492,-0.372465,-0.578432,0.395504,1214.559082,87470.070312,0.304003,1.709961,1.577026,1.548961,35.500000,39.652336,1,202
101,1394944,1394697,0,0,-0.182244,0.496590,9.895507,0.780842,0.287900,0.587613,-18.210516,40.894337,0.190003,-3738.000000,3636.000000,209.000000,3.857371,-86.940105,69.847290,0.607959,-0.373606,-0.577745,0.396251,1214.474854,87473.703125,0.276722,1.709961,1.492798,1.492724,35.500000,39.643005,1,202
101,1395121,1395022,0,0,-0.178306,0.484366,9.893367,0.017296,-0.174559,-0.022142,-18.228848,40.837128,0.043847,-3746.000000,3622.000000,3.000000,3.857371,-86.940105,69.847290,0.607959,-0.373606,-0.577745,0.396251,1214.444824,87472.117188,0.191707,1.709961,1.462769,1.552003,35.500000,39.615017,1,202
101,1395301,1395101,0,0,-0.181063,0.478877,9.892978,0.051333,-0.556533,0.620574,-18.253290,41.003040,0.131540,-3750.000000,3651.000000,9.000000,3.290507,-87.037572,69.288465,0.607571,-0.374161,-0.578106,0.395797,1214.447510,87471.835938,0.108580,1.709961,1.465454,1.467134,35.500000,39.624348,1,202
101,1395482,1395383,0,0,-0.186167,0.481126,9.893888,-0.188159,0.061512,-0.187857,-18.338846,40.934387,-0.496931,-3764.000000,3639.000000,-34.000000,3.290507,-87.037572,69.288465,0.607571,-0.374161,-0.578106,0.395797,1214.298218,87476.406250,-0.116035,1.709961,1.316162,1.495541,35.500000,39.629013,1,202
101,1395714,1395466,0,0,-0.177767,0.478006,9.893742,-0.193171,-0.429314,0.297413,-18.222738,40.997322,-0.394621,-3745.000000,3650.000000,-27.000000,3.567842,-87.049197,69.600256,0.607344,-0.374307,-0.578105,0.396009,1214.336060,87472.148438,-0.182276,1.709961,1.354004,1.360898,35.500000,39.629013,1,202
101,1395871,1395783,0,0,-0.178873,0.497357,9.904662,-0.260752,-0.382496,-0.156442,-18.216627,40.888618,-0.263081,-3744.000000,3631.000000,-18.000000,3.567842,-87.049197,69.600256,0.607344,-0.374307,-0.578105,0.396009,1214.409302,87471.828125,-0.185563,1.709961,1.427246,1.330424,35.500000,39.619682,1,202
101,1396028,1395863,0,0,-0.173458,0.491555,9.898291,-0.285019,-0.844508,0.313674,-18.314400,41.014481,-0.701549,-3760.000000,3653.000000,-48.000000,4.628259,-86.985485,70.563251,0.607780,-0.373301,-0.578306,0.395996,1214.387939,87473.070312,-0.173493,1.709961,1.405884,1.403107,35.500000,39.633678,1,202
101,1396193,1395993,0,0,-0.172339,0.487089,9.897696,-0.369206,-0.362731,0.697392,-18.069965,40.762756,-0.862321,-3720.000000,3609.000000,-59.000000,4.628259,-86.985485,70.563251,0.607780,-0.373301,-0.578306,0.395996,1214.347656,87473.976562,-0.093476,1.709961,1.365601,1.380314,35.500000,39.629013,1,202
101,1396425,1396307,0,0,-0.179202,0.482178,9.897281,0.171343,0.288311,-0.185387,-18.186071,40.757034,-0.979246,-3739.000000,3608.000000,-67.000000,3.659898,-87.024786,69.612386,0.607720,-0.373788,-0.578259,0.395697,1214.368042,87470.695312,-0.107751,1.709961,1.385986,1.387039,35.500000,39.657001,1,202
101,1396584,1396387,0,0,-0.184866,0.473679,9.895873,0.198380,0.076239,-0.048780,-18.149406,40.922947,-0.964630,-3733.000000,3637.000000,-66.000000,3.659898,-87.024786,69.612386,0.607720,-0.373788,-0.578259,0.395697,1214.280762,87475.851562,-0.169880,1.709961,1.298706,1.371961,35.500000,39.652336,1,202
101,1396744,1396644,0,0,-0.185277,0.482818,9.887243,-0.178856,0.144952,0.867560,-18.247181,40.791359,-0.555393,-3749.000000,3614.000000,-38.000000,3.108782,-87.005907,69.006187,0.608106,-0.373582,-0.578237,0.395329,1214.254883,87475.906250,-0.194552,1.709961,1.272827,1.279903,35.500000,39.675663,1,202
101,1396908,1396723,0,0,-0.182952,0.478917,9.894483,0.035213,0.272496,0.084237,-18.131075,40.980156,-0.116925,-3730.000000,3647.000000,-8.000000,3.108782,-87.005907,69.006187,0.608106,-0.373582,-0.578237,0.395329,1214.355103,87470.390625,-0.114138,1.709961,1.373047,1.255019,35.500000,39.657001,1,202
101,1397073,1396990,0,0,-0.169263,0.496985,9.893721,-0.523898,0.013587,0.049624,-18.357176,40.957272,-1.037708,-3767.000000,3643.000000,-71.000000,5.335203,-86.962399,71.192202,0.608017,-0.372636,-0.578586,0.395849,1214.404663,87471.218750,0.003221,1.709961,1.422607,1.413772,35.500000,39.619682,1,202
101,1397235,1397069,0,0,-0.182994,0.480341,9.891160,-0.073427,-0.158282,-0.241468,-18.369398,40.860016,-0.380006,-3769.000000,3626.000000,-26.000000,5.335203,-86.962399,71.192202,0.608017,-0.372636,-0.578586,0.395849,1214.461548,87470.343750,0.054206,1.709961,1.479492,1.411305,35.500000,39.638344,1,202
101,1397400,1397199,0,0,-0.174897,0.496441,9.897379,1.046120,-0.016722,0.677827,-18.222738,40.917225,-1.037708,-3745.000000,3636.000000,-71.000000,5.335203,-86.962399,71.192202,0.608017,-0.372636,-0.578586,0.395849,1214.450439,87472.148438,0.156490,1.709961,1.468384,1.408791,35.500000,39.629013,1,202
101,1397565,1397465,0,0,-0.169487,0.489055,9.890214,0.721880,-0.659313,0.508088,-18.222738,40.711266,-0.540778,-3745.000000,3600.000000,-37.000000,3.863927,-86.987466,69.616840,0.608548,-0.372587,-0.578759,0.394824,1214.426514,87472.531250,0.166525,1.709961,1.444458,1.471672,35.500000,39.661667,1,202
101,1397785,1397545,0,0,-0.174075,0.501579,9.900234,-0.097899,-0.390915,0.504488,-18.467175,40.774200,-0.511546,-3785.000000,3611.000000,-35.000000,3.863927,-86.987466,69.616840,0.608548,-0.372587,-0.578759,0.394824,1214.458252,87471.000000,0.132571,1.709961,1.476196,1.497975,35.500000,39.657001,1,202
101,1397951,1397852,0,0,-0.168948,0.503718,9.893408,0.214560,-0.222835,-0.330071,-18.161629,40.819965,-0.160772,-3735.000000,3619.000000,-11.000000,5.513769,-86.936629,71.402149,0.607993,-0.372648,-0.578392,0.396158,1214.450195,87471.828125,0.040120,1.709961,1.468140,1.472282,35.500000,39.619682,1,202
101,1398123,1397950,0,0,-0.163211,0.489022,9.891167,-0.364600,-0.119831,0.911019,-18.045521,40.814243,-0.160772,-3716.000000,3618.000000,-11.000000,5.513769,-86.936629,71.402149,0.607993,-0.372648,-0.578392,0.396158,1214.398926,87473.695312,0.001776,1.709961,1.416870,1.485108,35.500000,39.638344,1,202
101,1398297,1398087,0,0,-0.180977,0.477751,9.879457,-0.010256,-0.447827,0.505735,-18.161629,40.808525,0.116925,-3735.000000,3617.000000,8.000000,3.248779,-87.039799,69.252797,0.607547,-0.374210,-0.578089,0.395810,1214.373291,87473.335938,-0.025128,1.709961,1.391235,1.395800,35.500000,39.615017,1,202
101,1398465,1398366,0,0,-0.172144,0.496587,9.904085,0.195616,-0.266752,-0.054804,-18.357176,40.848572,-0.570009,-3767.000000,3624.000000,-39.000000,3.248779,-87.039799,69.252797,0.607547,-0.374210,-0.578089,0.395810,1214.426392,87471.007812,-0.025178,1.709961,1.444336,1.393041,35.500000,39.661667,1,202
101,1398641,1398461,0,0,-0.167704,0.482947,9.897611,0.168063,-0.134715,0.315112,-18.222738,40.757034,-0.102309,-3745.000000,3608.000000,-7.000000,4.946127,-87.043159,70.850427,0.607550,-0.373288,-0.578757,0.395701,1214.407593,87472.796875,-0.018591,1.709961,1.425537,1.423710,35.500000,39.647671,1,202
101,1398819,1398599,0,0,-0.163544,0.491672,9.895668,-0.277716,-0.257462,0.714914,-18.375509,41.100300,-0.131540,-3770.000000,3668.000000,-9.000000,4.946127,-87.043159,70.850427,0.607550,-0.373288,-0.578757,0.395701,1214.473145,87470.000000,0.039588,1.709961,1.491089,1.421238,35.500000,39.619682,1,202
101,1398994,1398894,0,0,-0.168738,0.490180,9.904369,-0.264089,-0.575361,0.304462,-18.106628,40.974438,-0.760012,-3726.000000,3646.000000,-52.000000,4.847637,-87.003783,71.004673,0.606881,-0.374436,-0.577717,0.397161,1214.534668,87468.257812,0.141920,1.709961,1.552612,1.544651,35.500000,39.657001,1,202
101,1399234,1398983,0,0,-0.178798,0.487787,9.899215,0.488174,-0.201662,0.212680,-18.296066,40.865734,-0.628471,-3757.000000,3627.000000,-43.000000,4.847637,-87.003783,71.004673,0.606881,-0.374436,-0.577717,0.397161,1214.483643,87472.789062,0.150662,1.709961,1.501587,1.569397,35.500000,39.643005,1,202
101,1399411,1399311,0,0,-0.176189,0.490810,9.898653,0.433596,-0.451049,0.341466,-18.118851,40.871456,0.613856,-3728.000000,3628.000000,42.000000,4.337564,-87.012287,70.335437,0.607492,-0.373796,-0.578179,0.396156,1214.521606,87470.609375,0.176289,1.709961,1.539551,1.535688,35.625000,39.619682,1,202
101,1399592,1399391,0,0,-0.175177,0.500187,9.893854,-0.230528,-0.268619,0.015279,-18.167738,40.831406,-0.613856,-3736.000000,3621.000000,-42.000000,4.337564,-87.012287,70.335437,0.607492,-0.373796,-0.578179,0.396156,1214.475342,87472.757812,0.191684,1.709961,1.493286,1.558679,35.625000,39.629013,1,202
101,1399772,1399672,0,0,-0.167351,0.499424,9.898758,0.518112,-0.457416,0.527587,-18.277737,40.905785,-1.037708,-3754.000000,3634.000000,-71.000000,4.515511,-86.948814,70.788163,0.606807,-0.374891,-0.576997,0.397891,1214.498291,87472.132812,0.150051,1.709961,1.516235,1.561165,35.625000,39.619682,1,202
101,1399957,1399758,0,0,-0.160409,0.498735,9.889329,0.249431,-0.316674,0.045480,-18.265514,40.871456,-1.140018,-3752.000000,3628.000000,-78.000000,4.515511,-86.948814,70.788163,0.606807,-0.374891,-0.576997,0.397891,1214.493286,87471.539062,0.123223,1.709961,1.511230,1.586390,35.625000,39.629013,1,202
101,1400187,1400087,0,0,-0.181006,0.494025,9.892062,-0.543926,-0.526514,-0.494262,-18.167738,41.071693,-0.219234,-3736.000000,3663.000000,-15.000000,5.380575,-86.959919,71.339379,0.607667,-0.373129,-0.578251,0.396410,1214.487305,87470.914062,0.070417,1.709961,1.505249,1.497948,35.625000,39.619682,1,202
101,1400352,1400166,0,0,-0.180156,0.484802,9.886003,0.158121,-0.322022,-0.102135,-18.418287,40.865734,-1.373867,-3777.000000,3627.000000,-94.000000,5.380575,-86.959919,71.339379,0.607667,-0.373129,-0.578251,0.396410,1214.503906,87470.890625,0.027931,1.709961,1.521851,1.508772,35.625000,39.610352,1,202
101,1400511,1400427,0,0,-0.176513,0.482043,9.887367,0.049266,-0.630392,0.023792,-18.241070,40.997322,-0.467699,-3748.000000,3650.000000,-32.000000,3.085216,-87.009295,69.115668,0.607635,-0.374272,-0.577816,0.396017,1214.405884,87473.359375,-0.067279,1.709961,1.423828,1.465983,35.500000,39.624348,1,202
101,1400726,1400506,0,0,-0.179010,0.492007,9.894520,0.052379,-0.777026,0.176332,-18.228848,40.980156,-1.125402,-3746.000000,3647.000000,-77.000000,3.085216,-87.009295,69.115668,0.607635,-0.374272,-0.577816,0.396017,1214.445068,87470.953125,-0.079783,1.709961,1.463013,1.466558,35.500000,39.638344,1,202
101,1400891,1400685,0,0,-0.174812,0.497922,9.894235,0.280614,0.055719,-0.063315,-18.137186,40.934387,-0.613856,-3731.000000,3639.000000,-42.000000,4.554955,-86.946969,70.654694,0.607407,-0.374003,-0.577560,0.396992,1214.396606,87473.648438,-0.124656,1.709961,1.414551,1.417684,35.500000,39.619682,1,202
101,1401052,1400952,0,0,-0.173609,0.507113,9.897536,-0.046353,-0.373195,0.437626,-18.436619,40.900063,-1.373867,-3780.000000,3633.000000,-94.000000,4.554955,-86.946969,70.654694,0.607407,-0.374003,-0.577560,0.396992,1214.393311,87471.921875,-0.185463,1.709961,1.411255,1.393991,35.500000,39.661667,1,202
101,1401214,1401032,0,0,-0.172889,0.497509,9.898988,0.288593,-0.147848,0.131288,-18.247181,41.014481,-0.073078,-3749.000000,3653.000000,-5.000000,4.827686,-86.954346,70.837224,0.607630,-0.373505,-0.577946,0.396557,1214.434570,87471.015625,-0.124882,1.709961,1.452515,1.450366,35.500000,39.666332,1,202
101,1401379,1401164,0,0,-0.184587,0.482315,9.901651,0.371987,-0.777531,-0.054611,-18.192181,41.014481,-1.300789,-3740.000000,3653.000000,-89.000000,4.827686,-86.954346,70.837224,0.607630,-0.373505,-0.577946,0.396557,1214.353394,87474.929688,-0.138040,1.709961,1.371338,1.434035,35.500000,39.647671,1,202
101,1401540,1401441,0,0,-0.184242,0.485089,9.893819,-0.835737,-0.103133,0.192821,-18.277737,40.985878,-0.233850,-3754.000000,3638.000000,-12.000000,3.240803,-86.997766,69.202671,0.607898,-0.373843,-0.578010,0.395734,1214.367920,87473.117188,-0.047486,1.709961,1.385864,1.389835,35.500000,39.652336,1,202
101,1401707,1401521,0,0,-0.176281,0.481314,9.892405,-0.995861,-0.126646,0.403072,-18.289957,41.088860,-0.467699,-3756.000000,3666.000000,-32.000000,3.240803,-86.997766,69.202671,0.607898,-0.373843,-0.578010,0.395734,1214.376465,87472.453125,-0.028448,1.709961,1.394409,1.382260,35.500000,39.629013,1,202
101,1401875,1401790,0,0,-0.181657,0.487219,9.892440,-0.212165,-0.219559,0.219143,-18.137186,40.860016,-0.964630,-3731.000000,3626.000000,-66.000000,3.488928,-86.991092,69.552315,0.607532,-0.374265,-0.577693,0.396361,1214.376953,87471.523438,0.003559,1.709961,1.394897,1.394584,35.500000,39.619682,1,202
101,1402103,1401871,0,0,-0.184491,0.474384,9.900395,0.049147,-0.265825,-0.127378,-18.265514,40.871456,-0.365390,-3752.000000,3628.000000,-25.000000,3.488928,-86.991092,69.552315,0.607532,-0.374265,-0.577693,0.396361,1214.364380,87473.101562,0.015563,1.709961,1.382324,1.393926,35.500000,39.647671,1,202
101,1402273,1402193,0,0,-0.187576,0.483437,9.885878,0.161996,-0.412559,-0.539556,-18.308289,40.888618,-0.204619,-3759.000000,3631.000000,-14.000000,3.014225,-86.963014,68.943670,0.608222,-0.373609,-0.577895,0.395626,1214.343750,87473.359375,0.018611,1.709961,1.361694,1.379092,35.500000,39.624348,1,202
101,1402443,1402272,0,0,-0.170415,0.503324,9.900554,0.272483,0.151387,0.569601,-18.289957,40.945827,-1.154633,-3756.000000,3641.000000,-79.000000,3.014225,-86.963014,68.943670,0.608222,-0.373609,-0.577895,0.395626,1214.358398,87472.484375,0.042455,1.709961,1.376343,1.382080,35.500000,39.643005,1,202
101,1402616,1402406,0,0,-0.179604,0.483454,9.895640,-0.555726,0.286390,0.176007,-18.442730,40.854294,-0.657702,-3781.000000,3625.000000,-45.000000,3.917861,-87.016569,69.619859,0.608573,-0.372426,-0.579082,0.394463,1214.352295,87473.062500,0.013626,1.709961,1.370239,1.370674,35.500000,39.629013,1,202
101,1402785,1402685,0,0,-0.186257,0.475231,9.895688,-0.543585,-0.299284,0.064206,-18.308289,40.882900,-1.081555,-3759.000000,3615.000000,-48.000000,3.917861,-87.016569,69.619859,0.608573,-0.372426,-0.579082,0.394463,1214.474243,87469.781250,0.119339,1.709961,1.492188,1.373910,35.500000,39.657001,1,202
101,1402960,1402765,0,0,-0.166586,0.492688,9.902788,-0.438230,-0.286324,0.588371,-18.253290,41.003040,-0.876937,-3750.000000,3651.000000,-60.000000,5.317734,-86.993626,71.318745,0.607376,-0.373490,-0.578269,0.396492,1214.483398,87471.296875,0.190315,1.709961,1.501343,1.493292,35.500000,39.657001,1,202
101,1403138,1403038,0,0,-0.181905,0.476647,9.898752,0.216915,-0.155998,-0.042753,-18.112740,40.751312,0.029231,-3727.000000,3607.000000,2.000000,5.317734,-86.993626,71.318745,0.607376,-0.373490,-0.578269,0.396492,1214.430664,87472.750000,0.218499,1.709961,1.448608,1.530010,35.500000,39.624348,1,202
101,1403315,1403124,0,0,-0.175176,0.481607,9.902796,0.794833,0.042071,0.433233,-18.216627,40.940105,-0.774627,-3744.000000,3640.000000,-53.000000,4.000905,-87.037551,70.012089,0.607390,-0.374045,-0.578197,0.396049,1214.471191,87470.640625,0.191801,1.709961,1.489136,1.489392,35.500000,39.633678,1,202
101,1403547,1403447,0,0,-0.178125,0.493957,9.905689,0.358482,0.328161,-0.043726,-18.179960,40.848572,-0.979246,-3738.000000,3624.000000,-67.000000,4.000905,-87.037551,70.012089,0.607390,-0.374045,-0.578197,0.396049,1214.525879,87470.000000,0.098136,1.709961,1.543823,1.539464,35.500000,39.619682,1,202
101,1403724,1403525,0,0,-0.172628,0.486397,9.903561,0.756979,0.067686,-0.060971,-18.131075,40.745590,-0.146156,-3730.000000,3636.000000,-26.000000,4.453072,-87.016740,70.459596,0.607418,-0.373827,-0.578195,0.396215,1214.409668,87475.195312,0.034726,1.709961,1.427612,1.431421,35.500000,39.629013,1,202
101,1403902,1403802,0,0,-0.192677,0.485477,9.895632,0.575028,0.505814,0.666506,-18.308289,40.848572,-0.570009,-3759.000000,3624.000000,-39.000000,4.453072,-87.016740,70.459596,0.607418,-0.373827,-0.578195,0.396215,1214.356323,87473.679688,-0.063728,1.709961,1.374268,1.443003,35.500000,39.633678,1,202
101,1404084,1403881,0,0,-0.173561,0.492431,9.898315,0.346830,0.049202,-0.191418,-18.118851,40.888618,-1.213096,-3728.000000,3631.000000,-83.000000,4.483863,-86.980526,70.584637,0.607258,-0.374155,-0.577712,0.396856,1214.367432,87472.476562,-0.111578,1.709961,1.385376,1.388213,35.500000,39.638344,1,202
101,1404265,1404165,0,0,-0.181099,0.495799,9.899089,0.601691,0.026304,0.111463,-18.326622,40.819965,-0.979246,-3762.000000,3619.000000,-67.000000,4.483863,-86.980526,70.584637,0.607258,-0.374155,-0.577712,0.396856,1214.508301,87468.570312,-0.020611,1.709961,1.526245,1.367653,35.500000,39.661667,1,202
101,1404481,1404249,0,0,-0.181396,0.499666,9.894593,0.949574,0.047199,0.496588,-18.363289,40.688381,0.321543,-3768.000000,3596.000000,22.000000,4.345604,-86.924819,70.047306,0.608930,-0.371964,-0.578702,0.394905,1214.523926,87470.703125,0.079261,1.709961,1.541870,1.532422,35.500000,39.661667,1,202
101,1404713,1404391,0,0,-0.175932,0.491238,9.899726,-0.157768,-0.375501,0.422422,-18.326622,40.705544,-0.599240,-3762.000000,3599.000000,-41.000000,4.345604,-86.924819,70.047306,0.608930,-0.371964,-0.578702,0.394905,1214.545166,87470.335938,0.195234,1.709961,1.563110,1.537090,35.500000,39.633678,1,202
101,1404870,1404771,0,0,-0.166086,0.485902,9.898233,-0.184590,-0.072761,0.125350,-18.222738,40.631168,-1.724642,-3745.000000,3586.000000,-118.000000,4.423982,-87.001488,70.099440,0.608639,-0.372104,-0.579190,0.394507,1214.488281,87471.507812,0.266211,1.709961,1.506226,1.545485,35.500000,39.615017,1,202
101,1405090,1404851,0,0,-0.173055,0.494275,9.900514,-0.122029,-0.454215,-0.083737,-18.241070,40.900063,-0.394621,-3748.000000,3633.000000,-27.000000,4.744675,-86.972125,70.703830,0.607736,-0.373342,-0.578183,0.396203,1214.392822,87474.859375,0.162455,1.709961,1.410767,1.419662,35.500000,39.615017,1,202
101,1405254,1405035,0,0,-0.182113,0.481042,9.902717,0.435085,-0.040558,0.041531,-18.387732,40.940105,-0.643087,-3772.000000,3640.000000,-44.000000,4.744675,-86.972125,70.703830,0.607736,-0.373342,-0.578183,0.396203,1214.429077,87471.195312,0.101865,1.709961,1.447021,1.441791,35.500000,39.610352,1,202
101,1405412,1405312,0,0,-0.183808,0.475518,9.891666,1.103887,0.096841,0.420743,-18.399954,40.860016,-0.540778,-3774.000000,3626.000000,-37.000000,3.111418,-87.049641,68.866393,0.608384,-0.373025,-0.578926,0.394419,1214.381592,87472.476562,-0.068480,1.709961,1.399536,1.400774,35.500000,39.638344,1,202
101,1405571,1405393,0,0,-0.191397,0.486012,9.894189,-0.114892,-0.210213,0.350107,-18.228848,40.802803,-0.906168,-3754.000000,3620.000000,-63.000000,3.111418,-87.049641,68.866393,0.608384,-0.373025,-0.578926,0.394419,1214.377686,87472.750000,-0.111427,1.709961,1.395630,1.395540,35.500000,39.624348,1,202
101,1405736,1405523,0,0,-0.182870,0.490170,9.888667,-0.210498,0.345396,0.091360,-18.302179,40.808525,-1.169249,-3758.000000,3617.000000,-80.000000,3.111418,-87.049641,68.866393,0.608384,-0.373025,-0.578926,0.394419,1214.331787,87474.281250,-0.130926,1.709961,1.349731,1.390229,35.500000,39.629013,1,202
101,1405896,1405796,0,0,-0.176313,0.508453,9.898504,0.041726,0.059114,0.211940,-18.283846,40.682659,-1.213096,-3755.000000,3595.000000,-83.000000,4.804527,-86.900592,70.461154,0.609108,-0.371522,-0.578819,0.394876,1214.303467,87474.632812,-0.129078,1.709961,1.321411,1.352414,35.500000,39.652336,1,202
101,1406060,1405875,0,0,-0.188139,0.493572,9.891480,-0.016536,-0.195895,0.699343,-18.351067,40.705544,-0.453084,-3729.000000,3599.000000,-19.000000,4.804527,-86.900592,70.461154,0.609108,-0.371522,-0.578819,0.394876,1214.331299,87472.453125,-0.105665,1.709961,1.349243,1.334902,35.500000,39.629013,1,202
101,1406228,1406144,0,0,-0.173667,0.485608,9.896235,-0.070875,-0.009940,0.612396,-18.241070,40.837128,-0.803859,-3748.000000,3622.000000,-55.000000,4.153936,-86.890163,69.935277,0.608860,-0.372285,-0.578230,0.395403,1214.374634,87471.226562,-0.009719,1.709961,1.392578,1.328563,35.500000,39.624348,1,202
101,1406456,1406224,0,0,-0.184013,0.496104,9.902649,0.135969,0.135450,0.657122,-18.253290,40.751312,-0.833090,-3750.000000,3607.000000,-57.000000,4.153936,-86.890163,69.935277,0.608860,-0.372285,-0.578230,0.395403,1214.345581,87473.710938,0.021153,1.709961,1.363525,1.310313,35.500000,39.647671,1,202
101,1406625,1406541,0,0,-0.173377,0.501681,9.896329,-0.747771,-0.282618,0.173305,-18.338846,40.728428,-0.950015,-3764.000000,3603.000000,-65.000000,4.391416,-86.920796,70.249035,0.608402,-0.372724,-0.578185,0.395760,1214.309326,87472.750000,0.052832,1.709961,1.327271,1.305484,35.500000,39.624348,1,202
101,1406794,1406620,0,0,-0.174233,0.494870,9.896803,-0.251676,0.043392,0.410889,-18.381620,40.865734,-0.292312,-3771.000000,3627.000000,-20.000000,4.391416,-86.920796,70.249035,0.608402,-0.372724,-0.578185,0.395760,1214.411377,87469.750000,0.124028,1.709961,1.429321,1.308016,35.500000,39.643005,1,202
101,1406962,1406756,0,0,-0.177417,0.498781,9.888438,-0.429273,-0.164722,-0.011747,-18.241070,40.894337,-1.388483,-3748.000000,3632.000000,-95.000000,4.457840,-86.935488,70.419435,0.607960,-0.373287,-0.577934,0.396276,1214.492676,87469.398438,0.161022,1.709961,1.510620,1.497918,35.625000,39.624348,1,202
101,1407133,1407034,0,0,-0.178044,0.502012,9.894382,-0.124770,0.155395,0.384330,-18.247181,40.734150,-0.730780,-3749.000000,3604.000000,-50.000000,4.457840,-86.935488,70.419435,0.607960,-0.373287,-0.577934,0.396276,1214.500610,87469.789062,0.212045,1.709961,1.518555,1.530336,35.625000,39.661667,1,202
101,1407306,1407113,0,0,-0.180277,0.497896,9.893282,0.056566,0.554202,0.530595,-18.106628,40.694103,-0.423853,-3726.000000,3597.000000,-29.000000,4.085951,-86.936219,70.095786,0.607863,-0.373631,-0.577706,0.396431,1214.527100,87470.390625,0.247833,1.709961,1.545044,1.542140,35.625000,39.657001,1,202
101,1407478,1407380,0,0,-0.181562,0.485603,9.890180,-0.279976,0.126272,0.229253,-18.131075,40.808525,-0.862321,-3730.000000,3617.000000,-59.000000,4.085951,-86.936219,70.095786,0.607863,-0.373631,-0.577706,0.396431,1214.546753,87470.640625,0.180609,1.709961,1.564697,1.591910,35.625000,39.633678,1,202
101,1407656,1407470,0,0,-0.172649,0.495093,9.901844,-0.022468,-0.045861,0.275569,-18.357176,40.699821,-1.607717,-3767.000000,3598.000000,-110.000000,5.049890,-86.968847,70.775267,0.608498,-0.372070,-0.578988,0.395053,1214.457642,87474.015625,0.158324,1.709961,1.475586,1.479681,35.625000,39.647671,1,202
101,1407890,1407609,0,0,-0.177649,0.488655,9.899065,0.150491,-0.505961,0.147614,-18.137186,40.865734,-1.797720,-3731.000000,3627.000000,-123.000000,5.049890,-86.968847,70.775267,0.608498,-0.372070,-0.578988,0.395053,1214.464844,87470.007812,0.101446,1.709961,1.482788,1.510652,35.625000,39.624348,1,202
101,1408063,1407964,0,0,-0.168795,0.503210,9.904868,-0.495065,-0.406485,0.493183,-18.271624,40.768478,-0.482315,-3753.000000,3610.000000,-33.000000,4.546454,-87.007703,70.449611,0.607800,-0.373247,-0.578505,0.395724,1214.437744,87474.687500,0.013342,1.709961,1.455688,1.566590,35.625000,39.675663,1,202
101,1408243,1408055,0,0,-0.166497,0.489072,9.906352,-0.478364,-0.080929,0.400892,-17.966078,40.860016,-0.818474,-3703.000000,3626.000000,-56.000000,4.546454,-87.007703,70.449611,0.607800,-0.373247,-0.578505,0.395724,1214.526123,87468.867188,-0.015715,1.709961,1.544067,1.583273,35.500000,39.657001,1,202
101,1408421,1408194,0,0,-0.172875,0.481298,9.896771,-0.324667,-0.299433,0.162994,-18.045521,40.785641,-0.701549,-3716.000000,3613.000000,-48.000000,4.111462,-87.041943,70.242444,0.606934,-0.374638,-0.577850,0.396696,1214.521484,87471.234375,0.001413,1.709961,1.539429,1.540448,35.500000,39.629013,1,202
101,1408602,1408502,0,0,-0.172051,0.497946,9.904034,0.249182,-0.174268,0.710418,-18.259401,40.682659,-0.233850,-3751.000000,3595.000000,-16.000000,4.111462,-87.041943,70.242444,0.606934,-0.374638,-0.577850,0.396696,1214.602661,87468.570312,0.027818,1.709961,1.620605,1.544022,35.500000,39.661667,1,202
101,1408819,1408587,0,0,-0.174441,0.485979,9.902658,-0.320033,0.277564,0.462645,-18.222738,40.837128,-1.081555,-3745.000000,3622.000000,-74.000000,4.302761,-87.015223,70.254513,0.607644,-0.373583,-0.578337,0.395892,1214.625000,87469.460938,0.123518,1.709961,1.642944,1.636644,35.500000,39.652336,1,202
101,1408999,1408899,0,0,-0.175272,0.483935,9.888350,-0.723184,0.204771,-0.034414,-18.204405,40.985878,-0.745396,-3742.000000,3648.000000,-51.000000,4.302761,-87.015223,70.254513,0.607644,-0.373583,-0.578337,0.395892,1214.536377,87470.375000,0.006071,1.709961,1.554321,1.664256,35.500000,39.652336,1,202
101,1409237,1408979,0,0,-0.176518,0.486822,9.895321,-0.322916,-0.331647,-0.116284,-18.271624,40.648335,-1.271558,-3753.000000,3589.000000,-87.000000,4.273387,-87.004363,70.069784,0.608238,-0.372765,-0.578782,0.395100,1214.511719,87471.835938,-0.040709,1.709961,1.529663,1.536143,35.500000,39.624348,1,202
101,1409448,1409348,0,0,-0.179457,0.483325,9.907032,-0.764803,0.927896,0.202139,-18.289957,40.991600,-1.081555,-3756.000000,3649.000000,-74.000000,4.273387,-87.004363,70.069784,0.608238,-0.372765,-0.578782,0.395100,1214.423218,87472.890625,-0.306377,1.709961,1.441162,1.530271,35.500000,39.689655,1,202
101,1409601,1409427,0,0,-0.184740,0.489162,9.897685,0.493482,0.098920,0.422957,-18.069965,40.819965,-0.438468,-3720.000000,3619.000000,-30.000000,3.190609,-86.975936,69.310069,0.607468,-0.374569,-0.577375,0.396635,1214.480225,87470.132812,-0.264045,1.709961,1.498169,1.500513,35.625000,39.680325,1,202
101,1409754,1409556,0,0,-0.192686,0.473554,9.885159,0.614611,-0.009632,0.713087,-18.069965,40.905785,-0.058462,-3720.000000,3634.000000,-4.000000,3.190609,-86.975936,69.310069,0.607468,-0.374569,-0.577375,0.396635,1214.470703,87471.898438,-0.248614,1.709961,1.488647,1.470674,35.625000,39.652336,1,202
101,1409919,1409687,0,0,-0.190829,0.489763,9.887780,-1.001688,-0.358369,0.355776,-18.399954,40.940105,-0.672318,-3774.000000,3640.000000,-46.000000,3.190609,-86.975936,69.310069,0.607468,-0.374569,-0.577375,0.396635,1214.507812,87470.070312,-0.197499,1.709961,1.525757,1.439931,35.625000,39.652336,1,202
101,1410076,1409977,0,0,-0.186844,0.492612,9.896368,0.289425,0.478407,1.005316,-18.271624,40.671219,-0.219234,-3753.000000,3593.000000,-15.000000,4.497157,-86.987636,70.372757,0.608001,-0.373043,-0.578484,0.395639,1214.530518,87471.039062,0.018359,1.709961,1.548462,1.529137,35.625000,39.675663,1,202
101,1410237,1410057,0,0,-0.186855,0.487103,9.898435,0.493578,-0.268356,0.667329,-18.137186,40.882900,0.248465,-3731.000000,3630.000000,17.000000,4.497157,-86.987636,70.372757,0.608001,-0.373043,-0.578484,0.395639,1214.627930,87467.562500,0.112200,1.709961,1.645874,1.515834,35.625000,39.619682,1,202
101,1410402,1410320,0,0,-0.174602,0.501809,9.905146,0.786998,-0.266835,0.743845,-18.192181,40.957272,0.219234,-3740.000000,3643.000000,15.000000,3.907208,-86.893817,69.963663,0.607941,-0.373752,-0.577303,0.396785,1214.547485,87472.164062,0.127923,1.709961,1.565430,1.625005,35.625000,39.633678,1,202
101,1410567,1410401,0,0,-0.189241,0.488853,9.892663,0.468529,-0.662832,0.510272,-18.094406,41.014481,-0.350775,-3724.000000,3653.000000,-24.000000,3.907208,-86.893817,69.963663,0.607941,-0.373752,-0.577303,0.396785,1214.509399,87472.195312,0.058671,1.709961,1.527344,1.643793,35.625000,39.647671,1,202
101,1410787,1410535,0,0,-0.180910,0.485067,9.891248,-0.490076,-0.578256,-0.108401,-18.204405,40.865734,-0.570009,-3742.000000,3627.000000,-39.000000,3.560506,-87.003885,69.546543,0.607724,-0.373904,-0.578024,0.395924,1214.560547,87469.421875,0.029002,1.709961,1.578491,1.580666,35.625000,39.633678,1,202
101,1410953,1410853,0,0,-0.182548,0.502928,9.892447,0.425195,-0.444951,0.509107,-18.198294,40.934387,-0.672318,-3741.000000,3639.000000,-46.000000,3.560506,-87.003885,69.546543,0.607724,-0.373904,-0.578024,0.395924,1214.421265,87473.148438,-0.257851,1.709961,1.439209,1.589757,35.625000,39.666332,1,202
101,1411120,1410952,0,0,-0.177489,0.509374,9.902019,0.254027,-0.123231,0.761149,-18.381620,40.928665,-0.862321,-3771.000000,3638.000000,-59.000000,4.976955,-86.881905,70.789324,0.608624,-0.372191,-0.578256,0.395818,1214.385132,87473.468750,-0.314781,1.709961,1.403076,1.413992,35.625000,39.675663,1,202
101,1411288,1411086,0,0,-0.179505,0.500004,9.890104,0.368453,-0.348014,0.571861,-18.106628,40.922947,-0.686934,-3757.000000,3639.000000,-45.000000,4.976955,-86.881905,70.789324,0.608624,-0.372191,-0.578256,0.395818,1214.396240,87472.171875,-0.330486,1.709961,1.414185,1.376842,35.625000,39.638344,1,202
101,1411457,1411357,0,0,-0.190267,0.503223,9.901155,0.129550,-0.584024,-0.111575,-18.143295,40.951550,-0.058462,-3732.000000,3642.000000,-4.000000,3.188319,-86.889821,69.288458,0.607952,-0.374150,-0.576997,0.396838,1214.453125,87471.046875,-0.230359,1.709961,1.471069,1.467537,35.625000,39.680325,1,202
101,1411628,1411454,0,0,-0.184045,0.490186,9.899972,-0.725074,-0.558031,-0.397497,-18.326622,41.025925,-0.336159,-3762.000000,3655.000000,-23.000000,3.188319,-86.889821,69.288458,0.607952,-0.374150,-0.576997,0.396838,1214.476318,87471.023438,-0.112773,1.709961,1.494263,1.431848,35.625000,39.670998,1,202
101,1411799,1411588,0,0,-0.169053,0.508780,9.903871,-1.536898,-0.003342,0.461823,-18.320509,40.962994,0.204619,-3761.000000,3644.000000,14.000000,3.188319,-86.889821,69.288458,0.607952,-0.374150,-0.576997,0.396838,1214.528809,87469.734375,0.011605,1.709961,1.546753,1.400372,35.625000,39.638344,1,202
101,1411971,1411871,0,0,-0.176816,0.493405,9.895456,0.243649,-0.271525,0.141372,-18.198294,40.928665,-0.350775,-3741.000000,3638.000000,-24.000000,5.162339,-86.950139,71.055250,0.607985,-0.372814,-0.578373,0.396041,1214.570923,87469.820312,0.166236,1.709961,1.588867,1.557945,35.625000,39.675663,1,202
101,1412208,1411963,0,0,-0.170721,0.494608,9.898870,-0.126863,0.480816,0.789261,-18.259401,40.728428,-0.760012,-3751.000000,3603.000000,-52.000000,5.162339,-86.950139,71.055250,0.607985,-0.372814,-0.578373,0.396041,1214.661621,87467.367188,0.214741,1.709961,1.679565,1.570472,35.625000,39.666332,1,202
101,1412383,1412285,0,0,-0.177936,0.496318,9.890754,-0.091913,0.412254,0.756699,-18.351067,40.957272,-0.263081,-3766.000000,3643.000000,-18.000000,4.921032,-86.981038,70.776947,0.608016,-0.372809,-0.578599,0.395668,1214.591797,87470.335938,0.167032,1.709961,1.609741,1.619774,35.625000,39.633678,1,202
101,1412561,1412364,0,0,-0.162979,0.491344,9.894726,-0.299311,-0.291620,0.321007,-18.204405,40.808525,0.336159,-3742.000000,3617.000000,23.000000,4.921032,-86.981038,70.776947,0.608016,-0.372809,-0.578599,0.395668,1214.557129,87471.593750,0.117151,1.709961,1.575073,1.645262,35.625000,39.652336,1,202
101,1412737,1412637,0,0,-0.172786,0.488687,9.900741,-0.020444,0.264461,0.306609,-18.143295,40.871456,-0.526162,-3732.000000,3628.000000,-36.000000,3.202586,-86.993483,69.263978,0.607582,-0.374338,-0.577656,0.396267,1214.560303,87472.171875,-0.006842,1.709961,1.578247,1.643757,35.625000,39.638344,1,202
101,1412917,1412725,0,0,-0.185667,0.486128,9.895088,-0.877742,-0.028331,-0.507889,-18.192181,40.877178,-0.219234,-3740.000000,3629.000000,-15.000000,3.202586,-86.993483,69.263978,0.607582,-0.374338,-0.577656,0.396267,1214.518066,87472.203125,-0.057776,1.709961,1.536011,1.658826,35.625000,39.652336,1,202
101,1413100,1412863,0,0,-0.171962,0.495755,9.893291,0.297241,-0.729713,-0.157494,-18.265514,40.957272,-0.628471,-3752.000000,3643.000000,-43.000000,4.908323,-86.963922,70.869899,0.607734,-0.373280,-0.578167,0.396288,1214.523071,87470.968750,-0.092149,1.709961,1.541016,1.546803,35.625000,39.643005,1,202
101,1413277,1413179,0,0,-0.187276,0.481485,9.894515,0.006927,-0.833032,0.731136,-18.143295,41.014481,-0.102309,-3732.000000,3653.000000,-7.000000,4.908323,-86.963922,70.869899,0.607734,-0.373280,-0.578167,0.396288,1214.507690,87471.328125,-0.152853,1.709961,1.525635,1.529038,35.625000,39.670998,1,202
101,1413496,1413264,0,0,-0.186278,0.493958,9.891397,0.381484,0.303818,0.368027,-18.351067,40.831406,0.233850,-3766.000000,3621.000000,16.000000,3.544757,-86.944955,69.337922,0.608677,-0.372714,-0.578349,0.395107,1214.523315,87470.710938,-0.126398,1.709961,1.541260,1.541601,35.625000,39.666332,1,202
101,1413780,1413681,0,0,-0.190130,0.484432,9.884228,0.839461,0.481776,0.395951,-18.241070,41.008762,-0.789243,-3748.000000,3652.000000,-54.000000,2.552064,-86.986141,68.570967,0.607888,-0.374268,-0.577634,0.395897,1214.552734,87471.007812,-0.006633,1.709961,1.570679,1.568123,35.625000,39.661667,1,202
101,1413960,1413760,0,0,-0.181581,0.476373,9.883147,0.485976,-0.036625,0.325579,-18.131075,40.917225,0.233850,-3730.000000,3636.000000,16.000000,2.552064,-86.986141,68.570967,0.607888,-0.374268,-0.577634,0.395897,1214.540527,87471.218750,0.027629,1.709961,1.558472,1.564852,35.625000,39.619682,1,202
101,1414118,1414018,0,0,-0.183952,0.484504,9.893055,-0.745324,-0.207355,0.878351,-18.289957,40.842850,-0.190003,-3756.000000,3623.000000,-13.000000,3.336977,-87.001290,69.209706,0.608170,-0.373381,-0.578337,0.395274,1214.526367,87470.117188,0.013580,1.709961,1.544312,1.545786,35.625000,39.670998,1,202
101,1414274,1414099,0,0,-0.170236,0.495470,9.906960,-0.544896,-0.262164,0.335285,-18.118851,40.894337,0.233850,-3728.000000,3632.000000,16.000000,3.336977,-87.001290,69.209706,0.608170,-0.373381,-0.578337,0.395274,1214.509766,87471.656250,-0.024123,1.709961,1.527710,1.546948,35.625000,39.680325,1,202
101,1414439,1414227,0,0,-0.186820,0.485942,9.899081,-0.310446,-0.432420,-0.097663,-18.277737,40.888618,-0.496931,-3754.000000,3631.000000,-34.000000,3.336977,-87.001290,69.209706,0.608170,-0.373381,-0.578337,0.395274,1214.499756,87471.593750,-0.053476,1.709961,1.517700,1.548142,35.625000,39.652336,1,202
101,1414597,1414497,0,0,-0.185170,0.487868,9.896667,0.683703,-0.115654,0.297982,-18.082186,40.905785,-0.160772,-3722.000000,3634.000000,-17.000000,4.222867,-87.050010,69.961675,0.608228,-0.372661,-0.579190,0.394615,1214.474609,87471.015625,-0.095179,1.709961,1.492554,1.459531,35.500000,39.666332,1,202
101,1414757,1414577,0,0,-0.182415,0.472560,9.901867,-0.521230,0.173806,-0.293429,-18.216627,40.831406,0.599240,-3744.000000,3621.000000,41.000000,4.222867,-87.050010,69.961675,0.608228,-0.372661,-0.579190,0.394615,1214.501221,87470.664062,-0.100975,1.709961,1.519165,1.446650,35.500000,39.643005,1,202
101,1414923,1414707,0,0,-0.185527,0.487143,9.905553,-0.892964,-0.212759,0.438354,-18.351067,40.768478,0.789243,-3766.000000,3610.000000,54.000000,3.392530,-86.987609,69.150823,0.608620,-0.372738,-0.578651,0.394730,1214.563599,87469.117188,-0.064919,1.709961,1.581543,1.574886,35.500000,39.633678,1,202
101,1415155,1415039,0,0,-0.178905,0.487885,9.896317,0.488742,-0.374628,0.172073,-18.253290,40.699821,0.058462,-3750.000000,3598.000000,4.000000,3.392530,-86.987609,69.150823,0.608620,-0.372738,-0.578651,0.394730,1214.639404,87468.843750,0.101106,1.709961,1.657349,1.555747,35.500000,39.647671,1,202
101,1415320,1415118,0,0,-0.175184,0.496686,9.896192,-0.036244,-0.652444,-0.384182,-18.283846,40.848572,-0.292312,-3755.000000,3624.000000,-20.000000,4.690207,-86.953595,70.571912,0.608103,-0.372893,-0.578331,0.395846,1214.626221,87470.328125,0.155121,1.709961,1.644165,1.639934,35.500000,39.629013,1,202
101,1415483,1415383,0,0,-0.176449,0.486423,9.901125,-0.396169,0.011351,-0.103280,-18.265514,41.014481,-0.409237,-3752.000000,3653.000000,-28.000000,4.690207,-86.953595,70.571912,0.608103,-0.372893,-0.578331,0.395846,1214.668213,87466.781250,0.151110,1.709961,1.686157,1.666912,35.500000,39.675663,1,202
101,1415650,1415461,0,0,-0.171217,0.488274,9.899154,0.222956,-0.570831,-0.174543,-18.406065,40.819965,-0.014616,-3775.000000,3619.000000,-1.000000,4.954072,-87.007902,70.676427,0.608343,-0.372230,-0.579174,0.394868,1214.565918,87473.187500,0.092344,1.709961,1.583862,1.587320,35.500000,39.684990,1,202
101,1415818,1415727,0,0,-0.179566,0.481790,9.896551,0.215067,-0.305509,-0.525173,-18.430508,40.676937,-0.438468,-3779.000000,3594.000000,-30.000000,4.954072,-87.007902,70.676427,0.608343,-0.372230,-0.579174,0.394868,1214.568359,87471.585938,0.006836,1.709961,1.586304,1.607736,35.500000,39.647671,1,202
101,1415987,1415807,0,0,-0.184975,0.486986,9.892515,0.016667,-0.269392,-0.056719,-18.296066,41.020206,-0.657702,-3757.000000,3654.000000,-45.000000,3.241520,-86.985628,69.201441,0.607963,-0.373787,-0.577955,0.395767,1214.651855,87467.648438,0.076413,1.709961,1.669800,1.664710,35.625000,39.657001,1,202
101,1416160,1416075,0,0,-0.188619,0.474590,9.889928,-0.481645,0.062574,0.217583,-18.357176,40.928665,-0.321543,-3767.000000,3638.000000,-22.000000,3.241520,-86.985628,69.201441,0.607963,-0.373787,-0.577955,0.395767,1214.734375,87467.000000,0.125529,1.752319,1.752319,1.681637,35.625000,39.638344,1,202
101,1416330,1416153,0,0,-0.173555,0.488257,9.896503,-0.857162,0.011936,0.463480,-18.613834,40.882900,0.599240,-3809.000000,3630.000000,41.000000,4.921527,-87.002704,70.431797,0.609104,-0.371146,-0.579830,0.393752,1214.638794,87472.242188,0.119030,1.752319,1.656738,1.657230,35.625000,39.670998,1,202
101,1416566,1416286,0,0,-0.166107,0.494375,9.900907,-0.344309,-0.353608,0.653464,-18.320509,40.997322,-0.058462,-3761.000000,3650.000000,-4.000000,4.921527,-87.002704,70.431797,0.609104,-0.371146,-0.579830,0.393752,1214.659912,87469.117188,0.160708,1.752319,1.677856,1.678293,35.625000,39.633678,1,202
101,1416736,1416637,0,0,-0.175966,0.490868,9.893742,-0.334855,-0.273653,0.738325,-18.082186,40.957272,0.701549,-3722.000000,3643.000000,48.000000,5.888474,-86.955985,71.889742,0.607435,-0.373197,-0.578197,0.396780,1214.673462,87469.250000,0.145113,1.752319,1.691406,1.692674,35.625000,39.694321,1,202
101,1416910,1416730,0,0,-0.177332,0.497682,9.896432,-0.390993,-0.099186,0.753008,-18.522169,40.877178,0.818474,-3794.000000,3629.000000,56.000000,5.888474,-86.955985,71.889742,0.607435,-0.373197,-0.578197,0.396780,1214.518677,87475.000000,0.005012,1.752319,1.536621,1.714509,35.625000,39.680325,1,202
101,1417090,1416868,0,0,-0.168351,0.492661,9.897037,-0.587283,-0.433089,0.583091,-18.283846,40.779922,0.116925,-3755.000000,3612.000000,8.000000,5.291048,-86.988743,71.133784,0.607951,-0.372678,-0.578754,0.395664,1214.557617,87469.765625,-0.025388,1.752319,1.575562,1.581925,35.625000,39.652336,1,202
101,1417267,1417167,0,0,-0.176693,0.495598,9.899440,0.365004,-0.166301,-0.271555,-18.186071,40.831406,0.438468,-3739.000000,3621.000000,30.000000,5.291048,-86.988743,71.133784,0.607951,-0.372678,-0.578754,0.395664,1214.561401,87470.437500,-0.081821,1.752319,1.579346,1.580608,35.500000,39.680325,1,202
101,1417448,1417255,0,0,-0.179569,0.483054,9.895711,0.307749,-0.036218,-0.281424,-18.399954,41.014481,0.219234,-3766.000000,3653.000000,15.000000,3.776111,-87.018837,69.608056,0.608142,-0.373127,-0.578644,0.395108,1214.560181,87470.734375,-0.104038,1.752319,1.578125,1.578359,35.500000,39.675663,1,202
101,1417630,1417530,0,0,-0.171159,0.508610,9.904546,0.242523,0.163201,0.082341,-18.332735,40.854294,-0.336159,-3763.000000,3625.000000,-23.000000,3.776111,-87.018837,69.608056,0.608142,-0.373127,-0.578644,0.395108,1214.557129,87471.265625,-0.038113,1.752319,1.575073,1.558477,35.500000,39.643005,1,202
101,1417815,1417608,0,0,-0.174072,0.500380,9.902002,-0.287850,0.127576,0.250295,-18.241070,40.722706,-0.774627,-3748.000000,3602.000000,-53.000000,4.949904,-86.937380,70.818243,0.608174,-0.372696,-0.578346,0.395903,1214.532227,87471.617188,-0.041961,1.752319,1.550171,1.551908,35.500000,39.661667,1,202
101,1418052,1417952,0,0,-0.181438,0.497786,9.897699,-0.650218,-0.015179,-0.017465,-18.069965,40.928665,-1.125402,-3720.000000,3638.000000,-77.000000,4.949904,-86.937380,70.818243,0.608174,-0.372696,-0.578346,0.395903,1214.587158,87470.773438,0.045588,1.752319,1.605103,1.538453,35.500000,39.694321,1,202
101,1418279,1418030,0,0,-0.176954,0.491986,9.899037,0.408225,-0.178875,-0.116327,-18.393845,40.962994,-0.438468,-3773.000000,3644.000000,-30.000000,4.403331,-86.976592,70.217712,0.608283,-0.372716,-0.578609,0.395330,1214.510986,87473.117188,0.032301,1.752319,1.528931,1.530327,35.500000,39.652336,1,202
101,1418432,1418337,0,0,-0.152537,0.487675,9.902162,-0.426067,0.278368,0.497627,-18.259401,40.757034,-1.096171,-3751.000000,3608.000000,-75.000000,4.403331,-86.976592,70.217712,0.608283,-0.372716,-0.578609,0.395330,1214.582031,87469.539062,0.149501,1.752319,1.599976,1.534938,35.500000,39.684990,1,202
101,1418587,1418416,0,0,-0.172524,0.490669,9.893489,-0.302142,-0.512943,-0.313861,-18.601614,40.934387,-0.628471,-3807.000000,3639.000000,-43.000000,5.069216,-86.990642,70.627735,0.608966,-0.371306,-0.579642,0.394091,1214.667969,87467.414062,0.182858,1.752319,1.685913,1.676307,35.500000,39.689655,1,202
101,1418752,1418545,0,0,-0.176602,0.481070,9.892406,-0.859709,-0.746919,0.057946,-18.418287,41.071693,0.014616,-3777.000000,3663.000000,1.000000,5.069216,-86.990642,70.627735,0.608966,-0.371306,-0.579642,0.394091,1214.661621,87469.781250,0.209114,1.752319,1.679565,1.698015,35.500000,39.657001,1,202
101,1418911,1418811,0,0,-0.192096,0.478468,9.881604,0.366292,-0.291790,0.200900,-18.277737,41.037369,-0.453084,-3754.000000,3657.000000,-31.000000,2.135107,-87.013209,68.125495,0.607932,-0.374333,-0.577789,0.395542,1214.626709,87470.765625,0.222931,1.752319,1.644653,1.646613,35.500000,39.689655,1,202
101,1419073,1418891,0,0,-0.178637,0.496788,9.896031,-0.057598,0.018423,0.212374,-18.332735,40.865734,0.233850,-3763.000000,3627.000000,16.000000,2.135107,-87.013209,68.125495,0.607932,-0.374333,-0.577789,0.395542,1214.545288,87472.890625,0.126912,1.752319,1.563232,1.674993,35.500000,39.689655,1,202
101,1419237,1419022,0,0,-0.177931,0.490374,9.897119,0.075009,-0.091888,0.186763,-18.387732,40.671219,0.000000,-3772.000000,3593.000000,0.000000,2.135107,-87.013209,68.125495,0.607932,-0.374333,-0.577789,0.395542,1214.506592,87472.234375,-0.005150,1.752319,1.524536,1.703755,35.500000,39.666332,1,202
101,1419469,1419357,0,0,-0.176050,0.490104,9.899994,0.270284,0.090171,0.296236,-18.173849,41.014481,-1.125402,-3737.000000,3653.000000,-77.000000,3.783705,-87.040714,69.466343,0.608550,-0.372454,-0.579242,0.394239,1214.463379,87474.078125,-0.102028,1.752319,1.481323,1.576758,35.500000,39.675663,1,202
101,1419633,1419437,0,0,-0.178972,0.484837,9.894763,-0.036838,-0.152398,0.017091,-18.326622,40.882900,-1.330020,-3762.000000,3630.000000,-91.000000,3.883451,-87.010094,69.738875,0.608083,-0.373185,-0.578544,0.395292,1214.476807,87471.257812,-0.108216,1.752319,1.494751,1.502437,35.500000,39.638344,1,202
101,1419797,1419569,0,0,-0.182575,0.492138,9.893903,-0.354568,-0.401199,-0.220465,-18.277737,41.077415,-1.037708,-3754.000000,3664.000000,-71.000000,3.883451,-87.010094,69.738875,0.608083,-0.373185,-0.578544,0.395292,1214.486084,87471.265625,-0.062227,1.752319,1.504028,1.490335,35.500000,39.643005,1,202
101,1419963,1419863,0,0,-0.168068,0.502464,9.892271,0.101736,-0.460120,0.682401,-18.387732,40.980156,-1.359252,-3772.000000,3647.000000,-93.000000,5.670193,-86.934183,71.505592,0.608155,-0.372330,-0.578584,0.395926,1214.519531,87470.453125,0.007469,1.752319,1.537476,1.535312,35.500000,39.684990,1,202
101,1420133,1419962,0,0,-0.164966,0.499748,9.895687,-0.637713,-0.249123,-0.119997,-18.234959,40.894337,-0.511546,-3747.000000,3632.000000,-35.000000,5.670193,-86.934183,71.505592,0.608155,-0.372330,-0.578584,0.395926,1214.539185,87470.437500,0.055738,1.752319,1.557129,1.534639,35.500000,39.680325,1,202
101,1420302,1420098,0,0,-0.168478,0.502768,9.899446,0.432485,-0.517377,0.063125,-18.289957,41.048809,-0.204619,-3756.000000,3659.000000,-14.000000,5.670193,-86.934183,71.505592,0.608155,-0.372330,-0.578584,0.395926,1214.545654,87470.695312,0.085931,1.752319,1.563599,1.534063,35.500000,39.657001,1,202
101,1420471,1420371,0,0,-0.174907,0.498617,9.899160,0.196497,-0.668995,-0.041146,-18.228848,40.934387,-0.394621,-3746.000000,3639.000000,-27.000000,4.005059,-86.962973,70.010491,0.607767,-0.373732,-0.577840,0.396290,1214.516968,87471.382812,0.066936,1.752319,1.534912,1.549382,35.500000,39.694321,1,202
101,1420645,1420467,0,0,-0.174389,0.482849,9.899475,-0.052138,-0.935584,-0.048234,-18.326622,40.917225,-0.292312,-3762.000000,3636.000000,-20.000000,4.005059,-86.962973,70.010491,0.607767,-0.373732,-0.577840,0.396290,1214.563110,87469.523438,0.054086,1.752319,1.581055,1.560228,35.500000,39.680325,1,202
101,1420875,1420603,0,0,-0.175546,0.473174,9.885899,-0.755654,-0.114899,-0.192210,-18.192181,41.043091,-1.037708,-3740.000000,3658.000000,-71.000000,3.550833,-87.077515,69.645287,0.606996,-0.374731,-0.578043,0.396232,1214.554199,87470.984375,0.033572,1.752319,1.572144,1.570377,35.500000,39.652336,1,202
101,1421044,1420944,0,0,-0.167324,0.503462,9.904290,0.694051,-0.045718,0.619317,-18.124962,40.974438,-0.526162,-3729.000000,3646.000000,-36.000000,3.550833,-87.077515,69.645287,0.606996,-0.374731,-0.578043,0.396232,1214.540283,87471.984375,0.023374,1.752319,1.558228,1.579303,35.500000,39.689655,1,202
101,1421219,1421040,0,0,-0.173729,0.491569,9.900609,0.426972,-0.109421,0.712178,-18.454950,40.768478,-1.330020,-3783.000000,3610.000000,-91.000000,4.890021,-86.985594,70.535753,0.608725,-0.371773,-0.579299,0.394527,1214.536255,87471.054688,0.019170,1.752319,1.554199,1.555193,35.500000,39.684990,1,202
101,1421397,1421177,0,0,-0.180094,0.486791,9.893226,-0.044521,-0.615608,-0.259750,-18.442730,40.877178,-1.154633,-3781.000000,3629.000000,-79.000000,4.890021,-86.985594,70.535753,0.608725,-0.371773,-0.579299,0.394527,1214.630005,87467.625000,0.041261,1.752319,1.647949,1.558167,35.500000,39.647671,1,202
101,1421569,1421469,0,0,-0.174468,0.484059,9.903593,0.726948,-0.266129,0.530350,-18.210516,40.842850,-0.204619,-3743.000000,3623.000000,-14.000000,4.214669,-87.025879,70.179456,0.607565,-0.373712,-0.578331,0.395900,1214.597778,87471.679688,0.041415,1.752319,1.615723,1.611983,35.500000,39.689655,1,202
101,1421747,1421561,0,0,-0.183243,0.484537,9.892197,1.443464,-0.047367,0.468441,-18.112740,40.945827,0.496931,-3727.000000,3641.000000,34.000000,4.214669,-87.025879,70.179456,0.607565,-0.373712,-0.578331,0.395900,1214.679443,87467.398438,0.085710,1.752319,1.697388,1.617800,35.500000,39.680325,1,202
101,1421927,1421697,0,0,-0.183756,0.492048,9.895057,0.233082,-0.679025,0.275546,-18.179960,40.940105,-0.336159,-3748.000000,3640.000000,-23.000000,4.214669,-87.025879,70.179456,0.607565,-0.373712,-0.578331,0.395900,1214.687012,87469.164062,0.122326,1.752319,1.704956,1.623094,35.500000,39.652336,1,202
101,1422107,1422007,0,0,-0.174535,0.489316,9.900284,-0.316045,0.374008,0.233985,-18.357176,40.962994,0.204619,-3767.000000,3644.000000,14.000000,5.681214,-86.968737,71.695027,0.607374,-0.373364,-0.578177,0.396745,1214.765747,87468.625000,0.160964,1.788330,1.783691,1.791693,35.500000,39.684990,1,202
101,1422349,1422092,0,0,-0.187302,0.482582,9.898597,0.176923,0.491609,0.128303,-18.516060,40.945827,0.862321,-3793.000000,3641.000000,59.000000,5.681214,-86.968737,71.695027,0.607374,-0.373364,-0.578177,0.396745,1214.737183,87469.523438,0.194765,1.788330,1.755127,1.819890,35.500000,39.680325,1,202
101,1422556,1422429,0,0,-0.176783,0.500010,9.902051,0.469672,0.310854,0.361387,-18.357176,41.037369,-0.190003,-3767.000000,3657.000000,-13.000000,4.219707,-86.951716,70.088109,0.608252,-0.372942,-0.578272,0.395660,1214.720459,87468.328125,0.117982,1.788330,1.738403,1.729997,35.500000,39.689655,1,202
101,1422790,1422695,0,0,-0.176209,0.484360,9.896984,0.131140,0.372177,0.563693,-18.100519,40.774200,-0.087694,-3725.000000,3611.000000,-6.000000,3.951047,-87.018837,70.008688,0.607329,-0.374221,-0.577941,0.396350,1214.763428,87467.093750,0.042371,1.788330,1.781372,1.777334,35.500000,39.680325,1,202
101,1422946,1422788,0,0,-0.172457,0.495023,9.905708,0.053014,0.055255,0.604912,-18.241070,40.894337,-0.321543,-3748.000000,3632.000000,-22.000000,3.951047,-87.018837,70.008688,0.607329,-0.374221,-0.577941,0.396350,1214.683594,87471.375000,0.016514,1.788330,1.701538,1.785136,35.500000,39.689655,1,202
101,1423101,1422919,0,0,-0.186982,0.501149,9.903769,0.337203,0.325912,0.507900,-18.222738,40.974438,0.000000,-3745.000000,3646.000000,0.000000,3.951047,-87.018837,70.008688,0.607329,-0.374221,-0.577941,0.396350,1214.758789,87466.718750,0.079204,1.788330,1.776733,1.792032,35.500000,39.647671,1,202
101,1423265,1423046,0,0,-0.197801,0.491885,9.898630,0.278901,-0.026986,-0.515863,-18.100519,40.985878,-0.570009,-3725.000000,3648.000000,-39.000000,1.922561,-86.934197,68.093516,0.607736,-0.375012,-0.576749,0.396716,1214.716553,87470.085938,0.082909,1.788330,1.734497,1.737133,35.500000,39.657001,1,202
101,1423418,1423319,0,0,-0.181029,0.483377,9.905123,0.331019,0.136858,0.063292,-18.253290,41.083138,-0.029231,-3750.000000,3665.000000,-2.000000,1.922561,-86.934197,68.093516,0.607736,-0.375012,-0.576749,0.396716,1214.607910,87471.960938,-0.046321,1.788330,1.625854,1.754690,35.500000,39.680325,1,202
101,1423582,1423398,0,0,-0.168754,0.502398,9.898833,-0.264719,-0.751936,0.289016,-18.137186,40.911503,-0.146156,-3731.000000,3635.000000,-10.000000,5.348690,-86.935317,71.433001,0.607355,-0.373673,-0.577713,0.397159,1214.499023,87474.062500,-0.137581,1.788330,1.516968,1.530493,35.625000,39.666332,1,202
101,1423797,1423707,0,0,-0.175093,0.493992,9.901039,0.514864,-0.435117,0.405076,-18.161629,40.922947,-0.219234,-3729.000000,3655.000000,-15.000000,5.348690,-86.935317,71.433001,0.607355,-0.373673,-0.577713,0.397159,1214.570190,87470.359375,-0.244138,1.788330,1.588135,1.502046,35.625000,39.643005,1,202
101,1423979,1423785,0,0,-0.179392,0.488325,9.898418,0.017736,0.301851,0.485547,-18.320509,41.083138,-0.365390,-3761.000000,3665.000000,-25.000000,3.866110,-86.991461,69.828562,0.607806,-0.373659,-0.578097,0.395923,1214.549194,87471.343750,-0.238162,1.788330,1.567139,1.564877,35.625000,39.675663,1,202
101,1424140,1424047,0,0,-0.167852,0.493472,9.897630,0.048937,-0.259610,-0.041923,-18.296066,40.997322,-0.730780,-3757.000000,3650.000000,-50.000000,3.866110,-86.991461,69.828562,0.607806,-0.373659,-0.578097,0.395923,1214.504639,87471.000000,-0.159829,1.788330,1.522583,1.518256,35.625000,39.657001,1,202
101,1424306,1424127,0,0,-0.173686,0.491701,9.896079,-0.212621,-0.043702,0.746235,-18.497726,40.922947,-0.190003,-3790.000000,3637.000000,-13.000000,4.874249,-86.983579,70.545001,0.608652,-0.371896,-0.579204,0.394663,1214.374634,87475.914062,-0.199389,1.788330,1.392578,1.403210,35.625000,39.680325,1,202
101,1424471,1424260,0,0,-0.178061,0.484105,9.895209,0.115663,-0.066091,0.437500,-18.186071,41.094578,-0.745396,-3739.000000,3667.000000,-51.000000,4.874249,-86.983579,70.545001,0.608652,-0.371896,-0.579204,0.394663,1214.396484,87471.906250,-0.224928,1.788330,1.414429,1.376442,35.625000,39.657001,1,202
101,1424636,1424536,0,0,-0.174406,0.499521,9.899022,-0.259276,-0.517292,0.068258,-18.222738,41.048809,-0.029231,-3745.000000,3659.000000,-2.000000,4.697831,-86.940515,70.753527,0.607562,-0.373718,-0.577700,0.396819,1214.467651,87470.734375,-0.137130,1.788330,1.485596,1.480524,35.625000,39.675663,1,202
101,1424807,1424616,0,0,-0.179388,0.488974,9.894674,-0.076074,-0.165442,-0.211952,-18.338846,40.957272,-0.526162,-3764.000000,3643.000000,-36.000000,4.697831,-86.940515,70.753527,0.607562,-0.373718,-0.577700,0.396819,1214.460938,87471.929688,-0.106340,1.788330,1.478882,1.460931,35.625000,39.666332,1,202
101,1424979,1424886,0,0,-0.170446,0.493096,9.902538,-0.045984,-0.024973,0.147555,-18.198294,41.060249,-1.520023,-3741.000000,3661.000000,-104.000000,4.832945,-86.984105,70.931501,0.607180,-0.374068,-0.577806,0.396920,1214.635620,87466.726562,0.191371,1.788330,1.653564,1.642852,35.625000,39.652336,1,202
101,1425212,1424972,0,0,-0.179816,0.487249,9.900084,0.141727,-0.180105,0.016922,-18.179960,40.928665,-0.628471,-3738.000000,3638.000000,-43.000000,4.832945,-86.984105,70.931501,0.607180,-0.374068,-0.577806,0.396920,1214.689453,87467.984375,0.308564,1.788330,1.707397,1.672689,35.625000,39.670998,1,202
101,1425386,1425300,0,0,-0.174685,0.487532,9.894752,-0.508672,0.438053,0.181997,-18.137186,40.871456,-0.774627,-3731.000000,3628.000000,-53.000000,4.419946,-87.014841,70.466447,0.607296,-0.374030,-0.578049,0.396426,1214.602539,87471.898438,0.343380,1.788330,1.620483,1.708846,35.625000,39.652336,1,202
101,1425559,1425379,0,0,-0.182299,0.479322,9.896532,0.495123,0.324537,0.427169,-18.228848,40.882900,0.043847,-3746.000000,3630.000000,3.000000,4.419946,-87.014841,70.466447,0.607296,-0.374030,-0.578049,0.396426,1214.640625,87468.898438,0.324877,1.788330,1.658569,1.752760,35.625000,39.670998,1,202
101,1425735,1425651,0,0,-0.157703,0.483720,9.905815,-0.815426,-0.289014,-0.199794,-18.265514,40.854294,-0.555393,-3752.000000,3625.000000,-38.000000,4.447967,-87.008106,70.289982,0.608029,-0.372965,-0.578687,0.395373,1214.627319,87468.859375,0.076602,1.788330,1.645264,1.619521,35.625000,39.652336,1,202
101,1425911,1425729,0,0,-0.176699,0.483426,9.895902,-0.588144,-0.488328,-0.324839,-18.241070,40.802803,-0.920783,-3748.000000,3616.000000,-63.000000,4.447967,-87.008106,70.289982,0.608029,-0.372965,-0.578687,0.395373,1214.614746,87470.437500,0.019157,1.788330,1.632690,1.644707,35.625000,39.680325,1,202
101,1426089,1425866,0,0,-0.177956,0.488586,9.894650,-0.338802,0.005606,0.326389,-18.393845,40.957272,-0.131540,-3773.000000,3643.000000,-9.000000,4.176960,-86.991748,69.987097,0.608270,-0.372811,-0.578655,0.395194,1214.598145,87470.710938,0.031460,1.788330,1.616089,1.615411,35.625000,39.666332,1,202
101,1426265,1426165,0,0,-0.182181,0.487016,9.902506,-0.183280,-0.507250,0.361270,-18.186071,40.831406,-0.131540,-3739.000000,3621.000000,-9.000000,4.176960,-86.991748,69.987097,0.608270,-0.372811,-0.578655,0.395194,1214.590088,87469.875000,0.022103,1.788330,1.608032,1.627300,35.625000,39.698986,1,202
101,1426446,1426253,0,0,-0.184245,0.486030,9.890656,-0.507879,-0.774264,0.740725,-18.088297,40.831406,-0.657702,-3723.000000,3621.000000,-45.000000,3.134446,-86.991721,69.239233,0.607453,-0.374568,-0.577493,0.396486,1214.562256,87471.375000,-0.017246,1.788330,1.580200,1.582365,35.625000,39.689655,1,202
101,1426682,1426582,0,0,-0.186180,0.489854,9.891969,-0.148080,0.323053,0.653377,-18.234959,40.831406,-0.043847,-3747.000000,3621.000000,-3.000000,3.134446,-86.991721,69.239233,0.607453,-0.374568,-0.577493,0.396486,1214.482056,87472.226562,-0.104964,1.788330,1.500000,1.579833,35.625000,39.661667,1,202
101,1426865,1426661,0,0,-0.171814,0.491019,9.892457,0.167496,-0.655060,0.419897,-18.430508,40.900063,-0.555393,-3774.000000,3630.000000,-38.000000,4.975451,-86.989774,70.714431,0.608367,-0.372239,-0.579034,0.395029,1214.445312,87472.843750,-0.129543,1.788330,1.463257,1.470570,35.625000,39.666332,1,202
101,1427044,1426944,0,0,-0.179498,0.494582,9.892080,-0.101823,-0.084249,0.601260,-18.186071,40.997322,-0.146156,-3770.000000,3655.000000,-36.000000,4.975451,-86.989774,70.714431,0.608367,-0.372239,-0.579034,0.395029,1214.550171,87469.273438,-0.059600,1.788330,1.568115,1.444880,35.625000,39.703651,1,202
101,1427282,1427024,0,0,-0.181218,0.486685,9.891680,0.801754,-0.008184,0.450406,-18.406065,40.968716,0.175387,-3775.000000,3645.000000,12.000000,3.775992,-86.994637,69.577027,0.608365,-0.372880,-0.578621,0.395031,1214.593750,87469.265625,0.025101,1.788330,1.611694,1.603097,35.625000,39.698986,1,202
101,1427446,1427216,0,0,-0.176686,0.479068,9.907459,0.536189,0.118886,0.670050,-18.204405,40.728428,-0.321543,-3742.000000,3603.000000,-22.000000,3.775992,-86.994637,69.577027,0.608365,-0.372880,-0.578621,0.395031,1214.601685,87467.679688,0.105691,1.788330,1.619629,1.604167,35.625000,39.670998,1,202
101,1427601,1427501,0,0,-0.163428,0.490651,9.906606,-0.620318,0.237147,-0.071291,-18.198294,40.888618,-0.043847,-3741.000000,3631.000000,-3.000000,5.577580,-87.011713,71.577917,0.607241,-0.373491,-0.578413,0.396486,1214.556519,87470.203125,0.094972,1.788330,1.574463,1.576221,35.500000,39.712982,1,202
101,1427760,1427581,0,0,-0.172863,0.496910,9.900088,-0.551829,-0.776538,0.065773,-18.271624,40.785641,-0.657702,-3753.000000,3613.000000,-45.000000,5.577580,-87.011713,71.577917,0.607241,-0.373491,-0.578413,0.396486,1214.566162,87470.398438,0.040650,1.788330,1.584106,1.587285,35.500000,39.661667,1,202
101,1427924,1427711,0,0,-0.174079,0.489099,9.891854,0.280510,-0.012496,-0.064011,-18.308289,40.922947,-0.818474,-3759.000000,3637.000000,-56.000000,5.577580,-87.011713,71.577917,0.607241,-0.373491,-0.578413,0.396486,1214.581543,87470.093750,-0.004237,1.788330,1.599487,1.598406,35.500000,39.661667,1,202
101,1428156,1428041,0,0,-0.174734,0.488324,9.900826,0.083182,-0.027615,-0.126761,-18.577169,40.791359,-0.190003,-3803.000000,3614.000000,-13.000000,4.446975,-87.039020,70.260879,0.607978,-0.372942,-0.578934,0.395111,1214.572388,87468.921875,-0.106577,1.788330,1.590332,1.509287,35.500000,39.680325,1,202
101,1428315,1428120,0,0,-0.168077,0.491670,9.899975,-0.079297,0.219017,0.067932,-18.344955,40.831406,-0.584624,-3765.000000,3621.000000,-40.000000,5.324404,-86.995559,71.127077,0.608050,-0.372494,-0.578925,0.395434,1214.517090,87472.531250,-0.139898,1.788330,1.535034,1.534334,35.500000,39.661667,1,202
101,1428476,1428376,0,0,-0.175941,0.489100,9.895096,0.510189,-0.518635,0.500538,-18.430508,41.008762,0.233850,-3779.000000,3652.000000,16.000000,5.324404,-86.995559,71.127077,0.608050,-0.372494,-0.578925,0.395434,1214.548096,87468.671875,-0.205690,1.788330,1.566040,1.507207,35.500000,39.708317,1,202
101,1428640,1428454,0,0,-0.180656,0.484031,9.893598,0.761474,-0.191480,0.536404,-18.424397,41.065971,-0.789243,-3778.000000,3662.000000,-54.000000,3.698027,-87.010716,69.532828,0.608186,-0.373131,-0.578578,0.395133,1214.531860,87471.414062,-0.133686,1.788330,1.549805,1.548850,35.500000,39.708317,1,202
101,1428807,1428721,0,0,-0.181455,0.490391,9.891312,-0.273958,-0.008688,-0.193723,-18.393845,40.962994,-0.453084,-3773.000000,3644.000000,-31.000000,3.698027,-87.010716,69.532828,0.608186,-0.373131,-0.578578,0.395133,1214.529053,87470.429688,-0.056427,1.788330,1.546997,1.520337,35.500000,39.675663,1,202
101,1428973,1428800,0,0,-0.174940,0.495116,9.894792,-0.345379,-0.033369,-0.141860,-18.412174,40.762756,-0.701549,-3776.000000,3609.000000,-48.000000,4.851166,-86.962180,70.540138,0.608695,-0.371911,-0.579033,0.394833,1214.502197,87471.984375,0.024942,1.788330,1.520142,1.521913,35.500000,39.689655,1,202
101,1429138,1428932,0,0,-0.179649,0.494011,9.890570,-0.571890,0.270271,0.089038,-18.222738,40.682659,-0.467699,-3745.000000,3595.000000,-32.000000,4.851166,-86.962180,70.540138,0.608695,-0.371911,-0.579033,0.394833,1214.467163,87472.562500,-0.013954,1.788330,1.485107,1.522744,35.500000,39.675663,1,202
101,1429306,1429206,0,0,-0.170480,0.495659,9.893237,0.098925,0.135070,-0.123241,-18.332735,40.865734,0.190003,-3763.000000,3627.000000,13.000000,5.189407,-86.967221,71.019583,0.608116,-0.372557,-0.578668,0.395651,1214.585327,87466.242188,0.011209,1.788330,1.603271,1.598241,35.500000,39.708317,1,202
101,1429531,1429287,0,0,-0.174171,0.487008,9.899926,-0.484742,-0.778108,0.045062,-18.143295,41.025925,-0.336159,-3732.000000,3655.000000,-23.000000,5.189407,-86.967221,71.019583,0.608116,-0.372557,-0.578668,0.395651,1214.514404,87472.953125,0.027071,1.788330,1.532349,1.600158,35.500000,39.717644,1,202
101,1429698,1429598,0,0,-0.174167,0.497885,9.904165,0.048661,-0.034824,-0.059179,-18.259401,40.837128,-0.686934,-3776.000000,3640.000000,-45.000000,5.221890,-86.902150,71.041740,0.608452,-0.372243,-0.578383,0.395847,1214.366211,87474.210938,-0.101172,1.788330,1.384155,1.454175,35.500000,39.736305,1,202
101,1429871,1429695,0,0,-0.179720,0.482731,9.891862,0.366660,0.416812,-0.135677,-18.332735,40.762756,-0.920783,-3763.000000,3609.000000,-63.000000,5.221890,-86.902150,71.041740,0.608452,-0.372243,-0.578383,0.395847,1214.421021,87470.828125,-0.079114,1.788330,1.438965,1.450387,35.500000,39.717644,1,202
101,1430044,1429832,0,0,-0.170178,0.492112,9.893032,0.135634,-0.028770,0.130201,-18.259401,40.865734,-0.993861,-3751.000000,3627.000000,-68.000000,5.000796,-86.987090,70.923960,0.607739,-0.373152,-0.578426,0.396022,1214.443970,87471.375000,-0.176122,1.788330,1.461914,1.461572,35.625000,39.689655,1,202
101,1430214,1430114,0,0,-0.171516,0.507256,9.904325,0.582171,0.317513,0.429577,-18.314400,40.751312,-0.862321,-3760.000000,3607.000000,-59.000000,5.000796,-86.987090,70.923960,0.607739,-0.373152,-0.578426,0.396022,1214.468140,87470.843750,-0.152458,1.788330,1.486084,1.425919,35.625000,39.726974,1,202
101,1430393,1430208,0,0,-0.179127,0.507947,9.901126,-0.368822,-0.138884,0.342503,-18.509949,40.860016,-0.277697,-3792.000000,3626.000000,-19.000000,4.951462,-86.886270,70.574904,0.609260,-0.371261,-0.578885,0.394791,1214.449219,87472.359375,-0.062314,1.788330,1.467163,1.466820,35.625000,39.722309,1,202
101,1430573,1430348,0,0,-0.187468,0.495034,9.898343,-1.377043,0.269379,0.553937,-18.454950,40.951550,-1.037708,-3783.000000,3642.000000,-71.000000,4.951462,-86.886270,70.574904,0.609260,-0.371261,-0.578885,0.394791,1214.394775,87473.820312,-0.049444,1.788330,1.412720,1.456620,35.625000,39.694321,1,202
101,1430748,1430648,0,0,-0.182714,0.484155,9.899618,-0.248694,0.016895,0.077199,-18.271624,40.797081,-0.672318,-3753.000000,3615.000000,-46.000000,3.452000,-87.007690,69.324030,0.608120,-0.373372,-0.578394,0.395277,1214.416626,87470.539062,-0.052362,1.788330,1.434570,1.436561,35.625000,39.726974,1,202
101,1430989,1430737,0,0,-0.185212,0.480126,9.892118,-0.387362,-0.181216,0.361549,-18.198294,40.837128,-1.563870,-3741.000000,3622.000000,-107.000000,3.452000,-87.007690,69.324030,0.608120,-0.373372,-0.578394,0.395277,1214.352905,87474.500000,-0.075584,1.788330,1.370850,1.425434,35.625000,39.726974,1,202
101,1431167,1431067,0,0,-0.187095,0.484226,9.900566,-0.146634,-0.254720,0.259841,-18.363289,40.699821,-1.315405,-3768.000000,3598.000000,-90.000000,3.683404,-87.060644,69.627153,0.607573,-0.373873,-0.578474,0.395527,1214.315674,87473.828125,-0.094675,1.788330,1.333618,1.354131,35.625000,39.698986,1,202
101,1431348,1431147,0,0,-0.177944,0.494781,9.897669,-0.114061,-0.026854,-0.120296,-18.314400,40.734150,-0.745396,-3760.000000,3604.000000,-51.000000,3.683404,-87.060644,69.627153,0.607573,-0.373873,-0.578474,0.395527,1214.300415,87473.851562,-0.070543,1.788330,1.318359,1.342328,35.625000,39.708317,1,202
101,1431527,1431427,0,0,-0.178465,0.479782,9.891678,0.407765,-0.124955,0.277830,-18.375509,40.877178,-1.023093,-3770.000000,3629.000000,-70.000000,4.121436,-86.988552,70.133776,0.607598,-0.373834,-0.577969,0.396264,1214.437500,87470.265625,0.049111,1.788330,1.455444,1.379063,35.625000,39.740971,1,202
101,1431760,1431513,0,0,-0.168893,0.492741,9.889838,-0.310057,-0.285297,0.310651,-18.412174,40.917225,-1.096171,-3776.000000,3636.000000,-75.000000,4.121436,-86.988552,70.133776,0.607598,-0.373834,-0.577969,0.396264,1214.435303,87472.085938,0.120451,1.788330,1.453247,1.370085,35.625000,39.736305,1,202
101,1431914,1431828,0,0,-0.169370,0.486734,9.890903,-0.478920,0.514721,0.028300,-18.534393,40.842850,-0.365390,-3796.000000,3623.000000,-25.000000,4.734611,-87.013366,70.419558,0.608489,-0.372118,-0.579280,0.394593,1214.338867,87472.937500,0.151638,1.788330,1.356812,1.362479,35.625000,39.708317,1,202
101,1432071,1431907,0,0,-0.180805,0.485744,9.897808,-1.381018,-0.014778,0.353715,-18.247181,40.762756,-0.570009,-3749.000000,3609.000000,-39.000000,4.734611,-87.013366,70.419558,0.608489,-0.372118,-0.579280,0.394593,1214.333008,87473.273438,0.100711,1.788330,1.350952,1.376801,35.625000,39.722309,1,202
101,1432236,1432037,0,0,-0.188981,0.486557,9.895626,-0.222893,0.422826,0.008700,-18.283846,40.802803,-0.789243,-3755.000000,3616.000000,-54.000000,2.912162,-86.980594,68.773557,0.608391,-0.373358,-0.578187,0.395176,1214.303589,87474.171875,0.001131,1.788330,1.321533,1.323508,35.625000,39.717644,1,202
101,1432468,1432348,0,0,-0.185789,0.490214,9.881023,0.063853,-0.042954,0.600826,-18.265514,40.774200,-0.716165,-3752.000000,3611.000000,-49.000000,2.912162,-86.980594,68.773557,0.608391,-0.373358,-0.578187,0.395176,1214.325806,87471.515625,-0.099235,1.788330,1.343750,1.327114,35.625000,39.754963,1,202
101,1432626,1432427,0,0,-0.183712,0.498899,9.893730,0.607065,-0.306840,0.639979,-18.124962,40.745590,-0.847705,-3729.000000,3606.000000,-58.000000,3.767205,-86.924122,69.784582,0.607959,-0.373707,-0.577557,0.396431,1214.383789,87471.140625,-0.065919,1.788330,1.401733,1.396922,35.625000,39.722309,1,202
101,1432787,1432688,0,0,-0.175318,0.490276,9.900853,-0.054572,-0.679271,0.796756,-18.100519,40.648335,-0.745396,-3725.000000,3589.000000,-51.000000,3.767205,-86.924122,69.784582,0.607959,-0.373707,-0.577557,0.396431,1214.392822,87472.437500,0.006479,1.788330,1.410767,1.385122,35.625000,39.759628,1,202
101,1432952,1432766,0,0,-0.185619,0.498210,9.896338,-0.435085,-0.706238,0.080087,-18.155518,40.562515,-0.423853,-3734.000000,3574.000000,-29.000000,3.682438,-86.924826,69.566057,0.608434,-0.373058,-0.577979,0.395696,1214.437622,87470.898438,0.099491,1.788330,1.455566,1.451949,35.625000,39.750301,1,202
101,1433114,1433029,0,0,-0.182629,0.502254,9.892105,0.174301,-0.491504,0.037116,-18.161629,40.728428,-1.008477,-3735.000000,3603.000000,-69.000000,3.682438,-86.924826,69.566057,0.608434,-0.373058,-0.577979,0.395696,1214.481323,87472.343750,0.160588,1.788330,1.499268,1.468872,35.625000,39.717644,1,202
101,1433277,1433108,0,0,-0.173575,0.504630,9.896042,0.211231,-0.437987,0.021389,-18.314400,40.625446,-0.467699,-3760.000000,3585.000000,-32.000000,5.289573,-86.913297,71.018545,0.608699,-0.371810,-0.578748,0.395341,1214.414551,87473.921875,0.112187,1.788330,1.432495,1.433696,35.625000,39.740971,1,202
101,1433442,1433237,0,0,-0.169849,0.504232,9.903806,0.473538,-0.524475,-0.350772,-18.387732,40.682659,-0.467699,-3772.000000,3595.000000,-32.000000,5.289573,-86.913297,71.018545,0.608699,-0.371810,-0.578748,0.395341,1214.333984,87475.117188,0.035492,1.788330,1.351929,1.448131,35.625000,39.731640,1,202
101,1433609,1433509,0,0,-0.165145,0.497245,9.899947,0.159175,0.184884,0.049268,-18.583279,40.711266,-0.599240,-3804.000000,3600.000000,-41.000000,6.166923,-86.970465,71.627675,0.609175,-0.370452,-0.580080,0.393927,1214.368774,87470.914062,-0.141121,1.788330,1.386719,1.389625,35.625000,39.759628,1,202
101,1433842,1433590,0,0,-0.176509,0.496163,9.898699,-0.871709,-0.595678,-0.450078,-18.412174,40.888618,-0.336159,-3776.000000,3631.000000,-29.000000,6.166923,-86.970465,71.627675,0.609175,-0.370452,-0.580080,0.393927,1214.360107,87473.046875,-0.159263,1.788330,1.378052,1.368489,35.625000,39.759628,1,202
101,1434011,1433912,0,0,-0.172338,0.500596,9.916764,-0.101868,0.235387,0.173464,-18.241070,40.688381,-1.110786,-3748.000000,3596.000000,-76.000000,8.544855,-86.882991,74.187063,0.608443,-0.370413,-0.579576,0.395832,1214.327271,87474.789062,-0.088946,1.788330,1.345215,1.399031,35.625000,39.722309,1,202
101,1434182,1434006,0,0,-0.167560,0.490205,9.901820,-0.052778,0.091125,0.506643,-18.467175,40.739872,-1.110786,-3785.000000,3605.000000,-76.000000,8.544855,-86.882991,74.187063,0.608443,-0.370413,-0.579576,0.395832,1214.297607,87474.234375,-0.052651,1.788330,1.315552,1.382766,35.625000,39.745636,1,202
101,1434356,1434141,0,0,-0.183493,0.487088,9.901084,0.418262,-0.353778,-0.020620,-18.351067,40.751312,-1.505408,-3766.000000,3607.000000,-103.000000,3.599372,-86.990710,69.357866,0.608565,-0.372696,-0.578706,0.394774,1214.312744,87472.968750,-0.074543,1.788330,1.330688,1.335416,35.625000,39.722309,1,202
101,1434527,1434427,0,0,-0.173552,0.507207,9.897090,0.572743,-0.170272,0.762425,-18.296066,40.654057,-0.190003,-3757.000000,3590.000000,-13.000000,3.599372,-86.990710,69.357866,0.608565,-0.372696,-0.578706,0.394774,1214.405640,87470.304688,-0.047240,1.788330,1.423584,1.317495,35.625000,39.759628,1,202
101,1434703,1434521,0,0,-0.173477,0.492895,9.887208,0.146187,-0.293765,0.416722,-18.173849,40.734150,-1.052324,-3737.000000,3604.000000,-72.000000,4.655188,-86.974768,70.610120,0.607756,-0.373353,-0.578192,0.396148,1214.385498,87473.062500,0.023894,1.788330,1.403442,1.399262,35.625000,39.768959,1,202
101,1434881,1434659,0,0,-0.170729,0.492335,9.893763,0.397627,-0.544442,-0.227045,-18.265514,40.808525,-1.183864,-3752.000000,3617.000000,-81.000000,4.655188,-86.974768,70.610120,0.607756,-0.373353,-0.578192,0.396148,1214.365112,87473.289062,0.076964,1.788330,1.383057,1.400901,35.625000,39.731640,1,202
101,1435057,1434957,0,0,-0.178492,0.495175,9.892825,0.730510,0.402869,0.255746,-18.320509,40.928665,-0.073078,-3761.000000,3638.000000,-5.000000,4.297652,-86.954367,70.177714,0.608183,-0.372990,-0.578262,0.395732,1214.349487,87472.765625,0.095821,1.788330,1.367432,1.369397,35.625000,39.768959,1,202
101,1435294,1435045,0,0,-0.185561,0.496148,9.899701,-0.440535,-0.689222,0.278390,-18.436619,40.837128,-1.271558,-3780.000000,3622.000000,-87.000000,4.297652,-86.954367,70.177714,0.608183,-0.372990,-0.578262,0.395732,1214.320679,87473.976562,0.027408,1.788330,1.338623,1.386264,35.625000,39.768959,1,202
101,1435472,1435372,0,0,-0.179655,0.480874,9.893269,-0.386412,-0.903389,0.074959,-18.448839,40.860016,-0.906168,-3782.000000,3626.000000,-62.000000,4.477731,-86.987759,70.129193,0.608777,-0.371917,-0.579209,0.394443,1214.319336,87473.289062,-0.030732,1.788330,1.337280,1.341211,35.625000,39.731640,1,202
101,1435654,1435452,0,0,-0.178539,0.485500,9.894062,-0.324426,-0.088150,0.008815,-18.265514,40.837128,-1.169249,-3752.000000,3622.000000,-80.000000,4.477731,-86.987759,70.129193,0.608777,-0.371917,-0.579209,0.394443,1214.368896,87471.507812,-0.002982,1.788330,1.386841,1.341783,35.625000,39.750301,1,202
101,1435834,1435734,0,0,-0.161565,0.489332,9.894412,-0.025097,0.093071,-0.098673,-18.289957,40.757034,-1.271558,-3756.000000,3608.000000,-87.000000,5.233049,-86.963895,70.910245,0.608651,-0.371760,-0.579157,0.394863,1214.393311,87472.992188,0.084707,1.788330,1.411255,1.430189,35.625000,39.736305,1,202
101,1436050,1435818,0,0,-0.170588,0.489954,9.899063,0.125776,0.007413,0.486527,-18.320509,40.716988,-0.599240,-3761.000000,3601.000000,-41.000000,5.233049,-86.963895,70.910245,0.608651,-0.371760,-0.579157,0.394863,1214.412109,87471.812500,0.116548,1.788330,1.430054,1.436998,35.625000,39.750301,1,202
101,1436282,1435959,0,0,-0.166530,0.501344,9.893167,-0.110953,-0.197733,0.185266,-18.424397,40.699821,-1.315405,-3778.000000,3598.000000,-90.000000,5.980035,-86.943404,71.625182,0.608705,-0.371326,-0.579311,0.394961,1214.366577,87473.898438,0.097106,1.788330,1.384521,1.387084,35.625000,39.731640,1,202
101,1436435,1436335,0,0,-0.175105,0.491757,9.891061,-0.516202,-0.058471,0.076661,-18.247181,40.768478,-0.409237,-3749.000000,3610.000000,-28.000000,4.516663,-86.979010,70.400228,0.608010,-0.373045,-0.578419,0.395718,1214.365967,87473.875000,-0.004438,1.788330,1.383911,1.384196,35.625000,39.722309,1,202
101,1436594,1436416,0,0,-0.177982,0.496939,9.897349,-0.462487,-0.231171,0.091360,-18.143295,40.779922,-0.891552,-3732.000000,3612.000000,-61.000000,4.516663,-86.979010,70.400228,0.608010,-0.373045,-0.578419,0.395718,1214.360352,87472.976562,-0.045385,1.788330,1.378296,1.385698,35.625000,39.726974,1,202
101,1436816,1436546,0,0,-0.180966,0.494760,9.898628,-1.029154,0.122061,-0.042663,-18.088297,40.842850,-1.081555,-3723.000000,3623.000000,-74.000000,3.797126,-86.953526,69.909281,0.607484,-0.374288,-0.577402,0.396835,1214.329834,87473.921875,-0.093527,1.788330,1.347778,1.351039,35.625000,39.740971,1,202
101,1436990,1436758,0,0,-0.170956,0.495115,9.903872,-0.238676,0.424570,1.405702,-18.124962,40.842850,-0.803859,-3729.000000,3623.000000,-55.000000,3.797126,-86.953526,69.909281,0.607484,-0.374288,-0.577402,0.396835,1214.369263,87471.757812,-0.068546,1.788330,1.387207,1.338871,35.625000,39.726974,1,202
101,1437148,1437048,0,0,-0.183773,0.488139,9.898222,-0.338678,0.106402,0.090794,-18.491617,40.814243,-0.175387,-3789.000000,3618.000000,-12.000000,3.747978,-86.983593,69.369819,0.609041,-0.371940,-0.579142,0.394112,1214.424561,87470.601562,-0.027260,1.788330,1.442505,1.436888,35.625000,39.754963,1,202
101,1437310,1437128,0,0,-0.186035,0.482935,9.892408,0.450415,0.695027,0.075091,-18.314400,40.762756,-0.833090,-3760.000000,3609.000000,-57.000000,3.747978,-86.983593,69.369819,0.609041,-0.371940,-0.579142,0.394112,1214.434814,87471.781250,0.011015,1.788330,1.452759,1.432533,35.625000,39.736305,1,202
101,1437475,1437394,0,0,-0.190027,0.483571,9.887671,-0.034831,-0.123562,-0.745560,-18.265514,40.665501,-0.730780,-3752.000000,3592.000000,-50.000000,2.736227,-86.992042,68.546870,0.608543,-0.373191,-0.578378,0.394820,1214.403076,87471.203125,0.035502,1.788330,1.421021,1.422003,35.625000,39.750301,1,202
101,1437640,1437474,0,0,-0.180237,0.491052,9.888028,-0.299277,-0.534398,0.447983,-18.375509,40.551079,0.014616,-3770.000000,3572.000000,1.000000,2.736227,-86.992042,68.546870,0.608543,-0.373191,-0.578378,0.394820,1214.340698,87474.593750,0.029526,1.788330,1.358643,1.425720,35.750000,39.773624,1,202
101,1437808,1437608,0,0,-0.172858,0.500765,9.903123,0.258860,0.106290,0.686414,-18.326622,40.774200,-1.096171,-3762.000000,3611.000000,-75.000000,2.736227,-86.992042,68.546870,0.608543,-0.373191,-0.578378,0.394820,1214.306152,87474.265625,-0.017766,1.788330,1.324097,1.429404,35.750000,39.759628,1,202
101,1437974,1437875,0,0,-0.163962,0.489737,9.897607,0.437910,-0.820000,0.196449,-18.320509,40.699821,-1.052324,-3761.000000,3598.000000,-72.000000,5.833601,-86.984897,71.629253,0.608022,-0.372287,-0.578998,0.395566,1214.261963,87473.742188,-0.116967,1.788330,1.279907,1.275895,35.750000,39.801613,1,202
101,1438205,1437973,0,0,-0.175144,0.495122,9.893338,0.136500,-0.181057,0.130714,-18.173849,40.608284,-1.300789,-3737.000000,3582.000000,-89.000000,5.833601,-86.984897,71.629253,0.608022,-0.372287,-0.578998,0.395566,1214.403687,87468.843750,-0.126314,1.788330,1.421631,1.258297,35.750000,39.787617,1,202
101,1438374,1438290,0,0,-0.170822,0.487836,9.893841,0.491499,-0.459448,-0.578537,-18.137186,40.631168,-0.906168,-3731.000000,3586.000000,-62.000000,5.117872,-86.975137,70.992173,0.607941,-0.372829,-0.578549,0.395838,1214.284180,87474.875000,-0.173265,1.788330,1.302124,1.337040,35.750000,39.759628,1,202
101,1438543,1438369,0,0,-0.187905,0.491020,9.898689,0.762703,-0.254049,-0.245341,-18.393845,40.802803,-1.315405,-3773.000000,3616.000000,-90.000000,5.117872,-86.975137,70.992173,0.607941,-0.372829,-0.578549,0.395838,1214.256958,87474.609375,-0.165964,1.788330,1.274902,1.319414,35.750000,39.778290,1,202
101,1438716,1438504,0,0,-0.178793,0.480469,9.901461,0.784248,-0.489802,-0.377811,-18.381620,40.728428,-0.643087,-3771.000000,3603.000000,-44.000000,3.881629,-87.036103,69.588652,0.608469,-0.372534,-0.579158,0.394410,1214.316406,87471.828125,-0.136279,1.788330,1.334351,1.335159,35.750000,39.759628,1,202
101,1438890,1438790,0,0,-0.172291,0.494470,9.901043,-0.066141,0.408813,0.548095,-18.179960,40.625446,-0.657702,-3738.000000,3585.000000,-45.000000,3.881629,-87.036103,69.588652,0.608469,-0.372534,-0.579158,0.394410,1214.403809,87470.375000,-0.074444,1.788330,1.421753,1.304026,35.625000,39.792282,1,202
101,1439065,1438870,0,0,-0.173907,0.481101,9.893255,-0.019842,0.543067,0.630995,-18.418287,40.860016,-0.672318,-3777.000000,3626.000000,-46.000000,4.392935,-87.039942,70.126283,0.608262,-0.372552,-0.579190,0.394666,1214.442627,87470.992188,0.045915,1.788330,1.460571,1.452846,35.625000,39.796947,1,202
101,1439242,1439143,0,0,-0.178626,0.490581,9.887331,-0.360513,0.120314,0.572406,-18.253290,40.814243,-0.292312,-3750.000000,3618.000000,-20.000000,4.392935,-87.039942,70.126283,0.608262,-0.372552,-0.579190,0.394666,1214.453125,87471.226562,0.193262,1.788330,1.471069,1.458129,35.625000,39.764294,1,202
101,1439418,1439230,0,0,-0.178837,0.489017,9.889647,-0.010739,0.138636,0.248628,-18.430508,40.951550,-1.110786,-3779.000000,3642.000000,-76.000000,4.142986,-86.986147,69.912225,0.608444,-0.372592,-0.578753,0.394988,1214.460938,87471.562500,0.230002,1.788330,1.478882,1.477279,35.625000,39.778290,1,202
101,1439652,1439553,0,0,-0.174577,0.494796,9.902187,-0.733630,-0.375816,0.009901,-18.485506,40.722706,-1.154633,-3788.000000,3602.000000,-79.000000,4.142986,-86.986147,69.912225,0.608444,-0.372592,-0.578753,0.394988,1214.430420,87471.289062,0.132825,1.788330,1.448364,1.531945,35.625000,39.792282,1,202
101,1439834,1439631,0,0,-0.174694,0.497346,9.900788,-0.057731,-0.625456,0.189255,-18.534393,40.699821,-1.344636,-3796.000000,3598.000000,-92.000000,5.129313,-86.952352,70.646122,0.609278,-0.370931,-0.579598,0.394026,1214.452148,87471.312500,0.126241,1.788330,1.470093,1.470535,35.625000,39.801613,1,202
101,1440012,1439912,0,0,-0.185624,0.476239,9.895636,0.178697,0.031553,0.925044,-18.308289,40.768478,-0.774627,-3759.000000,3610.000000,-53.000000,5.129313,-86.952352,70.646122,0.609278,-0.370931,-0.579598,0.394026,1214.397705,87471.859375,0.025134,1.788330,1.415649,1.500199,35.625000,39.773624,1,202
101,1440193,1439992,0,0,-0.168718,0.493899,9.893050,-0.324088,-0.368231,-0.308686,-18.393845,40.751312,-1.008477,-3773.000000,3607.000000,-69.000000,5.433522,-86.980089,71.139569,0.608435,-0.371917,-0.579184,0.395007,1214.412964,87471.890625,0.041438,1.788330,1.430908,1.433350,35.625000,39.787617,1,202
101,1440373,1440273,0,0,-0.187671,0.486172,9.894554,-0.761832,-0.229509,0.188411,-18.351067,40.762756,-1.651564,-3766.000000,3609.000000,-113.000000,5.433522,-86.980089,71.139569,0.608435,-0.371917,-0.579184,0.395007,1214.394775,87472.562500,-0.022699,1.788330,1.412720,1.445079,35.625000,39.820271,1,202
101,1440589,1440357,0,0,-0.169938,0.503237,9.892726,-0.689989,0.390878,0.271862,-18.222738,40.562515,-0.701549,-3745.000000,3574.000000,-48.000000,5.535909,-86.926656,71.340643,0.608324,-0.372180,-0.578619,0.395757,1214.435791,87471.007812,0.013166,1.788330,1.453735,1.452482,35.625000,39.801613,1,202
101,1440822,1440722,0,0,-0.179370,0.489939,9.896743,0.279196,-0.011478,0.878986,-18.167738,40.682659,-0.701549,-3736.000000,3595.000000,-48.000000,3.958397,-86.982247,69.892001,0.607932,-0.373455,-0.578162,0.395827,1214.412354,87471.906250,-0.040113,1.788330,1.430298,1.432271,35.625000,39.796947,1,202
101,1440979,1440821,0,0,-0.174314,0.480044,9.891459,0.249535,0.205059,0.309840,-18.509949,40.659779,-0.920783,-3792.000000,3591.000000,-63.000000,3.958397,-86.982247,69.892001,0.607932,-0.373455,-0.578162,0.395827,1214.416138,87472.140625,-0.042171,1.788330,1.434082,1.427721,35.625000,39.764294,1,202
101,1441191,1440951,0,0,-0.178553,0.487370,9.893519,0.052643,-0.563990,0.084407,-18.424397,40.871456,0.087694,-3778.000000,3628.000000,6.000000,4.150624,-86.996823,69.879201,0.608532,-0.372425,-0.578941,0.394736,1214.392822,87473.062500,-0.049321,1.788330,1.410767,1.412694,35.625000,39.768959,1,202
101,1441355,1441127,0,0,-0.180935,0.487347,9.891809,-1.171987,-0.500750,-0.670256,-18.271624,40.819965,-1.373867,-3753.000000,3613.000000,-95.000000,4.150624,-86.996823,69.879201,0.608532,-0.372425,-0.578941,0.394736,1214.419678,87471.531250,-0.048060,1.788330,1.437622,1.406712,35.625000,39.764294,1,202
101,1441513,1441413,0,0,-0.179501,0.487258,9.898037,-0.387128,-0.043017,0.854866,-18.344955,40.596844,-1.096171,-3765.000000,3560.000000,-75.000000,4.094359,-86.996912,69.776707,0.608701,-0.372207,-0.579081,0.394475,1214.455322,87471.601562,0.055405,1.788330,1.473267,1.469546,35.625000,39.796947,1,202
101,1441675,1441493,0,0,-0.166781,0.497204,9.906126,-0.461364,-0.195772,0.511106,-18.399954,40.654057,-0.555393,-3774.000000,3590.000000,-38.000000,4.094359,-86.996912,69.776707,0.608701,-0.372207,-0.579081,0.394475,1214.479736,87470.953125,0.095570,1.788330,1.497681,1.475357,35.625000,39.778290,1,202
101,1441840,1441626,0,0,-0.181846,0.486765,9.894476,-0.275132,-0.347559,0.226820,-18.259401,40.791359,-0.906168,-3751.000000,3614.000000,-62.000000,4.094359,-86.996912,69.776707,0.608701,-0.372207,-0.579081,0.394475,1214.411377,87473.992188,0.097468,1.788330,1.429321,1.481100,35.625000,39.773624,1,202
101,1441999,1441899,0,0,-0.191841,0.493150,9.897285,-0.124911,-0.715578,-0.007102,-18.393845,40.791359,-0.891552,-3773.000000,3614.000000,-61.000000,3.681836,-86.969270,69.458810,0.608588,-0.372687,-0.578552,0.394970,1214.474609,87469.476562,0.037288,1.788330,1.492554,1.417883,35.625000,39.796947,1,202
101,1442166,1441979,0,0,-0.178358,0.491907,9.884127,-0.654436,-0.375323,-0.256777,-18.014967,40.728428,-0.876937,-3711.000000,3603.000000,-60.000000,3.681836,-86.969270,69.458810,0.608588,-0.372687,-0.578552,0.394970,1214.398682,87474.312500,-0.015481,1.788330,1.416626,1.424822,35.625000,39.782955,1,202
101,1442337,1442251,0,0,-0.175049,0.496358,9.897528,-0.130679,-0.834805,-0.195894,-18.265514,40.539635,-0.613856,-3752.000000,3570.000000,-42.000000,4.163512,-86.991393,69.801241,0.608868,-0.371942,-0.579211,0.394276,1214.304321,87474.015625,-0.145667,1.788330,1.322266,1.343208,35.625000,39.787617,1,202
101,1442563,1442331,0,0,-0.180691,0.495393,9.902530,-0.129783,-0.229933,0.001048,-18.265514,40.745590,-0.876937,-3752.000000,3606.000000,-60.000000,4.163512,-86.991393,69.801241,0.608868,-0.371942,-0.579211,0.394276,1214.295166,87473.757812,-0.159782,1.788330,1.313110,1.328276,35.625000,39.806278,1,202
101,1442728,1442642,0,0,-0.186204,0.485953,9.895396,-0.060217,-0.333106,0.259526,-18.198294,40.716988,-2.119263,-3741.000000,3601.000000,-145.000000,4.791681,-86.962693,70.312727,0.609282,-0.371080,-0.579568,0.393923,1214.361328,87471.273438,-0.146598,1.788330,1.379272,1.303352,35.625000,39.782955,1,202
101,1442900,1442722,0,0,-0.176667,0.488033,9.892371,-0.040283,-0.156330,-0.749316,-18.430508,40.716988,-0.511546,-3779.000000,3601.000000,-35.000000,4.791681,-86.962693,70.312727,0.609282,-0.371080,-0.579568,0.393923,1214.361328,87472.828125,-0.068423,1.788330,1.379272,1.277137,35.625000,39.801613,1,202
101,1443067,1442857,0,0,-0.174816,0.497134,9.899768,-0.172734,-0.176786,0.704921,-18.467175,40.785641,-1.593101,-3785.000000,3613.000000,-109.000000,4.983926,-86.952966,70.625966,0.608874,-0.371604,-0.579166,0.394652,1214.387207,87471.906250,0.020961,1.788330,1.405151,1.399844,35.625000,39.796947,1,202
101,1443241,1443142,0,0,-0.187684,0.489007,9.891583,-0.059810,-0.576817,0.135564,-18.289957,40.533913,-0.643087,-3756.000000,3569.000000,-44.000000,4.983926,-86.952966,70.625966,0.608874,-0.371604,-0.579166,0.394652,1214.431885,87471.632812,0.181422,1.788330,1.449829,1.398867,35.625000,39.810944,1,202
101,1443416,1443222,0,0,-0.187915,0.480370,9.894063,0.610982,-0.362748,0.406403,-18.296066,40.694103,-0.979246,-3757.000000,3597.000000,-67.000000,2.844444,-87.015640,68.635157,0.608476,-0.373149,-0.578585,0.394659,1214.376831,87474.031250,0.145502,1.788330,1.394775,1.395088,35.625000,39.792282,1,202
101,1443590,1443491,0,0,-0.159229,0.495027,9.899961,-0.520444,0.009737,0.204233,-18.357176,40.728428,-1.461561,-3767.000000,3603.000000,-100.000000,2.844444,-87.015640,68.635157,0.608476,-0.373149,-0.578585,0.394659,1214.340698,87474.039062,0.056136,1.788330,1.358643,1.422279,35.625000,39.796947,1,202
101,1443769,1443580,0,0,-0.168474,0.491966,9.894551,-0.431288,0.489996,0.085196,-18.204405,40.636890,-1.125402,-3742.000000,3587.000000,-77.000000,5.227803,-86.991564,71.096266,0.607861,-0.372835,-0.578672,0.395774,1214.294312,87474.687500,-0.036071,1.788330,1.312256,1.317352,35.625000,39.815609,1,202
101,1444000,1443901,0,0,-0.162366,0.519101,9.891914,-0.490002,-0.672841,0.258896,-18.406065,40.757034,-0.643087,-3775.000000,3608.000000,-44.000000,5.227803,-86.991564,71.096266,0.607861,-0.372835,-0.578672,0.395774,1214.523560,87467.390625,0.069771,1.788330,1.541504,1.312983,35.625000,39.820271,1,202
101,1444177,1443979,0,0,-0.170424,0.497169,9.891934,-0.280305,0.180972,0.781792,-18.479397,40.682659,-0.847705,-3787.000000,3595.000000,-58.000000,5.510120,-86.958676,71.078842,0.608993,-0.371120,-0.579538,0.394377,1214.540649,87470.484375,0.172170,1.788330,1.558594,1.543723,35.625000,39.843597,1,202
101,1444355,1444255,0,0,-0.190349,0.482157,9.890079,0.055610,0.574117,0.456433,-18.491617,40.562515,-1.300789,-3789.000000,3574.000000,-89.000000,5.510120,-86.958676,71.078842,0.608993,-0.371120,-0.579538,0.394377,1214.514893,87471.312500,0.354957,1.788330,1.532837,1.576499,35.625000,39.801613,1,202
101,1444536,1444335,0,0,-0.181445,0.493555,9.892396,0.001302,0.766980,0.936759,-18.375509,40.419491,-0.993861,-3770.000000,3549.000000,-68.000000,4.263571,-86.957187,69.815147,0.609308,-0.371351,-0.579337,0.393968,1214.441162,87473.804688,0.338123,1.788330,1.459106,1.464320,35.625000,39.829601,1,202
101,1444715,1444616,0,0,-0.186201,0.483547,9.894272,-0.382194,0.151916,0.390739,-18.198294,40.739872,-1.256942,-3741.000000,3605.000000,-86.000000,4.263571,-86.957187,69.815147,0.609308,-0.371351,-0.579337,0.393968,1214.349487,87473.132812,0.003831,1.788330,1.367432,1.533890,35.625000,39.801613,1,202
101,1444900,1444701,0,0,-0.181008,0.499422,9.887477,0.165624,0.105391,0.513718,-18.424397,40.625446,-1.432330,-3778.000000,3585.000000,-98.000000,4.471578,-86.924696,70.077679,0.609235,-0.371448,-0.579037,0.394431,1214.446167,87469.515625,-0.043827,1.788330,1.464111,1.464124,35.625000,39.815609,1,202
101,1445088,1444988,0,0,-0.183072,0.497741,9.899187,0.278440,-0.088784,0.318826,-18.094406,40.808525,-0.423853,-3750.000000,3602.000000,-29.000000,4.471578,-86.924696,70.077679,0.609235,-0.371448,-0.579037,0.394431,1214.482056,87469.781250,-0.026692,1.788330,1.500000,1.463788,35.625000,39.796947,1,202
101,1445327,1445066,0,0,-0.180271,0.490459,9.900699,0.223673,0.125469,0.594686,-18.076077,40.676937,-0.833090,-3721.000000,3594.000000,-57.000000,3.779730,-86.978846,69.818740,0.607619,-0.374020,-0.577766,0.396352,1214.521484,87470.132812,0.075501,1.788330,1.539429,1.534838,35.625000,39.820271,1,202
101,1445536,1445436,0,0,-0.181269,0.496793,9.881652,-0.724497,-0.275142,0.350723,-18.326622,40.768478,-0.891552,-3762.000000,3610.000000,-61.000000,3.779730,-86.978846,69.818740,0.607619,-0.374020,-0.577766,0.396352,1214.576660,87469.875000,0.231759,1.788330,1.594604,1.551800,35.625000,39.843597,1,202
101,1445723,1445514,0,0,-0.179629,0.498046,9.889463,-0.576247,-0.055198,0.124016,-18.363289,40.722706,-0.920783,-3768.000000,3602.000000,-63.000000,4.440963,-86.935502,70.167251,0.608775,-0.372104,-0.578696,0.395022,1214.561768,87471.054688,0.277766,1.788330,1.579712,1.576942,35.625000,39.824936,1,202
101,1445879,1445779,0,0,-0.183998,0.486515,9.886524,0.407869,-0.652522,0.014921,-18.234959,40.682659,-0.380006,-3747.000000,3595.000000,-26.000000,4.440963,-86.935502,70.167251,0.608775,-0.372104,-0.578696,0.395022,1214.456299,87472.906250,0.097918,1.788330,1.474243,1.631226,35.625000,39.838932,1,202
101,1446040,1445859,0,0,-0.166514,0.487999,9.896495,-0.303190,-0.689668,0.110437,-18.234959,40.562515,-0.891552,-3747.000000,3574.000000,-61.000000,5.367462,-87.017477,71.159431,0.607976,-0.372515,-0.579078,0.395307,1214.409546,87473.476562,-0.018730,1.788330,1.427490,1.436678,35.625000,39.820271,1,202
101,1446205,1445992,0,0,-0.166419,0.494702,9.901410,-0.297750,-0.391476,0.891067,-18.302179,40.768478,-0.570009,-3758.000000,3610.000000,-39.000000,5.367462,-87.017477,71.159431,0.607976,-0.372515,-0.579078,0.395307,1214.411377,87472.242188,-0.122518,1.788330,1.429321,1.438413,35.625000,39.810944,1,202
101,1446361,1446263,0,0,-0.186222,0.493672,9.895509,0.802940,0.093628,0.579235,-18.167738,40.499584,-1.140018,-3736.000000,3563.000000,-78.000000,3.493394,-86.947885,69.332663,0.608513,-0.372971,-0.578204,0.395328,1214.274658,87477.179688,-0.239085,1.788330,1.292603,1.301479,35.625000,39.843597,1,202
101,1446527,1446343,0,0,-0.176168,0.489541,9.893722,0.633960,0.052015,0.083191,-18.106628,40.688381,-1.783104,-3726.000000,3596.000000,-122.000000,3.493394,-86.947885,69.332663,0.608513,-0.372971,-0.578204,0.395328,1214.351074,87471.031250,-0.215625,1.788330,1.369019,1.273579,35.625000,39.815609,1,202
101,1446691,1446475,0,0,-0.169920,0.491632,9.900882,-0.074713,0.116438,0.235169,-18.467175,40.533913,-1.198480,-3785.000000,3569.000000,-82.000000,3.493394,-86.947885,69.332663,0.608513,-0.372971,-0.578204,0.395328,1214.370361,87472.250000,-0.165368,1.788330,1.388306,1.246249,35.625000,39.815609,1,202
101,1446923,1446810,0,0,-0.187355,0.482365,9.890530,-0.500977,-0.365680,-0.683983,-18.497726,40.608284,-1.870798,-3790.000000,3582.000000,-128.000000,3.859440,-87.006966,69.554466,0.608655,-0.372369,-0.579045,0.394446,1214.472168,87469.859375,-0.038005,1.788330,1.490112,1.387459,35.625000,39.834267,1,202
101,1447090,1446890,0,0,-0.175094,0.487360,9.896379,-0.410067,-0.427585,-0.273556,-18.149406,40.556797,-1.256942,-3733.000000,3573.000000,-86.000000,4.346460,-87.004555,70.238168,0.607894,-0.373228,-0.578487,0.395624,1214.481445,87471.312500,0.077289,1.788330,1.499390,1.491439,35.625000,39.801613,1,202
101,1447256,1447156,0,0,-0.180440,0.492921,9.893405,-0.415970,0.014668,0.099114,-18.454950,40.551079,-1.300789,-3783.000000,3572.000000,-89.000000,4.346460,-87.004555,70.238168,0.607894,-0.373228,-0.578487,0.395624,1214.504883,87470.218750,0.144039,1.788330,1.522827,1.500920,35.625000,39.862255,1,202
101,1447426,1447234,0,0,-0.169082,0.497187,9.904432,0.321267,-0.337407,0.436485,-18.228848,40.528191,-1.724642,-3746.000000,3568.000000,-118.000000,5.431868,-86.964919,71.218089,0.608230,-0.372264,-0.578848,0.395489,1214.560791,87469.304688,0.173675,1.788330,1.578735,1.573353,35.625000,39.862255,1,202
101,1447595,1447502,0,0,-0.183554,0.491050,9.891152,0.997596,0.512253,0.769726,-18.406065,40.596844,-1.753873,-3775.000000,3580.000000,-120.000000,5.431868,-86.964919,71.218089,0.608230,-0.372264,-0.578848,0.395489,1214.533569,87471.390625,0.141265,1.788330,1.551514,1.606987,35.625000,39.838932,1,202
101,1447769,1447581,0,0,-0.170622,0.489562,9.889781,0.653049,-0.063372,0.451384,-18.399954,40.882900,-1.534639,-3774.000000,3630.000000,-105.000000,5.014315,-86.999193,70.785615,0.608203,-0.372429,-0.578984,0.395175,1214.444580,87474.148438,0.097192,1.788330,1.462524,1.469361,35.625000,39.848259,1,202
101,1447943,1447851,0,0,-0.174514,0.502606,9.894867,-0.020012,-0.329908,-0.449014,-18.412174,40.774200,-1.140018,-3776.000000,3611.000000,-78.000000,5.014315,-86.999193,70.785615,0.608203,-0.372429,-0.578984,0.395175,1214.514648,87471.976562,0.014307,1.788330,1.532593,1.491668,35.625000,39.829601,1,202
101,1448121,1447933,0,0,-0.177401,0.487175,9.897478,0.202499,-0.386090,0.290846,-18.436619,40.625446,-2.060801,-3780.000000,3585.000000,-141.000000,4.396139,-87.001358,69.991284,0.608921,-0.371705,-0.579445,0.394074,1214.448364,87473.539062,-0.058381,1.788330,1.466309,1.466497,35.625000,39.848259,1,202
101,1448354,1448074,0,0,-0.174632,0.491628,9.898363,0.057332,-0.202988,-0.110995,-18.314400,40.579681,-1.227711,-3760.000000,3577.000000,-84.000000,4.396139,-87.001358,69.991284,0.608921,-0.371705,-0.579445,0.394074,1214.489014,87473.492188,-0.074500,1.788330,1.506958,1.459267,35.625000,39.824936,1,202
101,1448528,1448428,0,0,-0.182862,0.484060,9.890495,0.022763,-0.418183,0.010861,-18.424397,40.751312,-1.198480,-3778.000000,3607.000000,-82.000000,4.085454,-86.954018,69.730043,0.609039,-0.371855,-0.578984,0.394427,1214.577148,87469.648438,0.013820,1.788330,1.595093,1.550341,35.625000,39.880913,1,202
101,1448707,1448519,0,0,-0.186468,0.480400,9.885331,0.199950,-0.385229,0.613384,-18.308289,40.739872,-0.438468,-3759.000000,3605.000000,-30.000000,4.085454,-86.954018,69.730043,0.609039,-0.371855,-0.578984,0.394427,1214.542358,87471.757812,0.043175,1.788330,1.560303,1.548427,35.625000,39.871586,1,202
101,1448886,1448658,0,0,-0.170789,0.494339,9.891782,0.347103,-0.218111,0.700144,-18.173849,40.877178,-0.686934,-3737.000000,3629.000000,-47.000000,4.913052,-86.973402,70.940448,0.607461,-0.373647,-0.578001,0.396603,1214.528809,87471.375000,0.087749,1.788330,1.546753,1.547046,35.625000,39.834267,1,202
101,1449065,1448966,0,0,-0.174852,0.487181,9.890794,-0.034388,-0.425355,-0.316564,-18.289957,40.791359,-0.686934,-3756.000000,3614.000000,-47.000000,4.913052,-86.973402,70.940448,0.607461,-0.373647,-0.578001,0.396603,1214.508911,87472.359375,0.070033,1.788330,1.526855,1.565986,35.750000,39.866920,1,202
101,1449282,1449050,0,0,-0.177300,0.478712,9.894231,0.302437,-0.300219,0.118660,-18.332735,40.573959,-0.672318,-3763.000000,3576.000000,-46.000000,3.994158,-87.046458,69.676857,0.608482,-0.372422,-0.579311,0.394272,1214.460449,87472.976562,-0.009611,1.788330,1.478394,1.482613,35.750000,39.871586,1,202
101,1449460,1449361,0,0,-0.178084,0.490366,9.889384,0.467467,-0.321829,-0.074601,-18.448839,40.734150,-1.286174,-3782.000000,3604.000000,-88.000000,3.994158,-87.046458,69.676857,0.608482,-0.372422,-0.579311,0.394272,1214.463623,87470.210938,-0.138909,1.788330,1.481567,1.482725,35.750000,39.857590,1,202
101,1449646,1449441,0,0,-0.168577,0.496522,9.908998,0.295762,-0.535771,0.485203,-18.351067,40.591125,-0.555393,-3785.000000,3579.000000,-38.000000,5.578441,-86.970882,71.246851,0.608578,-0.371654,-0.579290,0.394879,1214.456421,87471.984375,-0.183636,1.788330,1.474365,1.474870,35.750000,39.834267,1,202
101,1449935,1449835,0,0,-0.186951,0.475155,9.891908,0.399872,-0.400623,0.484258,-18.106628,40.694103,-0.818474,-3726.000000,3597.000000,-56.000000,2.510036,-87.045071,68.522657,0.607630,-0.374464,-0.577950,0.395647,1214.620361,87466.289062,-0.094870,1.788330,1.638306,1.623730,35.750000,39.876251,1,202
101,1450100,1449914,0,0,-0.183656,0.485096,9.895882,0.723252,-0.550864,0.370870,-18.381620,40.739872,-1.315405,-3771.000000,3605.000000,-90.000000,2.510036,-87.045071,68.522657,0.607630,-0.374464,-0.577950,0.395647,1214.531860,87473.203125,-0.032864,1.788330,1.549805,1.609823,35.750000,39.834267,1,202
101,1450257,1450175,0,0,-0.180564,0.492182,9.893877,0.339564,-0.049578,-0.042161,-18.552727,40.562515,-0.745396,-3799.000000,3574.000000,-51.000000,4.434676,-86.966838,69.853718,0.609684,-0.370672,-0.579848,0.393273,1214.520630,87469.859375,-0.003975,1.788330,1.538574,1.543848,35.750000,39.834267,1,202
101,1450416,1450255,0,0,-0.179115,0.468707,9.891409,-0.333935,-0.260975,-0.058792,-18.613834,40.716988,-0.906168,-3809.000000,3601.000000,-62.000000,4.434676,-86.966838,69.853718,0.609684,-0.370672,-0.579848,0.393273,1214.486206,87472.351562,-0.003845,1.788330,1.504150,1.541754,35.625000,39.862255,1,202
101,1450581,1450385,0,0,-0.175348,0.474078,9.884795,-0.676126,-0.674746,0.281444,-18.528284,40.917225,-0.628471,-3795.000000,3636.000000,-43.000000,4.434676,-86.966838,69.853718,0.609684,-0.370672,-0.579848,0.393273,1214.488770,87471.406250,-0.049685,1.788330,1.506714,1.539649,35.625000,39.848259,1,202
101,1450741,1450641,0,0,-0.183805,0.487143,9.890904,0.194308,0.204515,0.678695,-18.461063,40.602562,-0.306928,-3787.000000,3581.000000,-21.000000,3.430733,-87.084434,69.133467,0.608336,-0.372809,-0.579333,0.394099,1214.476807,87471.500000,-0.016172,1.788330,1.494751,1.490792,35.625000,39.894909,1,202
101,1450906,1450721,0,0,-0.179582,0.490711,9.895783,0.430862,-0.111258,0.287351,-18.326622,40.819965,-0.847705,-3762.000000,3619.000000,-58.000000,3.430733,-87.084434,69.133467,0.608336,-0.372809,-0.579333,0.394099,1214.521973,87469.984375,-0.016487,1.788330,1.539917,1.484543,35.625000,39.894909,1,202
101,1451071,1450988,0,0,-0.189830,0.473381,9.893827,-0.280470,0.228397,0.161730,-18.412174,40.825684,-1.110786,-3776.000000,3620.000000,-76.000000,4.303400,-86.996536,70.083547,0.608325,-0.372645,-0.578802,0.395050,1214.554932,87469.289062,0.044251,1.788330,1.572876,1.511095,35.625000,39.852924,1,202
101,1451302,1451070,0,0,-0.199161,0.472150,9.885925,-0.282389,-0.035732,0.004084,-18.436619,40.694103,-1.520023,-3780.000000,3597.000000,-104.000000,4.303400,-86.996536,70.083547,0.608325,-0.372645,-0.578802,0.395050,1214.483643,87473.289062,0.073122,1.788330,1.501587,1.508087,35.625000,39.876251,1,202
101,1451466,1451383,0,0,-0.180243,0.487333,9.903320,0.256063,-0.390313,0.567426,-18.271624,40.676937,-1.841567,-3753.000000,3594.000000,-126.000000,5.456541,-86.951047,71.078193,0.608857,-0.371371,-0.579318,0.394673,1214.542480,87470.796875,0.131211,1.788330,1.560425,1.562010,35.625000,39.848259,1,202
101,1451633,1451462,0,0,-0.174778,0.490768,9.900723,-0.324805,-0.113676,0.424874,-18.351067,40.808525,-0.628471,-3766.000000,3617.000000,-43.000000,5.456541,-86.951047,71.078193,0.608857,-0.371371,-0.579318,0.394673,1214.518311,87471.750000,0.141070,1.788330,1.536255,1.575571,35.625000,39.866920,1,202
101,1451802,1451594,0,0,-0.180509,0.489982,9.898526,-0.358924,-0.134936,0.465851,-18.210516,40.745590,-1.300789,-3743.000000,3606.000000,-89.000000,3.857027,-86.980294,69.776195,0.608011,-0.373401,-0.578180,0.395731,1214.493652,87472.023438,0.080893,1.788330,1.511597,1.514191,35.625000,39.852924,1,202
101,1451968,1451869,0,0,-0.180988,0.489342,9.902510,-0.680883,-0.319429,0.436030,-18.491617,40.779922,-0.891552,-3789.000000,3612.000000,-61.000000,3.857027,-86.980294,69.776195,0.608011,-0.373401,-0.578180,0.395731,1214.511230,87471.218750,0.051375,1.788330,1.529175,1.532367,35.625000,39.904240,1,202
101,1452139,1451948,0,0,-0.172174,0.504389,9.899873,-0.496510,0.184453,0.599085,-18.051630,40.922947,-0.672318,-3717.000000,3637.000000,-46.000000,4.958538,-86.918419,71.152519,0.607134,-0.374262,-0.577191,0.397702,1214.538330,87470.265625,0.041353,1.788330,1.556274,1.553681,35.625000,39.885578,1,202
101,1452313,1452218,0,0,-0.181984,0.508028,9.899745,-0.000593,0.292439,0.999015,-18.216627,40.688381,-1.125402,-3744.000000,3596.000000,-77.000000,4.958538,-86.918419,71.152519,0.607134,-0.374262,-0.577191,0.397702,1214.485352,87472.031250,0.015335,1.788330,1.503296,1.563600,35.625000,39.857590,1,202
101,1452486,1452304,0,0,-0.177522,0.482342,9.899245,0.977391,-0.131025,0.600495,-18.332735,40.614006,-0.570009,-3763.000000,3583.000000,-39.000000,4.091061,-87.027853,69.794370,0.608481,-0.372431,-0.579168,0.394474,1214.512573,87470.531250,0.001520,1.788330,1.530518,1.531945,35.625000,39.866920,1,202
101,1452714,1452439,0,0,-0.173760,0.486848,9.904564,-0.400651,-0.198248,0.525374,-18.381620,40.814243,-1.154633,-3771.000000,3618.000000,-79.000000,4.091061,-87.027853,69.794370,0.608481,-0.372431,-0.579168,0.394474,1214.515381,87472.328125,-0.007134,1.788330,1.533325,1.533158,35.625000,39.852924,1,202
101,1452886,1452786,0,0,-0.186418,0.481813,9.896188,-0.329842,-0.286845,0.785246,-18.204405,40.791359,-1.066940,-3742.000000,3614.000000,-73.000000,2.881269,-87.060187,68.631599,0.608392,-0.373100,-0.578952,0.394298,1214.594849,87470.914062,0.069474,1.788330,1.612793,1.630094,35.750000,39.904240,1,202
101,1453063,1452878,0,0,-0.177640,0.502434,9.898077,-0.027173,-0.509894,0.085178,-18.332735,40.745590,-0.160772,-3763.000000,3606.000000,-11.000000,2.881269,-87.060187,68.631599,0.608392,-0.373100,-0.578952,0.394298,1214.579224,87470.890625,0.103950,1.788330,1.597168,1.635138,35.750000,39.894909,1,202
101,1453241,1453015,0,0,-0.182378,0.493279,9.898441,-0.086768,0.082879,0.213548,-18.509949,40.659779,-1.636948,-3792.000000,3591.000000,-112.000000,4.184088,-86.958676,69.709430,0.609407,-0.371244,-0.579414,0.393802,1214.604248,87469.609375,0.127585,1.788330,1.622192,1.622485,35.750000,39.862255,1,202
