checksum,uptime mp,uptime nav, errorflag mp, errorflag nav,accel x, accel y, accel z, gyro x, gyro y, gyro z, mag x, mag y, mag z, magraw x, magraw y, magraw z, euler x, euler y, euler z, quat w, quat x, quat y, quat z, altitude, pressure, verticalvel,maxrecorded alt,altitudeagl,filteredalt,imutemp, barotemp, state,checksum2
101,322135,319105,0,0,0.817812,-0.598308,9.834366,0.809239,0.152227,0.883112,-6.972553,43.217102,1.885414,-1904.000000,4038.000000,129.000000,135.472240,-84.195230,-143.862936,0.502630,-0.454448,-0.574046,0.459687,1232.238037,87282.765625,-0.061910,1.455688,1.273315,1.265883,24.500000,26.545038,0,202
101,324143,324058,0,0,0.809029,-0.578547,9.845196,-0.207328,-0.027697,1.396003,-6.862555,43.148449,2.002338,-1886.000000,4026.000000,137.000000,134.648765,-84.231286,-144.430975,0.501874,-0.455240,-0.572778,0.461307,1232.297607,87282.640625,-0.013684,1.455688,1.332886,1.337708,24.500000,26.582432,0,202
101,326211,326078,0,0,0.831939,-0.593485,9.826879,-0.347725,-0.283397,0.183492,-6.679229,43.371574,2.133879,-1856.000000,4065.000000,146.000000,134.755275,-84.113704,-144.142646,0.500386,-0.456131,-0.572755,0.462072,1232.268555,87281.812500,0.081664,1.455688,1.303833,1.298704,24.500000,26.610476,0,202
101,328267,328124,0,0,0.822874,-0.546590,9.842684,-0.273734,0.117878,0.505857,-6.770893,43.320084,2.820812,-1871.000000,4056.000000,193.000000,133.162215,-84.190906,-145.622830,0.500517,-0.455757,-0.571755,0.463534,1232.271484,87280.445312,-0.024694,1.455688,1.306763,1.272431,24.500000,26.619823,0,202
101,330328,330184,0,0,0.827646,-0.611163,9.846719,0.035420,-0.203376,-0.388112,-6.783113,43.131287,2.046185,-1873.000000,4023.000000,140.000000,135.421874,-84.035041,-143.556506,0.500175,-0.456099,-0.573572,0.461318,1232.276001,87281.625000,-0.027056,1.455688,1.311279,1.312737,24.500000,26.643194,0,202
101,332445,332333,0,0,0.817620,-0.567175,9.834830,-0.176865,0.226042,-0.517694,-7.314764,43.451668,1.695411,-1960.000000,4079.000000,116.000000,135.946255,-84.220010,-143.719024,0.504089,-0.453103,-0.575227,0.457936,1232.151367,87283.757812,0.040752,1.455688,1.186646,1.171667,24.500000,26.647867,0,202
101,334503,334350,0,0,0.819649,-0.548451,9.846951,-0.797007,-0.082946,0.636687,-6.862555,43.331524,2.820812,-1886.000000,4058.000000,193.000000,135.120307,-84.099552,-144.144599,0.501754,-0.454515,-0.574315,0.460241,1232.179199,87284.648438,0.012461,1.455688,1.214478,1.272485,24.500000,26.671238,0,202
101,336560,336480,0,0,0.814319,-0.599721,9.837788,-0.162193,-0.400816,1.599270,-6.880889,43.159893,2.075417,-1900.000000,4048.000000,148.000000,134.940168,-84.174527,-143.999198,0.500931,-0.456082,-0.572570,0.461758,1232.161865,87284.875000,0.053327,1.455688,1.197144,1.272388,24.625000,26.689934,0,202
101,338625,338544,0,0,0.828438,-0.565475,9.835537,0.369355,0.077391,-0.452962,-7.192544,43.497440,1.783104,-1940.000000,4087.000000,122.000000,136.467740,-84.104245,-142.799243,0.501735,-0.455361,-0.574353,0.459377,1232.175049,87282.445312,-0.012227,1.455688,1.210327,1.319499,24.625000,26.708630,0,202
101,340693,340600,0,0,0.819431,-0.563580,9.837571,0.177495,-0.261881,1.347670,-7.259765,43.274315,1.768489,-1951.000000,4048.000000,121.000000,134.064141,-84.227297,-145.480967,0.503752,-0.452545,-0.574612,0.459628,1232.303955,87281.617188,0.260485,1.455688,1.339233,1.335316,24.625000,26.713305,0,202
101,342756,342641,0,0,0.814033,-0.604963,9.833628,-0.027614,0.166715,1.493120,-7.216988,43.365852,1.870798,-1944.000000,4064.000000,128.000000,133.129731,-84.280443,-146.358373,0.503923,-0.452302,-0.574011,0.460429,1232.391602,87279.421875,0.180577,1.455688,1.426880,1.408903,24.500000,26.727325,0,202
101,344822,344690,0,0,0.815715,-0.592568,9.843866,-0.711727,0.101444,-4.759582,-7.174213,43.268593,1.739258,-1937.000000,4047.000000,119.000000,137.121184,-84.168954,-142.541007,0.503708,-0.453824,-0.575559,0.457224,1232.221680,87283.500000,-0.000332,1.455688,1.256958,1.356995,24.625000,26.746021,0,202
101,346888,346802,0,0,0.848957,-0.575710,9.837102,0.289447,0.219766,-1.450072,-7.094769,43.331524,1.943876,-1924.000000,4058.000000,133.000000,134.462082,-84.248901,-144.968661,0.503407,-0.453381,-0.574056,0.459877,1232.202148,87282.843750,-0.046469,1.455688,1.237427,1.233649,24.625000,26.764717,0,202
101,349013,348910,0,0,0.789658,-0.554241,9.844206,0.379142,0.019005,1.786340,-7.143658,43.428780,3.098509,-1908.000000,4075.000000,212.000000,135.124474,-84.040526,-144.200224,0.501616,-0.454177,-0.574901,0.459993,1232.265869,87283.320312,0.053944,1.455688,1.301147,1.337703,24.750000,26.778738,0,202
101,351083,350973,0,0,0.808643,-0.639719,9.835517,-0.478957,-0.259500,0.005510,-7.100882,43.297199,2.060801,-1925.000000,4052.000000,141.000000,137.694797,-84.015363,-141.652468,0.501452,-0.455699,-0.575233,0.458248,1232.151001,87284.968750,-0.308555,1.455688,1.186279,1.189686,24.750000,26.792761,0,202
101,353166,353014,0,0,0.795481,-0.571637,9.852513,0.489583,0.524649,-1.859845,-7.070327,43.302921,1.943876,-1920.000000,4053.000000,133.000000,136.288024,-84.051645,-143.051113,0.501694,-0.454855,-0.574944,0.459183,1232.281494,87280.531250,-0.013728,1.455688,1.316772,1.257513,24.750000,26.792761,0,202
101,355234,355134,0,0,0.823232,-0.576644,9.844771,-0.268771,-0.052815,-1.378645,-7.198656,43.337246,1.841567,-1941.000000,4059.000000,126.000000,134.467027,-84.170586,-144.990177,0.503014,-0.453192,-0.574623,0.459786,1232.203613,87283.835938,-0.050771,1.455688,1.238892,1.235914,24.750000,26.820805,0,202
101,357310,357159,0,0,0.840627,-0.576183,9.842463,0.420387,0.743816,-0.269842,-7.137546,43.262871,1.286174,-1931.000000,4046.000000,88.000000,135.005861,-84.405517,-144.118781,0.503147,-0.455356,-0.571945,0.460839,1232.115356,87285.546875,-0.165707,1.455688,1.150635,1.220633,24.750000,26.839500,0,202
101,359387,359245,0,0,0.815560,-0.580208,9.840199,0.571525,0.288452,-0.344818,-7.198656,43.377293,1.008477,-1941.000000,4066.000000,69.000000,134.620010,-84.030001,-144.640047,0.501317,-0.454171,-0.574680,0.460602,1232.226807,87282.054688,-0.092700,1.455688,1.262085,1.263957,24.750000,26.844173,0,202
101,361462,361362,0,0,0.847875,-0.580740,9.842601,0.122774,-0.355322,-0.284075,-6.972553,43.245708,1.052324,-1904.000000,4043.000000,72.000000,134.097405,-84.230678,-145.004643,0.501991,-0.454787,-0.572840,0.461551,1232.311523,87281.093750,0.119027,1.455688,1.346802,1.321156,24.750000,26.862869,0,202
101,363540,363412,0,0,0.814127,-0.584850,9.833529,-0.096564,0.085622,0.011958,-7.094769,43.268593,1.125402,-1930.000000,4057.000000,63.000000,134.198218,-84.161625,-145.011938,0.501980,-0.454254,-0.573682,0.461041,1232.165283,87284.882812,-0.162773,1.455688,1.200562,1.318788,24.750000,26.881565,0,202
101,365674,365594,0,0,0.826991,-0.574587,9.832332,0.459484,0.598712,0.348020,-7.192544,43.211380,2.206957,-1940.000000,4037.000000,151.000000,134.240797,-84.104211,-145.167939,0.502409,-0.453241,-0.574809,0.460166,1232.258545,87283.218750,-0.152468,1.455688,1.293823,1.316786,24.875000,26.890911,0,202
101,367750,367635,0,0,0.805410,-0.568172,9.840223,-0.709348,0.281796,0.146420,-6.941998,43.239986,2.133879,-1899.000000,4042.000000,146.000000,135.176848,-84.197429,-144.071311,0.502308,-0.454701,-0.573674,0.460252,1232.256348,87282.859375,-0.108897,1.455688,1.291626,1.399565,24.875000,26.909607,0,202
101,369831,369695,0,0,0.827859,-0.570376,9.838414,0.462756,-0.036611,0.243068,-7.009218,43.079800,1.885414,-1910.000000,4014.000000,129.000000,133.840494,-84.165552,-145.434016,0.502286,-0.453712,-0.573891,0.460981,1232.331787,87280.953125,-0.048180,1.455688,1.367065,1.365642,24.875000,26.923628,0,202
101,371913,371806,0,0,0.827534,-0.586972,9.832009,-0.946509,0.080548,-0.360908,-6.893109,43.108402,0.248465,-1891.000000,4019.000000,17.000000,135.130566,-84.111211,-144.194391,0.502069,-0.454228,-0.574485,0.459968,1232.309570,87283.148438,-0.106221,1.501465,1.344849,1.457856,24.875000,26.932976,0,202
101,374060,373920,0,0,0.816386,-0.591313,9.831468,0.786596,-0.420151,0.212100,-7.131436,43.171333,1.446945,-1930.000000,4030.000000,99.000000,135.282524,-84.145827,-144.083947,0.502449,-0.454140,-0.574453,0.459681,1232.356201,87278.867188,-0.065550,1.501465,1.391479,1.390544,25.000000,26.946999,0,202
101,376115,376033,0,0,0.821693,-0.594883,9.829151,-0.817973,-0.201703,-0.415879,-6.911444,43.194221,0.219234,-1894.000000,4034.000000,15.000000,134.891032,-84.151120,-143.990770,0.500552,-0.456323,-0.572477,0.462046,1232.292847,87282.359375,-0.138845,1.501465,1.328125,1.371751,24.875000,26.965693,0,202
101,378170,378078,0,0,0.833046,-0.573227,9.843603,-0.494289,-0.830387,0.296292,-7.149768,43.257149,0.789243,-1933.000000,4045.000000,54.000000,134.444501,-84.176385,-144.561883,0.501239,-0.455439,-0.572800,0.461774,1232.327637,87280.750000,0.011561,1.501465,1.362915,1.435121,24.875000,26.979713,0,202
101,380227,380134,0,0,0.828446,-0.574736,9.839449,0.511874,-0.458035,0.000983,-7.174213,43.360130,2.236188,-1937.000000,4063.000000,153.000000,134.209911,-84.149099,-145.248931,0.502899,-0.453006,-0.574741,0.459948,1232.328491,87282.000000,0.152450,1.501465,1.363770,1.362000,24.875000,26.984388,0,202
101,382342,382222,0,0,0.824930,-0.578881,9.836721,0.301087,0.305466,0.726595,-6.917554,43.428780,2.002338,-1895.000000,4075.000000,137.000000,134.780150,-84.155266,-144.422315,0.501876,-0.454653,-0.573721,0.460712,1232.387817,87279.851562,0.039384,1.501465,1.423096,1.424871,24.875000,27.003082,0,202
101,384400,384280,0,0,0.826944,-0.586827,9.838422,-0.108653,0.274399,-0.255822,-6.948108,43.257149,1.593101,-1900.000000,4045.000000,109.000000,134.392551,-84.129455,-144.878230,0.502007,-0.454048,-0.574123,0.460665,1232.340820,87280.914062,-0.046167,1.501465,1.376099,1.378442,24.875000,27.017105,0,202
101,386457,386331,0,0,0.813398,-0.584862,9.831942,-0.536398,0.559369,0.671446,-6.954219,43.474552,1.578486,-1901.000000,4083.000000,108.000000,134.805709,-84.181849,-144.282542,0.501585,-0.455259,-0.573112,0.461188,1232.322754,87280.195312,0.099669,1.501465,1.358032,1.355611,25.000000,27.031126,0,202
101,388534,388358,0,0,0.825351,-0.585887,9.841437,0.525774,0.298115,-0.550862,-6.893109,43.142727,1.636948,-1891.000000,4025.000000,112.000000,134.249649,-84.082101,-145.060049,0.501870,-0.453726,-0.574548,0.460602,1232.302734,87282.796875,0.181587,1.501465,1.338013,1.397647,25.000000,27.049820,0,202
101,390597,390501,0,0,0.821325,-0.584192,9.832997,-0.065081,0.339525,-0.057142,-6.972553,43.159893,1.856182,-1904.000000,4028.000000,127.000000,134.627687,-84.147541,-144.576554,0.501842,-0.454542,-0.573766,0.460803,1232.262085,87283.078125,-0.117183,1.501465,1.297363,1.306719,24.875000,27.073189,0,202
101,392661,392564,0,0,0.818816,-0.587925,9.821340,-0.344166,0.423947,0.330860,-6.844223,43.400177,1.856182,-1883.000000,4070.000000,127.000000,134.369178,-84.080073,-145.190151,0.502852,-0.452547,-0.575554,0.459433,1232.340576,87283.132812,0.085774,1.501465,1.375854,1.457197,25.000000,27.077864,0,202
101,394739,394553,0,0,0.824541,-0.587043,9.840243,-0.065403,0.166507,-0.166253,-6.832000,43.119843,1.315405,-1881.000000,4021.000000,90.000000,134.858192,-84.141838,-144.428639,0.502125,-0.454269,-0.574139,0.460298,1232.373291,87280.937500,0.092627,1.501465,1.408569,1.404484,25.000000,27.091885,0,202
101,395616,395511,0,0,0.824997,-0.575426,9.842212,0.232810,-0.029286,-0.426445,-7.076437,43.360130,2.148495,-1921.000000,4063.000000,147.000000,133.726061,-84.157561,-145.344759,0.501422,-0.454653,-0.573124,0.461948,1232.398438,87279.984375,0.059472,1.501465,1.433716,1.405840,25.000000,27.087210,1,202
101,395841,395594,0,0,0.824600,-0.587005,9.835705,-0.564210,0.519307,0.697531,-6.838112,43.428780,1.651564,-1882.000000,4075.000000,113.000000,133.726061,-84.157561,-145.344759,0.501422,-0.454653,-0.573124,0.461948,1232.365112,87281.882812,0.090251,1.501465,1.400391,1.409260,25.000000,27.096558,1,202
101,396005,395907,0,0,0.827897,-0.600614,9.835993,0.405021,0.183802,0.186512,-6.966443,43.417343,1.812336,-1903.000000,4073.000000,124.000000,134.570422,-84.069827,-144.477202,0.500719,-0.455233,-0.573599,0.461549,1232.331543,87280.156250,-0.086157,1.501465,1.366821,1.321064,25.000000,27.101231,1,202
101,396175,395986,0,0,0.826580,-0.579625,9.843460,-0.086996,-0.416553,0.076462,-6.972553,43.383015,1.344636,-1904.000000,4067.000000,92.000000,134.570422,-84.069827,-144.477202,0.500719,-0.455233,-0.573599,0.461549,1232.368408,87280.101562,-0.065757,1.501465,1.403687,1.320128,25.000000,27.096558,1,202
101,396346,396254,0,0,0.815828,-0.584156,9.829642,-0.784758,-0.269748,0.127881,-7.045883,43.388737,2.046185,-1916.000000,4068.000000,140.000000,133.792956,-84.190619,-145.258576,0.501550,-0.454818,-0.572857,0.461977,1232.236206,87283.023438,-0.192259,1.501465,1.271484,1.287772,25.000000,27.068516,1,202
101,396518,396333,0,0,0.828210,-0.588514,9.837605,-0.025216,-0.002309,0.101599,-6.978663,43.291477,2.090032,-1905.000000,4051.000000,143.000000,133.792956,-84.190619,-145.258576,0.501550,-0.454818,-0.572857,0.461977,1232.196167,87283.843750,-0.173983,1.501465,1.231445,1.271765,25.000000,27.087210,1,202
101,396694,396613,0,0,0.818842,-0.590739,9.840651,-0.110281,0.201459,0.477762,-7.174213,43.457390,2.163110,-1937.000000,4080.000000,148.000000,134.884543,-84.082538,-144.434541,0.501875,-0.454082,-0.574618,0.460158,1232.311401,87281.132812,-0.141612,1.501465,1.346680,1.311582,25.000000,27.059168,1,202
101,396869,396692,0,0,0.825176,-0.586250,9.835338,-0.195443,0.308248,-0.003649,-7.143658,43.342968,3.156971,-1932.000000,4060.000000,216.000000,134.884543,-84.082538,-144.434541,0.501875,-0.454082,-0.574618,0.460158,1232.335693,87280.765625,-0.065330,1.501465,1.370972,1.291463,25.000000,27.077864,1,202
101,397047,396832,0,0,0.828793,-0.582582,9.849137,0.361790,0.418900,-0.230105,-6.819780,43.280037,1.885414,-1879.000000,4049.000000,129.000000,134.090151,-84.127310,-144.895510,0.500863,-0.455283,-0.572987,0.462104,1232.349121,87280.890625,0.016815,1.501465,1.384399,1.380757,25.000000,27.063841,1,202
101,397277,397177,0,0,0.832425,-0.570151,9.845810,0.095283,0.629882,0.192578,-6.996995,43.199944,2.294651,-1908.000000,4035.000000,157.000000,134.090151,-84.127310,-144.895510,0.500863,-0.455283,-0.572987,0.462104,1232.346436,87282.007812,0.133901,1.501465,1.381714,1.379972,25.000000,27.082537,1,202
101,397454,397257,0,0,0.833795,-0.573211,9.845595,-0.443109,-0.221204,-0.072113,-7.021440,43.417343,2.090032,-1912.000000,4073.000000,143.000000,133.745090,-84.132365,-145.492510,0.501932,-0.453809,-0.573935,0.461217,1232.277832,87283.687500,0.094400,1.501465,1.313110,1.317234,25.000000,27.049820,1,202
101,397631,397532,0,0,0.817679,-0.581752,9.840528,-0.197624,-0.060754,-0.131763,-6.984773,43.114124,1.534639,-1906.000000,4020.000000,105.000000,133.745090,-84.132365,-145.492510,0.501932,-0.453809,-0.573935,0.461217,1232.274902,87281.187500,0.015947,1.501465,1.310181,1.335348,25.000000,27.063841,1,202
101,397812,397611,0,0,0.814629,-0.589408,9.840263,-0.030234,0.092861,0.365513,-7.186433,43.331524,1.768489,-1939.000000,4058.000000,121.000000,135.320022,-84.165662,-144.113180,0.502841,-0.453842,-0.574602,0.459359,1232.233398,87283.492188,-0.043217,1.501465,1.268677,1.271669,25.000000,27.082537,1,202
101,397993,397893,0,0,0.819377,-0.569524,9.839452,0.806166,0.118078,0.324287,-7.333096,43.142727,2.338498,-1963.000000,4025.000000,160.000000,135.320022,-84.165662,-144.113180,0.502841,-0.453842,-0.574602,0.459359,1232.372681,87278.164062,0.058243,1.501465,1.407959,1.265345,25.000000,27.059168,1,202
101,398220,397975,0,0,0.821904,-0.582712,9.838422,0.611002,0.208036,0.471565,-7.039772,43.280037,1.973107,-1915.000000,4049.000000,135.000000,134.612455,-84.152964,-144.664199,0.502168,-0.454174,-0.574020,0.460493,1232.351807,87281.710938,0.154569,1.501465,1.387085,1.380038,25.000000,27.082537,1,202
101,398377,398282,0,0,0.838640,-0.584272,9.835650,-0.533089,0.119556,0.201894,-7.137546,43.148449,1.666180,-1931.000000,4026.000000,114.000000,134.612455,-84.152964,-144.664199,0.502168,-0.454174,-0.574020,0.460493,1232.417236,87279.382812,0.315776,1.501465,1.452515,1.407069,25.000000,27.110579,1,202
101,398531,398362,0,0,0.818393,-0.578053,9.837180,-0.154800,-0.230743,0.009297,-6.972553,43.211380,2.104648,-1904.000000,4037.000000,144.000000,134.452725,-84.184260,-144.765450,0.502142,-0.454391,-0.573595,0.460838,1232.413574,87280.625000,0.372952,1.501465,1.448853,1.444602,25.000000,27.115252,1,202
101,398740,398489,0,0,0.819791,-0.568012,9.840373,0.182571,0.152952,0.127549,-7.284209,43.342968,2.791581,-1955.000000,4060.000000,191.000000,134.452725,-84.184260,-144.765450,0.502142,-0.454391,-0.573595,0.460838,1232.360718,87282.414062,0.292704,1.501465,1.395996,1.505018,25.000000,27.091885,1,202
101,398895,398796,0,0,0.828818,-0.594939,9.841031,0.163409,-0.297450,0.290223,-7.265876,43.194221,2.016954,-1952.000000,4034.000000,138.000000,135.007268,-84.175846,-143.948381,0.501002,-0.456044,-0.572631,0.461644,1232.339722,87280.921875,0.145432,1.501465,1.375000,1.386198,25.000000,27.115252,1,202
101,399054,398894,0,0,0.838468,-0.583271,9.845883,0.081494,0.148321,-0.083837,-6.813668,43.217102,2.163110,-1878.000000,4038.000000,148.000000,135.007268,-84.175846,-143.948381,0.501002,-0.456044,-0.572631,0.461644,1232.366333,87280.382812,0.071062,1.501465,1.401611,1.420658,25.000000,27.119926,1,202
101,399215,399024,0,0,0.825914,-0.573211,9.839136,0.108191,0.073550,0.260258,-6.874777,43.199944,1.783104,-1888.000000,4035.000000,122.000000,133.827120,-84.165908,-145.238099,0.501446,-0.454751,-0.573059,0.461906,1232.345947,87281.765625,0.010532,1.501465,1.381226,1.380315,25.000000,27.087210,1,202
101,399375,399286,0,0,0.813304,-0.596749,9.830702,0.046652,0.368764,1.133271,-6.893109,43.383015,1.461561,-1891.000000,4067.000000,100.000000,133.827120,-84.165908,-145.238099,0.501446,-0.454751,-0.573059,0.461906,1232.357666,87281.359375,0.016915,1.501465,1.392944,1.387972,25.000000,27.077864,1,202
101,399541,399365,0,0,0.822404,-0.582906,9.829315,0.391693,0.604541,0.850983,-7.070327,43.217102,1.797720,-1920.000000,4038.000000,123.000000,134.641006,-84.144577,-144.671617,0.502258,-0.454006,-0.574214,0.460320,1232.354858,87281.234375,0.014521,1.501465,1.390137,1.389531,25.000000,27.091885,1,202
101,399704,399500,0,0,0.831495,-0.576836,9.833760,1.050642,0.065148,-0.182218,-7.168101,43.600418,1.841567,-1936.000000,4105.000000,126.000000,134.641006,-84.144577,-144.671617,0.502258,-0.454006,-0.574214,0.460320,1232.279297,87283.843750,-0.037740,1.501465,1.314575,1.391780,25.000000,27.087210,1,202
101,399869,399769,0,0,0.830386,-0.583329,9.838573,-0.167438,0.289563,-0.122189,-7.345318,43.171333,1.826951,-1965.000000,4030.000000,125.000000,134.766312,-84.111061,-144.912736,0.503506,-0.452221,-0.575867,0.458645,1232.340210,87280.445312,-0.026546,1.501465,1.375488,1.376357,25.000000,27.124599,1,202
101,400095,399854,0,0,0.842068,-0.573027,9.840385,0.202706,0.020217,-0.181925,-6.917554,43.234264,1.914645,-1895.000000,4041.000000,131.000000,134.766312,-84.111061,-144.912736,0.503506,-0.452221,-0.575867,0.458645,1232.384766,87279.734375,0.007900,1.501465,1.420044,1.372292,25.000000,27.115252,1,202
101,400259,400168,0,0,0.840506,-0.570603,9.836809,-0.026704,0.423097,-0.093622,-7.021440,43.211380,1.578486,-1912.000000,4037.000000,108.000000,133.501962,-84.126436,-145.537999,0.501114,-0.454641,-0.573170,0.462237,1232.473755,87278.445312,0.171519,1.509033,1.509033,1.446899,25.000000,27.082537,1,202
101,400428,400247,0,0,0.822487,-0.591109,9.827806,0.673894,-0.334511,0.552986,-7.058105,43.199944,1.213096,-1918.000000,4035.000000,83.000000,133.501962,-84.126436,-145.537999,0.501114,-0.454641,-0.573170,0.462237,1232.416260,87281.937500,0.205974,1.509033,1.451538,1.451981,25.000000,27.101231,1,202
101,400596,400513,0,0,0.837996,-0.586017,9.834006,-0.181349,-0.797463,0.585723,-7.051994,43.445946,1.417714,-1917.000000,4078.000000,97.000000,133.932510,-84.189335,-145.112546,0.501508,-0.454936,-0.572847,0.461919,1232.337524,87283.007812,0.109163,1.509033,1.372803,1.453747,25.000000,27.091885,1,202
101,400769,400592,0,0,0.838798,-0.577163,9.836079,0.157516,0.076933,-0.126783,-7.180323,43.451668,1.476177,-1938.000000,4079.000000,101.000000,133.932510,-84.189335,-145.112546,0.501508,-0.454936,-0.572847,0.461919,1232.376099,87279.976562,0.051913,1.509033,1.411377,1.477874,25.000000,27.110579,1,202
101,400941,400729,0,0,0.820157,-0.586416,9.826472,0.248921,0.096568,0.025200,-6.911444,43.354408,1.476177,-1894.000000,4062.000000,101.000000,134.613043,-84.141715,-144.435032,0.501177,-0.455310,-0.573179,0.461497,1232.341064,87282.179688,-0.059261,1.509033,1.376343,1.380244,25.000000,27.096558,1,202
101,401113,401013,0,0,0.828366,-0.571405,9.836498,0.027359,0.393053,0.088403,-6.978663,43.491718,1.520023,-1905.000000,4086.000000,104.000000,134.613043,-84.141715,-144.435032,0.501177,-0.455310,-0.573179,0.461497,1232.200073,87284.125000,-0.297491,1.509033,1.235352,1.373023,25.000000,27.110579,1,202
101,401290,401092,0,0,0.831365,-0.577523,9.842296,-0.543811,-0.066660,0.194007,-6.935886,43.526043,1.680795,-1898.000000,4092.000000,115.000000,133.851490,-84.127802,-145.213524,0.501201,-0.454736,-0.573284,0.461907,1232.277832,87280.046875,-0.273072,1.509033,1.313110,1.317230,25.000000,27.091885,1,202
101,401517,401417,0,0,0.816552,-0.590022,9.835320,-0.258642,0.419038,0.299452,-7.412538,43.239986,1.885414,-1976.000000,4042.000000,129.000000,133.851490,-84.127802,-145.213524,0.501201,-0.454736,-0.573284,0.461907,1232.407349,87276.671875,-0.207850,1.509033,1.442627,1.251620,25.000000,27.082537,1,202
101,401727,401497,0,0,0.827215,-0.587852,9.840322,-0.446744,0.168437,0.322264,-7.033662,43.400177,1.973107,-1914.000000,4070.000000,135.000000,134.641361,-84.111990,-144.600910,0.501767,-0.454334,-0.574127,0.460639,1232.374756,87281.765625,-0.084732,1.509033,1.410034,1.404338,25.125000,27.087210,1,202
101,401902,401802,0,0,0.819722,-0.585764,9.837006,-0.437900,0.157009,0.473695,-6.923664,43.314365,1.783104,-1896.000000,4055.000000,122.000000,134.641361,-84.111990,-144.600910,0.501767,-0.454334,-0.574127,0.460639,1232.421509,87278.968750,0.066922,1.509033,1.456787,1.379030,25.125000,27.101231,1,202
101,402082,401881,0,0,0.820998,-0.570528,9.832928,-0.565465,0.633302,0.454862,-7.076437,43.474552,1.870798,-1921.000000,4083.000000,128.000000,134.071354,-84.194362,-145.203784,0.502457,-0.453876,-0.573738,0.460823,1232.374634,87282.117188,0.097099,1.509033,1.409912,1.409571,25.125000,27.091885,1,202
101,402261,402161,0,0,0.809591,-0.596326,9.836725,-0.301778,-0.030164,0.388043,-6.832000,43.577530,1.753873,-1881.000000,4101.000000,120.000000,134.071354,-84.194362,-145.203784,0.502457,-0.453876,-0.573738,0.460823,1232.423340,87278.835938,0.039267,1.509033,1.458618,1.425905,25.125000,27.138620,1,202
101,402444,402240,0,0,0.809678,-0.592569,9.834161,-0.184531,0.072985,-0.652654,-6.691450,43.434505,1.476177,-1858.000000,4076.000000,101.000000,134.947107,-84.174425,-143.801218,0.500160,-0.457041,-0.571810,0.462588,1232.473389,87278.664062,0.084224,1.509033,1.508667,1.502566,25.125000,27.124599,1,202
101,402671,402572,0,0,0.833471,-0.559373,9.843055,0.099436,0.099882,0.570016,-7.051994,43.497440,1.052324,-1917.000000,4087.000000,72.000000,134.947107,-84.174425,-143.801218,0.500160,-0.457041,-0.571810,0.462588,1232.451660,87279.835938,0.072406,1.509033,1.486938,1.525043,25.125000,27.147968,1,202
101,402826,402663,0,0,0.837037,-0.570785,9.844566,0.976637,-0.410967,1.637358,-6.923664,43.405899,1.256942,-1896.000000,4071.000000,86.000000,133.325142,-84.124243,-145.709436,0.501090,-0.454554,-0.573150,0.462373,1232.442749,87280.453125,0.091022,1.509033,1.478027,1.479532,25.125000,27.101231,1,202
101,403044,402792,0,0,0.825788,-0.587127,9.832766,0.402369,-0.198488,0.120346,-7.265876,43.411621,1.140018,-1952.000000,4072.000000,78.000000,133.325142,-84.124243,-145.709436,0.501090,-0.454554,-0.573150,0.462373,1232.471436,87279.210938,0.067800,1.509033,1.506714,1.496079,25.000000,27.096558,1,202
101,403199,403102,0,0,0.845422,-0.572528,9.837976,0.436470,0.417599,-1.680773,-6.990885,43.497440,1.739258,-1907.000000,4087.000000,119.000000,135.077905,-84.133130,-143.662579,-0.499858,0.457134,0.572029,-0.462551,1232.442383,87280.906250,0.002716,1.509033,1.477661,1.505392,25.000000,27.138620,1,202
101,403353,403187,0,0,0.846781,-0.576245,9.844258,-0.436459,0.157751,-1.008398,-6.954219,43.302921,2.119263,-1901.000000,4053.000000,145.000000,135.077905,-84.133130,-143.662579,-0.499858,0.457134,0.572029,-0.462551,1232.481934,87278.835938,0.001272,1.517212,1.517212,1.510232,25.000000,27.138620,1,202
101,403512,403314,0,0,0.825076,-0.568681,9.842800,-0.171955,-0.046672,0.283680,-7.051994,43.371574,2.119263,-1917.000000,4065.000000,145.000000,133.866326,-84.186876,-145.423579,0.502482,-0.453668,-0.573828,0.460888,1232.484131,87279.734375,0.005622,1.519409,1.519409,1.518368,25.000000,27.115252,1,202
101,403670,403572,0,0,0.835241,-0.575056,9.853139,-0.565615,-0.123491,1.932303,-7.137546,43.285755,0.906168,-1931.000000,4050.000000,62.000000,133.866326,-84.186876,-145.423579,0.502482,-0.453668,-0.573828,0.460888,1232.470825,87280.539062,-0.009352,1.530884,1.506104,1.520264,25.000000,27.157316,1,202
101,403832,403651,0,0,0.815758,-0.605464,9.831692,-0.248300,0.238108,1.787980,-7.064217,43.480274,2.016954,-1919.000000,4084.000000,138.000000,135.847627,-84.100632,-143.416815,0.501725,-0.454979,-0.574340,0.459782,1232.445312,87280.835938,-0.010628,1.530884,1.480591,1.482922,25.000000,27.157316,1,202
101,403996,403782,0,0,0.826068,-0.593393,9.838221,0.099832,0.242336,0.180914,-7.039772,43.503162,2.236188,-1915.000000,4088.000000,153.000000,135.847627,-84.100632,-143.416815,0.501725,-0.454979,-0.574340,0.459782,1232.497070,87278.367188,-0.005197,1.532349,1.532349,1.481829,25.000000,27.124599,1,202
101,404159,404059,0,0,0.828969,-0.575948,9.834346,0.296616,0.587330,-0.560859,-6.996995,43.508881,1.622333,-1908.000000,4089.000000,111.000000,133.932114,-84.139618,-145.209330,0.501579,-0.454414,-0.573523,0.461517,1232.379395,87280.781250,-0.163678,1.532349,1.414673,1.418893,25.000000,27.152641,1,202
101,404380,404154,0,0,0.827305,-0.577978,9.832535,0.099239,0.846141,0.773421,-7.021440,43.302921,1.315405,-1912.000000,4053.000000,90.000000,133.932114,-84.139618,-145.209330,0.501579,-0.454414,-0.573523,0.461517,1232.366211,87281.375000,-0.193684,1.532349,1.401489,1.390301,25.000000,27.152641,1,202
101,404545,404335,0,0,0.819537,-0.578183,9.835030,0.091297,0.407656,1.158324,-7.100882,43.434505,2.046185,-1925.000000,4076.000000,140.000000,134.532815,-84.177177,-144.797005,0.502541,-0.453876,-0.574083,0.460302,1232.374512,87280.750000,-0.197242,1.532349,1.409790,1.410611,25.000000,27.101231,1,202
101,404708,404609,0,0,0.812599,-0.593957,9.836550,-0.317184,0.042500,0.614568,-6.868667,43.417343,2.163110,-1887.000000,4073.000000,148.000000,134.532815,-84.177177,-144.797005,0.502541,-0.453876,-0.574083,0.460302,1232.359497,87281.093750,-0.178272,1.532349,1.394775,1.369090,25.000000,27.129272,1,202
101,404876,404688,0,0,0.817952,-0.595491,9.828740,-0.278022,-0.301713,-0.089076,-7.064217,43.497440,1.096171,-1919.000000,4087.000000,75.000000,135.232336,-84.122741,-143.944338,0.501542,-0.455043,-0.573834,0.460550,1232.254395,87284.835938,-0.191844,1.532349,1.289673,1.297128,25.000000,27.119926,1,202
101,405047,404955,0,0,0.819444,-0.574896,9.845331,-0.020578,0.215700,-0.302484,-7.015328,43.646187,2.075417,-1898.000000,4079.000000,125.000000,135.232336,-84.122741,-143.944338,0.501542,-0.455043,-0.573834,0.460550,1232.333130,87279.976562,-0.133198,1.532349,1.368408,1.256312,25.000000,27.110579,1,202
101,405218,405046,0,0,0.821520,-0.570295,9.832792,0.757766,0.292012,0.526217,-6.758671,43.383015,0.833090,-1869.000000,4067.000000,57.000000,133.555852,-84.192580,-145.231815,0.500513,-0.455990,-0.571782,0.463277,1232.390259,87279.367188,-0.055557,1.532349,1.425537,1.417632,25.000000,27.133947,1,202
101,405392,405180,0,0,0.831533,-0.579108,9.829334,0.417033,-0.136280,0.733810,-7.106992,43.383015,0.847705,-1926.000000,4067.000000,58.000000,133.555852,-84.192580,-145.231815,0.500513,-0.455990,-0.571782,0.463277,1232.386475,87280.921875,-0.003714,1.532349,1.421753,1.407899,25.000000,27.115252,1,202
101,405566,405466,0,0,0.824664,-0.591537,9.832655,-0.145847,0.534285,0.115434,-7.143658,43.365852,0.964630,-1932.000000,4064.000000,66.000000,134.946288,-84.107045,-144.347866,0.501928,-0.454263,-0.574378,0.460221,1232.350098,87282.671875,0.123311,1.532349,1.385376,1.387370,25.000000,27.161989,1,202
101,405800,405557,0,0,0.810061,-0.593453,9.828889,0.496302,0.454240,-0.213180,-6.777003,43.394459,1.417714,-1872.000000,4069.000000,97.000000,134.946288,-84.107045,-144.347866,0.501928,-0.454263,-0.574378,0.460221,1232.370728,87280.484375,0.090924,1.532349,1.406006,1.407351,25.000000,27.152641,1,202
101,405974,405877,0,0,0.825751,-0.582574,9.830184,-0.673299,0.255366,-0.074046,-6.856445,43.445946,1.622333,-1891.000000,4045.000000,145.000000,133.664780,-84.175333,-145.354963,0.501333,-0.454885,-0.572813,0.462202,1232.424072,87279.195312,0.058436,1.532349,1.459351,1.411926,25.000000,27.119926,1,202
101,406149,405956,0,0,0.821998,-0.581076,9.828248,-0.331877,0.146680,0.022221,-6.929774,43.417343,1.622333,-1897.000000,4073.000000,111.000000,133.664780,-84.175333,-145.354963,0.501333,-0.454885,-0.572813,0.462202,1232.357300,87282.796875,0.016869,1.532349,1.392578,1.419105,25.000000,27.147968,1,202
101,406323,406224,0,0,0.810933,-0.582147,9.832993,0.869426,0.494124,0.566153,-6.972553,43.337246,1.607717,-1904.000000,4059.000000,110.000000,134.756586,-84.134578,-144.212764,0.500807,-0.455789,-0.572916,0.461753,1232.327271,87283.523438,0.013924,1.532349,1.362549,1.448244,25.000000,27.133947,1,202
101,406506,406303,0,0,0.820380,-0.587810,9.837800,-0.323663,0.170455,0.010905,-6.789225,43.348686,2.689272,-1874.000000,4061.000000,184.000000,134.756586,-84.134578,-144.212764,0.500807,-0.455789,-0.572916,0.461753,1232.306274,87282.203125,-0.031138,1.532349,1.341553,1.456706,25.000000,27.147968,1,202
101,406688,406603,0,0,0.826104,-0.573730,9.829913,0.007615,-0.152828,0.298525,-6.844223,43.274315,1.797720,-1883.000000,4048.000000,123.000000,134.261165,-84.117003,-144.556555,0.500110,-0.456222,-0.572389,0.462733,1232.260498,87282.218750,-0.161865,1.532349,1.295776,1.298522,25.125000,27.124599,1,202
101,406883,406682,0,0,0.831192,-0.580643,9.836776,-0.166910,-0.008250,-1.064042,-6.868667,43.417343,1.549255,-1887.000000,4073.000000,106.000000,134.261165,-84.117003,-144.556555,0.500110,-0.456222,-0.572389,0.462733,1232.236084,87283.039062,-0.227091,1.532349,1.271362,1.283944,25.125000,27.143295,1,202
101,407111,407012,0,0,0.826482,-0.581321,9.834672,0.083248,0.072404,-0.356050,-6.703673,43.423061,1.446945,-1860.000000,4074.000000,99.000000,133.702606,-84.167048,-144.871891,-0.499478,0.457124,0.571092,-0.464126,1232.400513,87279.609375,-0.041681,1.532349,1.435791,1.369000,25.125000,27.129272,1,202
101,407328,407110,0,0,0.824944,-0.577672,9.835367,-0.157893,0.264404,-0.187140,-6.636453,43.474552,1.797720,-1849.000000,4083.000000,123.000000,133.704833,-84.153572,-144.998127,-0.499912,0.456474,0.571684,-0.463570,1232.338867,87282.867188,0.022130,1.532349,1.374146,1.375332,25.125000,27.129272,1,202
101,407482,407286,0,0,0.825492,-0.588285,9.849045,1.171175,0.569815,0.354027,-6.758671,43.520321,1.900029,-1869.000000,4091.000000,130.000000,133.704833,-84.153572,-144.998127,-0.499912,0.456474,0.571684,-0.463570,1232.316895,87282.109375,0.057185,1.532349,1.352173,1.374869,25.125000,27.115252,1,202
101,407638,407546,0,0,0.829321,-0.575065,9.845275,-0.077461,0.246797,0.419814,-6.929774,43.371574,2.572347,-1897.000000,4065.000000,176.000000,133.913440,-84.147316,-145.261922,0.501766,-0.454239,-0.573611,0.461377,1232.392578,87279.046875,0.122703,1.532349,1.427856,1.424605,25.125000,27.180683,1,202
101,407794,407626,0,0,0.816506,-0.583365,9.839966,-0.182179,0.111638,0.045619,-7.058105,43.531765,1.914645,-1918.000000,4093.000000,131.000000,133.913440,-84.147316,-145.261922,0.501766,-0.454239,-0.573611,0.461377,1232.419189,87279.820312,0.131955,1.532349,1.454468,1.438626,25.125000,27.171337,1,202
101,407972,407755,0,0,0.811652,-0.581111,9.834019,-0.413551,0.565002,-0.068348,-6.819780,43.360130,1.023093,-1879.000000,4063.000000,70.000000,133.913440,-84.147316,-145.261922,0.501766,-0.454239,-0.573611,0.461377,1232.327148,87283.742188,0.112999,1.532349,1.362427,1.453125,25.125000,27.152641,1,202
101,408131,408031,0,0,0.825682,-0.572663,9.844074,0.438576,-0.085189,0.071097,-6.709784,43.423061,1.417714,-1861.000000,4074.000000,97.000000,134.959511,-84.136087,-143.960539,0.500607,-0.456164,-0.572721,0.461841,1232.285522,87283.320312,0.101550,1.532349,1.320801,1.398390,25.000000,27.166662,1,202
101,408298,408111,0,0,0.824098,-0.585672,9.847809,0.341784,-0.287039,0.053801,-6.825890,43.383015,2.002338,-1880.000000,4067.000000,137.000000,134.959511,-84.136087,-143.960539,0.500607,-0.456164,-0.572721,0.461841,1232.251953,87283.093750,0.009750,1.532349,1.287231,1.415192,25.000000,27.147968,1,202
101,408462,408379,0,0,0.829296,-0.584619,9.841063,0.086988,-0.140681,0.619583,-6.746449,43.451668,3.010816,-1867.000000,4079.000000,206.000000,133.798092,-84.057847,-145.180124,0.500408,-0.455079,-0.573348,0.462348,1232.193237,87283.875000,-0.130682,1.532349,1.228516,1.271085,25.000000,27.138620,1,202
101,408685,408456,0,0,0.818720,-0.568872,9.844981,0.258525,-0.054167,0.074787,-6.685339,43.526043,1.783104,-1857.000000,4092.000000,122.000000,133.798092,-84.057847,-145.180124,0.500408,-0.455079,-0.573348,0.462348,1232.214355,87282.132812,-0.174440,1.532349,1.249634,1.261124,25.000000,27.166662,1,202
101,408851,408640,0,0,0.826755,-0.588672,9.829245,-0.561622,-0.212789,-0.365515,-6.862555,43.543201,3.361590,-1886.000000,4095.000000,230.000000,134.576897,-84.104812,-144.548072,0.501253,-0.454876,-0.573700,0.461196,1232.154907,87284.765625,-0.208383,1.532349,1.190186,1.195396,25.000000,27.138620,1,202
101,409015,408915,0,0,0.834806,-0.559527,9.836283,0.050458,0.087151,1.185476,-6.832000,43.520321,2.280035,-1881.000000,4091.000000,156.000000,134.576897,-84.104812,-144.548072,0.501253,-0.454876,-0.573700,0.461196,1232.189697,87282.726562,-0.165100,1.532349,1.224976,1.153199,25.000000,27.166662,1,202
101,409186,408995,0,0,0.821383,-0.582740,9.834534,-0.138676,-0.264391,0.528255,-6.770893,43.503162,2.206957,-1871.000000,4088.000000,151.000000,134.261589,-84.153026,-144.645730,0.500701,-0.455802,-0.572533,0.462329,1232.173218,87283.507812,-0.117929,1.532349,1.208496,1.207692,25.000000,27.157316,1,202
101,409356,409265,0,0,0.831172,-0.583568,9.841133,-0.851618,0.272381,0.471213,-6.740338,43.325802,1.841567,-1866.000000,4057.000000,126.000000,134.261589,-84.153026,-144.645730,0.500701,-0.455802,-0.572533,0.462329,1232.236816,87281.914062,0.012158,1.532349,1.272095,1.180784,25.000000,27.147968,1,202
101,409529,409344,0,0,0.818172,-0.581778,9.833660,-0.561403,0.008226,-0.142336,-6.819780,43.485996,2.192341,-1879.000000,4085.000000,150.000000,134.387578,-84.170812,-144.584518,0.501069,-0.455571,-0.572693,0.461961,1232.311646,87279.765625,0.081756,1.532349,1.346924,1.338339,25.000000,27.166662,1,202
101,409704,409481,0,0,0.822855,-0.580332,9.838101,-0.826400,0.046903,-0.121317,-6.978663,43.577530,2.733119,-1905.000000,4101.000000,187.000000,134.387578,-84.170812,-144.584518,0.501069,-0.455571,-0.572693,0.461961,1232.378906,87279.242188,0.159719,1.532349,1.414185,1.346240,25.000000,27.147968,1,202
101,409875,409775,0,0,0.829891,-0.577992,9.837728,-0.669463,0.237334,0.944433,-6.483680,43.445946,2.528500,-1824.000000,4078.000000,173.000000,133.439070,-84.130527,-145.144033,-0.499297,0.456886,0.571325,-0.464269,1232.373047,87279.750000,0.208543,1.532349,1.408325,1.404003,25.000000,27.190031,1,202
101,410106,409855,0,0,0.817687,-0.599281,9.838107,-0.130768,0.233559,0.455943,-6.734228,43.394459,1.914645,-1865.000000,4069.000000,131.000000,133.439070,-84.130527,-145.144033,-0.499297,0.456886,0.571325,-0.464269,1232.359009,87281.468750,0.203891,1.532349,1.394287,1.439583,25.000000,27.185358,1,202
101,410307,410178,0,0,0.810121,-0.596138,9.834731,-0.222835,0.099636,0.123410,-6.703673,43.400177,2.075417,-1860.000000,4070.000000,142.000000,134.449979,-84.088638,-144.182643,-0.499170,0.457244,0.571829,-0.463430,1232.338379,87281.046875,0.060164,1.532349,1.373657,1.379232,25.000000,27.199379,1,202
101,410482,410391,0,0,0.820334,-0.583129,9.830568,1.368879,0.456051,0.355649,-6.715894,43.239986,1.739258,-1862.000000,4042.000000,119.000000,134.252573,-84.154310,-144.593138,0.500461,-0.456105,-0.572280,0.462604,1232.413208,87279.171875,0.076674,1.532349,1.448486,1.443370,25.000000,27.166662,1,202
101,410660,410471,0,0,0.809267,-0.600821,9.829883,0.484152,-0.122958,0.397231,-6.722004,43.348686,1.812336,-1863.000000,4061.000000,124.000000,134.252573,-84.154310,-144.593138,0.500461,-0.456105,-0.572280,0.462604,1232.371948,87282.007812,0.072919,1.532349,1.407227,1.454990,25.125000,27.180683,1,202
101,410841,410746,0,0,0.799841,-0.616189,9.826223,-0.366937,-0.047127,-0.477986,-6.783113,43.348686,1.943876,-1873.000000,4061.000000,133.000000,136.532408,-84.133293,-142.389732,0.500534,-0.457143,-0.572810,0.460841,1232.430786,87280.242188,0.161934,1.532349,1.466064,1.464660,25.125000,27.157316,1,202
101,411022,410826,0,0,0.813014,-0.589747,9.834149,0.134311,0.204619,0.550473,-6.770893,43.331524,1.943876,-1871.000000,4058.000000,133.000000,136.532408,-84.133293,-142.389732,0.500534,-0.457143,-0.572810,0.460841,1232.359131,87282.898438,0.140842,1.532349,1.394409,1.485778,25.125000,27.180683,1,202
101,411221,411101,0,0,0.838244,-0.577982,9.836886,0.671947,0.067465,0.078084,-6.795335,43.594696,1.622333,-1875.000000,4104.000000,111.000000,133.451965,-84.090496,-145.413184,0.500182,-0.455452,-0.572684,0.463048,1232.329956,87282.726562,0.026191,1.532349,1.365234,1.371387,25.125000,27.166662,1,202
101,411405,411320,0,0,0.847068,-0.586359,9.830003,0.048854,0.170139,-0.307606,-6.618119,43.348686,2.557732,-1846.000000,4061.000000,175.000000,133.451965,-84.090496,-145.413184,0.500182,-0.455452,-0.572684,0.463048,1232.289429,87282.429688,-0.132924,1.532349,1.324707,1.380345,25.125000,27.166662,1,202
101,411697,411399,0,0,0.838087,-0.593010,9.831435,-0.202391,0.450956,-0.878439,-6.777003,43.331524,2.163110,-1872.000000,4058.000000,148.000000,134.226891,-84.038368,-144.717679,0.500122,-0.455506,-0.573356,0.462229,1232.308838,87281.171875,-0.149216,1.532349,1.344116,1.345759,25.125000,27.185358,1,202
101,411850,411767,0,0,0.815793,-0.568728,9.842131,-0.045560,-0.012223,-0.089826,-6.624229,43.360130,2.703888,-1847.000000,4063.000000,185.000000,134.226891,-84.038368,-144.717679,0.500122,-0.455506,-0.573356,0.462229,1232.302612,87280.242188,-0.148696,1.532349,1.337891,1.319427,25.000000,27.157316,1,202
101,412005,411845,0,0,0.825271,-0.560472,9.836187,0.847687,-0.097664,-0.208106,-6.874777,43.280037,2.119263,-1888.000000,4049.000000,145.000000,133.265296,-84.208801,-145.818187,0.501829,-0.454346,-0.572842,0.462157,1232.252686,87283.492188,-0.125046,1.532349,1.287964,1.291532,25.000000,27.180683,1,202
101,412161,411975,0,0,0.830942,-0.561022,9.837341,0.801198,0.215093,0.428062,-6.868667,43.423061,1.140018,-1887.000000,4074.000000,78.000000,133.265296,-84.208801,-145.818187,0.501829,-0.454346,-0.572842,0.462157,1232.254150,87282.195312,-0.086622,1.532349,1.289429,1.275409,25.000000,27.171337,1,202
101,412317,412233,0,0,0.817574,-0.587820,9.833113,-0.280637,-0.562227,0.332993,-7.198656,43.428780,2.382344,-1941.000000,4075.000000,163.000000,135.200781,-84.153033,-144.284591,0.502975,-0.453497,-0.574877,0.459209,1232.402710,87278.523438,0.120445,1.532349,1.437988,1.428917,25.000000,27.161989,1,202
101,412478,412316,0,0,0.817627,-0.590623,9.831456,0.134565,0.171430,0.243457,-6.783113,43.199944,2.206957,-1873.000000,4035.000000,151.000000,135.200781,-84.153033,-144.284591,0.502975,-0.453497,-0.574877,0.459209,1232.388184,87281.171875,0.164467,1.532349,1.423462,1.441377,25.000000,27.185358,1,202
101,412641,412448,0,0,0.822994,-0.571581,9.837238,-0.033119,0.290694,-0.102994,-6.593675,43.297199,2.177726,-1842.000000,4052.000000,149.000000,135.200781,-84.153033,-144.284591,0.502975,-0.453497,-0.574877,0.459209,1232.431396,87279.281250,0.243510,1.532349,1.466675,1.453416,25.000000,27.176010,1,202
101,412804,412710,0,0,0.829591,-0.568535,9.839058,0.486487,0.202364,-0.308693,-6.807558,43.463108,2.733119,-1877.000000,4081.000000,187.000000,132.893174,-84.175893,-145.687389,-0.499612,0.456596,0.571011,-0.464601,1232.371948,87280.710938,0.249426,1.532349,1.407227,1.417442,25.000000,27.171337,1,202
101,413023,412789,0,0,0.821535,-0.571414,9.837291,0.528770,0.101726,0.418394,-6.795335,43.537483,1.973107,-1875.000000,4094.000000,135.000000,132.893174,-84.175893,-145.687389,-0.499612,0.456596,0.571011,-0.464601,1232.363281,87281.289062,0.158964,1.532349,1.398560,1.460842,25.000000,27.194704,1,202
101,413196,412969,0,0,0.829619,-0.571874,9.838280,0.982387,0.271492,1.786702,-6.832000,43.428780,2.630810,-1881.000000,4075.000000,180.000000,133.623786,-84.152227,-145.420683,0.501288,-0.454716,-0.573044,0.462130,1232.283325,87283.914062,0.062054,1.532349,1.318604,1.323485,25.125000,27.166662,1,202
101,413358,413258,0,0,0.814688,-0.593328,9.830048,0.169936,0.061691,-0.071968,-6.825890,43.480274,2.630810,-1880.000000,4084.000000,180.000000,133.623786,-84.152227,-145.420683,0.501288,-0.454716,-0.573044,0.462130,1232.356689,87281.289062,0.067566,1.532349,1.391968,1.343100,25.125000,27.194704,1,202
101,413526,413338,0,0,0.815045,-0.589348,9.838031,0.384243,0.649142,0.195457,-6.667007,43.480274,2.280035,-1854.000000,4084.000000,156.000000,134.654229,-84.162615,-144.129764,0.500243,-0.456671,-0.572007,0.462619,1232.377319,87280.414062,0.083923,1.532349,1.412598,1.407131,25.125000,27.171337,1,202
101,413695,413607,0,0,0.818324,-0.583789,9.844071,0.199333,0.078931,-0.451539,-6.789225,43.485996,2.031570,-1874.000000,4085.000000,139.000000,134.654229,-84.162615,-144.129764,0.500243,-0.456671,-0.572007,0.462619,1232.352051,87281.304688,0.127400,1.532349,1.387329,1.425058,25.125000,27.171337,1,202
101,413870,413686,0,0,0.811895,-0.567412,9.837681,-0.622106,-0.020756,0.356741,-6.746449,43.291477,1.973107,-1867.000000,4051.000000,135.000000,133.848799,-84.250479,-145.051320,0.501317,-0.455658,-0.571906,0.462580,1232.322754,87282.234375,0.067868,1.532349,1.358032,1.361060,25.125000,27.199379,1,202
101,414043,413957,0,0,0.817657,-0.584964,9.837042,-0.383441,0.213300,0.516960,-6.868667,43.268593,1.096171,-1887.000000,4047.000000,75.000000,133.848799,-84.250479,-145.051320,0.501317,-0.455658,-0.571906,0.462580,1232.410156,87278.507812,0.071256,1.532349,1.445435,1.376036,25.125000,27.185358,1,202
101,414215,414036,0,0,0.831081,-0.580582,9.834559,-0.138959,0.544229,0.223450,-6.789225,43.245708,1.958492,-1874.000000,4043.000000,134.000000,133.898386,-84.114483,-145.062372,0.500693,-0.455276,-0.572952,0.462338,1232.405273,87280.750000,0.107704,1.532349,1.440552,1.435648,25.125000,27.199379,1,202
101,414447,414170,0,0,0.820871,-0.578258,9.837562,-0.178411,0.204286,-0.228628,-6.789225,43.154171,2.323882,-1874.000000,4027.000000,159.000000,133.898386,-84.114483,-145.062372,0.500693,-0.455276,-0.572952,0.462338,1232.389893,87281.171875,0.129734,1.532349,1.425171,1.454596,25.125000,27.185358,1,202
101,414620,414520,0,0,0.822372,-0.585072,9.829487,0.049912,0.562201,-0.113035,-6.819780,43.320084,2.396960,-1879.000000,4056.000000,164.000000,133.816315,-84.113138,-144.990532,0.500068,-0.455993,-0.572342,0.463063,1232.415283,87279.492188,0.191839,1.532349,1.450562,1.424742,25.125000,27.218073,1,202
101,414797,414599,0,0,0.826639,-0.585156,9.829964,1.137811,0.356654,0.774464,-6.899221,43.257149,2.353113,-1892.000000,4045.000000,161.000000,133.816315,-84.113138,-144.990532,0.500068,-0.455993,-0.572342,0.463063,1232.402588,87280.976562,0.138629,1.532349,1.437866,1.444196,25.125000,27.218073,1,202
101,414973,414873,0,0,0.818297,-0.591365,9.830110,-0.555576,0.184032,0.138747,-6.813668,43.199944,3.083894,-1878.000000,4035.000000,211.000000,134.916617,-84.148265,-144.025863,0.500778,-0.456034,-0.572736,0.461766,1232.459961,87279.453125,0.137789,1.532349,1.495239,1.478342,25.125000,27.190031,1,202
101,415153,414953,0,0,0.829051,-0.584319,9.839872,0.245205,-0.059296,-0.833403,-6.709784,43.171333,2.323882,-1861.000000,4030.000000,159.000000,134.916617,-84.148265,-144.025863,0.500778,-0.456034,-0.572736,0.461766,1232.498657,87278.671875,0.178436,1.533936,1.533936,1.495451,25.125000,27.199379,1,202
101,415331,415231,0,0,0.835245,-0.573133,9.836459,-0.154475,0.268109,-0.235656,-6.770893,43.228546,2.046185,-1871.000000,4040.000000,140.000000,134.011194,-84.041147,-144.472626,-0.498290,0.457672,0.571491,-0.464373,1232.413818,87281.531250,0.106803,1.533936,1.449097,1.500751,25.125000,27.190031,1,202
101,415514,415310,0,0,0.823938,-0.575115,9.834486,-0.623997,0.138540,0.476195,-6.746449,43.274315,2.396960,-1867.000000,4048.000000,164.000000,134.011194,-84.041147,-144.472626,-0.498290,0.457672,0.571491,-0.464373,1232.431274,87279.921875,0.066037,1.533936,1.466553,1.521325,25.125000,27.204052,1,202
101,415694,415594,0,0,0.820235,-0.594781,9.841959,-0.292861,0.007512,0.520021,-6.673118,43.297199,1.680795,-1855.000000,4052.000000,115.000000,133.956416,-84.193939,-144.410457,-0.498793,0.458337,0.570119,-0.464862,1232.520264,87277.398438,0.033753,1.555542,1.555542,1.479710,25.000000,27.241440,1,202
101,415932,415673,0,0,0.827714,-0.587564,9.841604,-0.508281,0.205629,0.091063,-6.593675,43.268593,1.373867,-1842.000000,4023.000000,88.000000,133.956416,-84.193939,-144.410457,-0.498793,0.458337,0.570119,-0.464862,1232.531128,87279.015625,0.067679,1.566406,1.566406,1.487042,25.000000,27.227419,1,202
101,416160,416060,0,0,0.832913,-0.577321,9.833779,0.091148,0.208722,0.359403,-6.850334,43.423061,2.440807,-1884.000000,4074.000000,167.000000,133.463167,-84.165996,-144.883066,-0.498561,0.458110,0.570172,-0.465270,1232.490356,87279.421875,0.075857,1.566406,1.525635,1.521901,25.000000,27.236767,1,202
101,416314,416139,0,0,0.834749,-0.582528,9.847353,-0.138432,0.315554,-0.649282,-6.715894,43.325802,2.250804,-1862.000000,4057.000000,154.000000,133.463167,-84.165996,-144.883066,-0.498561,0.458110,0.570172,-0.465270,1232.456543,87280.921875,0.051365,1.566406,1.491821,1.530996,25.000000,27.213398,1,202
101,416470,416268,0,0,0.819245,-0.575410,9.844843,-0.906302,-0.093328,0.054735,-6.709784,43.302921,1.505408,-1861.000000,4053.000000,103.000000,133.887485,-84.193508,-144.917080,0.500566,-0.456113,-0.571864,0.462997,1232.377441,87282.882812,-0.063128,1.566406,1.412720,1.418767,25.000000,27.204052,1,202
101,416628,416529,0,0,0.826073,-0.576308,9.834122,-0.785519,-0.268857,0.396808,-6.520345,43.205662,1.768489,-1830.000000,4036.000000,121.000000,133.887485,-84.193508,-144.917080,0.500566,-0.456113,-0.571864,0.462997,1232.434814,87279.179688,-0.099642,1.566406,1.470093,1.408831,25.000000,27.241440,1,202
101,416787,416607,0,0,0.831081,-0.578792,9.839253,-0.339907,0.148354,0.019918,-6.709784,43.342968,2.148495,-1861.000000,4060.000000,147.000000,133.711991,-84.123171,-145.145399,0.500342,-0.455683,-0.572478,0.462904,1232.424805,87280.664062,-0.084361,1.566406,1.460083,1.457534,25.000000,27.241440,1,202
101,416947,416739,0,0,0.833291,-0.583575,9.836640,0.265471,0.141921,-1.024574,-6.550899,43.268593,1.973107,-1835.000000,4047.000000,135.000000,133.711991,-84.123171,-145.145399,0.500342,-0.455683,-0.572478,0.462904,1232.418945,87280.625000,-0.059051,1.566406,1.454224,1.447125,25.000000,27.213398,1,202
101,417107,417008,0,0,0.807648,-0.580444,9.840442,0.221457,-0.196071,-0.626798,-6.813668,43.188499,1.695411,-1878.000000,4033.000000,116.000000,134.683325,-84.228616,-144.295765,0.501450,-0.455762,-0.572396,0.461727,1232.443115,87280.851562,0.096011,1.566406,1.478394,1.477108,25.000000,27.232094,1,202
101,417328,417087,0,0,0.820909,-0.583565,9.844896,0.628710,0.084738,0.415250,-7.051994,43.234264,1.914645,-1917.000000,4041.000000,131.000000,134.683325,-84.228616,-144.295765,0.501450,-0.455762,-0.572396,0.461727,1232.356689,87283.289062,0.061567,1.566406,1.391968,1.490774,25.000000,27.213398,1,202
101,417488,417398,0,0,0.826616,-0.566728,9.847757,0.220139,0.277825,0.186913,-7.137546,43.543201,2.002338,-1931.000000,4095.000000,137.000000,133.957713,-84.155505,-144.850690,0.500335,-0.456107,-0.572108,0.462951,1232.390137,87279.859375,0.063066,1.566406,1.425415,1.399678,25.000000,27.199379,1,202
101,417648,417477,0,0,0.825792,-0.563606,9.840407,0.031861,0.107274,-0.540380,-6.764781,43.348686,1.256942,-1870.000000,4061.000000,86.000000,133.957713,-84.155505,-144.850690,0.500335,-0.456107,-0.572108,0.462951,1232.458374,87278.367188,0.068558,1.566406,1.493652,1.405707,25.000000,27.222746,1,202
101,417817,417607,0,0,0.798889,-0.582349,9.842556,0.378710,0.421843,-0.338145,-6.966443,43.566090,1.052324,-1903.000000,4099.000000,72.000000,135.127943,-84.264297,-143.909859,0.501892,-0.455768,-0.572441,0.461185,1232.407471,87281.867188,0.059285,1.566406,1.442749,1.439875,25.000000,27.218073,1,202
101,417979,417879,0,0,0.823887,-0.579839,9.838787,0.576019,-0.084572,-0.265084,-6.789225,43.405899,1.432330,-1874.000000,4071.000000,98.000000,135.127943,-84.264297,-143.909859,0.501892,-0.455768,-0.572441,0.461185,1232.431396,87281.484375,0.177027,1.566406,1.466675,1.452259,25.000000,27.260136,1,202
101,418143,417958,0,0,0.827901,-0.589137,9.839944,0.244585,0.032736,0.053780,-6.648674,43.302921,2.382344,-1851.000000,4053.000000,163.000000,134.242696,-84.104252,-144.564260,-0.499986,0.456254,0.572421,-0.462796,1232.444458,87279.890625,0.170094,1.566406,1.479736,1.477278,25.000000,27.250788,1,202
101,418317,418089,0,0,0.810224,-0.588898,9.847582,0.534815,0.524241,0.523718,-6.453124,43.159893,1.505408,-1819.000000,4028.000000,103.000000,134.242696,-84.104252,-144.564260,-0.499986,0.456254,0.572421,-0.462796,1232.478027,87279.015625,0.146576,1.566406,1.513306,1.498790,25.125000,27.227419,1,202
101,418488,418388,0,0,0.821464,-0.574565,9.843370,-0.014588,-0.393750,0.442435,-6.807558,43.394459,2.046185,-1877.000000,4069.000000,140.000000,133.933740,-84.184971,-145.029491,0.501150,-0.455343,-0.572548,0.462278,1232.377197,87280.773438,-0.020139,1.566406,1.412476,1.416477,25.125000,27.250788,1,202
101,418713,418468,0,0,0.814250,-0.580389,9.839901,-0.074447,-0.169396,-0.366308,-6.691450,43.417343,2.221573,-1858.000000,4073.000000,152.000000,133.933740,-84.184971,-145.029491,0.501150,-0.455343,-0.572548,0.462278,1232.448120,87278.406250,-0.032521,1.566406,1.483398,1.416601,25.125000,27.250788,1,202
101,418885,418785,0,0,0.808135,-0.580864,9.841950,-0.681428,-0.114028,-0.131237,-6.569232,43.371574,1.446945,-1862.000000,4075.000000,91.000000,133.835767,-84.113015,-144.775832,-0.499276,0.456979,0.571567,-0.463902,1232.533203,87279.164062,0.056366,1.568481,1.568481,1.552998,25.125000,27.264809,1,202
101,419057,418865,0,0,0.805001,-0.577333,9.838665,0.051927,0.669915,0.244329,-6.587565,43.588974,1.812336,-1841.000000,4103.000000,124.000000,133.835767,-84.113015,-144.775832,-0.499276,0.456979,0.571567,-0.463902,1232.487549,87280.890625,0.125794,1.568481,1.522827,1.556101,25.125000,27.260136,1,202
101,419229,418999,0,0,0.819711,-0.573044,9.848819,-0.529605,-0.976552,0.112606,-6.728116,43.423061,0.993861,-1864.000000,4074.000000,97.000000,133.712291,-84.201459,-145.043343,0.500430,-0.456255,-0.571612,0.463316,1232.473389,87280.257812,0.161851,1.568481,1.508667,1.511263,25.125000,27.232094,1,202
101,419399,419299,0,0,0.807465,-0.579264,9.835442,0.334818,0.356460,0.464397,-6.929774,43.423061,1.446945,-1897.000000,4074.000000,99.000000,133.712291,-84.201459,-145.043343,0.500430,-0.456255,-0.571612,0.463316,1232.494873,87279.757812,0.110745,1.568481,1.530151,1.547700,25.125000,27.264809,1,202
101,419578,419388,0,0,0.813989,-0.566458,9.835396,-0.186673,0.272714,0.009432,-6.722004,43.434505,1.403099,-1863.000000,4076.000000,96.000000,133.620070,-84.242392,-145.165781,0.500818,-0.456080,-0.571485,0.463224,1232.435547,87281.781250,0.033752,1.568481,1.470825,1.473311,25.125000,27.260136,1,202
101,419757,419526,0,0,0.817864,-0.570690,9.836091,0.241371,-0.012183,0.293366,-6.679229,43.451668,1.417714,-1856.000000,4079.000000,97.000000,133.620070,-84.242392,-145.165781,0.500818,-0.456080,-0.571485,0.463224,1232.368286,87282.687500,-0.031539,1.568481,1.403564,1.479686,25.125000,27.236767,1,202
101,419933,419833,0,0,0.813125,-0.568163,9.838813,-0.139952,-0.424083,0.906215,-6.844223,43.468830,1.768489,-1883.000000,4082.000000,121.000000,133.913427,-84.242843,-145.056470,0.501546,-0.455343,-0.572232,0.462238,1232.447510,87279.648438,-0.031555,1.568481,1.482788,1.482204,25.125000,27.255461,1,202
101,420168,419913,0,0,0.810032,-0.583514,9.841774,0.877476,0.257308,1.023841,-6.563120,43.394459,1.505408,-1837.000000,4069.000000,103.000000,133.913427,-84.242843,-145.056470,0.501546,-0.455343,-0.572232,0.462238,1232.452515,87280.000000,-0.028060,1.568481,1.487793,1.478067,25.125000,27.260136,1,202
101,420347,420247,0,0,0.821063,-0.592095,9.836802,-0.397336,-0.009998,-0.620864,-7.058105,43.445946,2.075417,-1918.000000,4078.000000,142.000000,134.407140,-84.181829,-144.107402,-0.499289,0.457874,0.570806,-0.463942,1232.597168,87275.609375,0.177896,1.632446,1.632446,1.511495,25.125000,27.264809,1,202
101,420579,420336,0,0,0.804639,-0.587263,9.834690,-0.055966,0.566110,-1.445819,-6.648674,43.199944,1.943876,-1851.000000,4035.000000,133.000000,134.407140,-84.181829,-144.107402,-0.499289,0.457874,0.570806,-0.463942,1232.547363,87280.351562,0.230072,1.632446,1.582642,1.514736,25.125000,27.264809,1,202
101,420731,420650,0,0,0.789934,-0.562943,9.836550,-0.483567,0.452744,-0.815789,-6.697560,43.491718,1.096171,-1859.000000,4086.000000,75.000000,133.572108,-84.248143,-145.191968,0.500770,-0.456164,-0.571361,0.463347,1232.424683,87282.328125,0.153519,1.632446,1.459961,1.551375,25.250000,27.232094,1,202
101,420886,420729,0,0,0.815898,-0.573269,9.840691,-0.459533,0.185385,0.934498,-6.917554,43.234264,1.578486,-1895.000000,4041.000000,108.000000,133.572108,-84.248143,-145.191968,0.500770,-0.456164,-0.571361,0.463347,1232.376343,87282.132812,0.052912,1.632446,1.411621,1.577206,25.250000,27.264809,1,202
101,421051,420856,0,0,0.819042,-0.575963,9.836059,-0.122479,0.477748,1.327989,-6.612008,43.394459,2.060801,-1845.000000,4069.000000,141.000000,133.828473,-84.187484,-144.884541,0.500161,-0.456528,-0.571531,0.463436,1232.399170,87280.125000,-0.088447,1.632446,1.434448,1.440647,25.250000,27.246115,1,202
101,421209,421111,0,0,0.805588,-0.593232,9.836815,0.342235,0.436247,1.685338,-6.746449,43.388737,1.695411,-1867.000000,4068.000000,116.000000,133.828473,-84.187484,-144.884541,0.500161,-0.456528,-0.571531,0.463436,1232.332397,87280.578125,-0.332374,1.632446,1.367676,1.429708,25.250000,27.283503,1,202
101,421372,421190,0,0,0.788788,-0.601228,9.832364,-0.247682,0.043713,0.833736,-6.642563,43.388737,2.104648,-1850.000000,4068.000000,144.000000,136.066234,-84.240015,-142.684701,0.500542,-0.457764,-0.571480,0.461866,1232.395874,87279.148438,-0.277316,1.632446,1.431152,1.431738,25.250000,27.288176,1,202
101,421585,421501,0,0,0.818071,-0.587311,9.836948,0.664229,0.146297,-0.710608,-6.373683,43.199944,2.265419,-1806.000000,4035.000000,155.000000,136.066234,-84.240015,-142.684701,0.500542,-0.457764,-0.571480,0.461866,1232.437012,87279.609375,-0.145338,1.632446,1.472290,1.367407,25.250000,27.227419,1,202
101,421762,421579,0,0,0.817473,-0.568670,9.845469,0.324028,-0.200503,-0.127731,-6.783113,43.348686,1.578486,-1873.000000,4061.000000,108.000000,133.722209,-84.224490,-145.175835,0.501151,-0.455569,-0.572043,0.462678,1232.436768,87280.296875,-0.008273,1.632446,1.472046,1.469558,25.250000,27.260136,1,202
101,421926,421842,0,0,0.827064,-0.579415,9.841600,0.531278,0.055956,1.406834,-6.630341,43.405899,0.979246,-1848.000000,4071.000000,67.000000,133.722209,-84.224490,-145.175835,0.501151,-0.455569,-0.572043,0.462678,1232.452393,87279.773438,0.085144,1.632446,1.487671,1.461773,25.250000,27.241440,1,202
101,422090,421921,0,0,0.815728,-0.589918,9.826509,0.415739,0.787562,2.392569,-6.789225,43.451668,1.432330,-1874.000000,4079.000000,98.000000,134.740112,-84.150683,-144.126322,0.500495,-0.456305,-0.572410,0.462209,1232.497803,87278.515625,0.122396,1.632446,1.533081,1.529161,25.250000,27.260136,1,202
101,422255,422054,0,0,0.806168,-0.602152,9.832311,0.493874,0.248232,1.958531,-6.832000,43.365852,1.753873,-1881.000000,4064.000000,120.000000,134.740112,-84.150683,-144.126322,0.500495,-0.456305,-0.572410,0.462209,1232.439209,87281.718750,0.093201,1.632446,1.474487,1.543055,25.250000,27.255461,1,202
101,422421,422321,0,0,0.825532,-0.582267,9.847232,-0.122012,0.247250,-0.521019,-6.697560,43.485996,1.023093,-1859.000000,4085.000000,70.000000,133.900299,-84.142576,-144.803767,-0.499835,0.456582,0.571765,-0.463447,1232.395996,87279.742188,-0.042056,1.632446,1.431274,1.437333,25.250000,27.288176,1,202
101,422591,422401,0,0,0.827082,-0.568166,9.845009,0.869186,-0.048876,-0.785231,-6.832000,43.451668,1.593101,-1881.000000,4079.000000,109.000000,133.900299,-84.142576,-144.803767,-0.499835,0.456582,0.571765,-0.463447,1232.448975,87278.851562,-0.054620,1.632446,1.484253,1.433983,25.250000,27.288176,1,202
101,422762,422670,0,0,0.802131,-0.564373,9.837620,0.846097,0.268534,0.663702,-6.777003,43.394459,2.119263,-1872.000000,4069.000000,145.000000,134.062202,-84.306596,-144.870074,0.501792,-0.455672,-0.571715,0.462287,1232.338745,87282.906250,-0.179801,1.632446,1.374023,1.377943,25.250000,27.255461,1,202
101,422989,422748,0,0,0.811681,-0.590148,9.836758,0.048745,-0.666289,1.438162,-7.027550,43.268593,1.666180,-1913.000000,4047.000000,114.000000,134.062202,-84.306596,-144.870074,0.501792,-0.455672,-0.571715,0.462287,1232.389893,87279.515625,-0.132219,1.632446,1.425171,1.348006,25.250000,27.269482,1,202
101,423157,423062,0,0,0.813336,-0.588262,9.838032,0.158542,0.074022,-0.399683,-6.905332,43.257149,2.104648,-1889.000000,4086.000000,144.000000,134.880513,-84.123253,-143.810275,-0.499604,0.457251,0.571879,-0.462894,1232.401489,87279.890625,-0.146779,1.632446,1.436768,1.391186,25.250000,27.250788,1,202
101,423331,423141,0,0,0.812115,-0.583489,9.835565,0.367152,0.316161,-0.636034,-6.838112,43.371574,1.914645,-1882.000000,4065.000000,131.000000,134.880513,-84.123253,-143.810275,-0.499604,0.457251,0.571879,-0.462894,1232.425659,87279.812500,-0.113843,1.632446,1.460938,1.371428,25.125000,27.269482,1,202
101,423508,423415,0,0,0.827067,-0.572019,9.836072,0.500294,-0.374195,0.279437,-6.911444,43.520321,2.016954,-1894.000000,4091.000000,138.000000,134.057257,-84.188905,-144.705972,0.500360,-0.456421,-0.571737,0.463073,1232.415283,87279.406250,0.001770,1.632446,1.450562,1.399952,25.125000,27.260136,1,202
101,423681,423496,0,0,0.826735,-0.574276,9.833458,0.278266,-0.382286,0.468364,-6.563120,43.388737,1.286174,-1837.000000,4068.000000,88.000000,134.057257,-84.188905,-144.705972,0.500360,-0.456421,-0.571737,0.463073,1232.390259,87281.406250,0.043404,1.632446,1.425537,1.390375,25.125000,27.278830,1,202
101,423857,423631,0,0,0.808966,-0.603817,9.833889,0.153550,-0.089050,1.302654,-6.636453,43.302921,1.695411,-1849.000000,4053.000000,116.000000,135.460191,-84.139017,-143.262070,-0.499805,0.457469,0.571939,-0.462388,1232.455811,87278.460938,0.077405,1.632446,1.491089,1.485828,25.125000,27.255461,1,202
101,424033,423933,0,0,0.821402,-0.589704,9.837349,-0.907009,-0.624635,0.566032,-6.758671,43.537483,1.636948,-1869.000000,4094.000000,112.000000,135.460191,-84.139017,-143.262070,-0.499805,0.457469,0.571939,-0.462388,1232.444824,87280.742188,0.124455,1.632446,1.480103,1.500660,25.125000,27.297523,1,202
101,424214,424012,0,0,0.822208,-0.583719,9.843462,-1.018952,-0.004524,0.092903,-6.599786,43.308640,1.929260,-1843.000000,4054.000000,132.000000,134.072911,-84.151154,-144.627480,-0.499864,0.456715,0.571710,-0.463352,1232.416016,87281.226562,0.088040,1.632446,1.451294,1.453420,25.125000,27.288176,1,202
101,424444,424344,0,0,0.802551,-0.580215,9.838605,-0.562545,-0.073554,0.485012,-6.697560,43.234264,1.344636,-1859.000000,4041.000000,92.000000,134.072911,-84.151154,-144.627480,-0.499864,0.456715,0.571710,-0.463352,1232.371338,87280.265625,-0.071068,1.632446,1.406616,1.476544,25.125000,27.306871,1,202
101,424639,424424,0,0,0.799287,-0.576230,9.830673,-0.149964,0.244544,-0.503930,-6.752559,43.474552,1.227711,-1868.000000,4083.000000,84.000000,134.588427,-84.276270,-144.211002,0.501034,-0.456634,-0.571394,0.462557,1232.374512,87280.875000,-0.132009,1.632446,1.409790,1.412465,25.250000,27.283503,1,202
101,424817,424718,0,0,0.809585,-0.572224,9.836947,0.157065,-0.164618,1.124994,-6.581454,43.285755,1.066940,-1840.000000,4050.000000,73.000000,134.588427,-84.276270,-144.211002,0.501034,-0.456634,-0.571394,0.462557,1232.408203,87278.726562,-0.182506,1.632446,1.443481,1.387658,25.250000,27.302197,1,202
101,425044,424797,0,0,0.800691,-0.597752,9.837063,-0.477555,-0.791107,0.956170,-6.862555,43.548923,1.797720,-1886.000000,4096.000000,123.000000,135.716446,-84.200038,-143.257016,0.501196,-0.456413,-0.572590,0.461118,1232.430786,87279.796875,-0.095257,1.632446,1.466064,1.462793,25.250000,27.292850,1,202
101,425198,425102,0,0,0.812296,-0.587412,9.840409,0.070842,-0.493673,-0.454513,-6.715894,43.405899,1.330020,-1862.000000,4071.000000,91.000000,135.716446,-84.200038,-143.257016,0.501196,-0.456413,-0.572590,0.461118,1232.517090,87278.835938,0.104514,1.632446,1.552368,1.443232,25.250000,27.311544,1,202
101,425356,425197,0,0,0.804533,-0.565269,9.832633,0.537382,0.378281,-0.194461,-6.605898,43.371574,1.710026,-1844.000000,4065.000000,117.000000,133.770676,-84.289418,-144.907927,0.500675,-0.456745,-0.570789,0.463581,1232.482300,87280.671875,0.193227,1.632446,1.517578,1.514206,25.250000,27.316217,1,202
101,425514,425329,0,0,0.809979,-0.576995,9.834553,0.120198,0.296351,-0.540287,-6.453124,43.526043,1.812336,-1819.000000,4092.000000,124.000000,133.770676,-84.289418,-144.907927,0.500675,-0.456745,-0.570789,0.463581,1232.418823,87282.062500,0.173937,1.632446,1.454102,1.534859,25.250000,27.283503,1,202
101,425672,425589,0,0,0.790424,-0.591529,9.833823,-0.491468,0.461280,-0.107246,-6.532566,43.560368,2.163110,-1832.000000,4065.000000,157.000000,135.393105,-84.267056,-143.189985,0.500064,-0.458201,-0.570623,0.463009,1232.496460,87278.984375,0.149827,1.632446,1.531738,1.530653,25.250000,27.274155,1,202
101,425885,425669,0,0,0.792418,-0.578817,9.841797,-0.453358,-0.336728,-0.033883,-6.575344,43.463108,1.607717,-1839.000000,4081.000000,110.000000,135.393105,-84.267056,-143.189985,0.500064,-0.458201,-0.570623,0.463009,1232.492554,87279.796875,0.105810,1.632446,1.527832,1.557159,25.125000,27.292850,1,202
101,426045,425874,0,0,0.818158,-0.578839,9.838821,0.181873,-0.376173,0.328224,-6.770893,43.440224,2.206957,-1871.000000,4077.000000,151.000000,134.199967,-84.183714,-144.720958,0.500955,-0.455719,-0.572403,0.462297,1232.397217,87283.078125,0.051856,1.632446,1.432495,1.441314,25.125000,27.269482,1,202
101,426207,426006,0,0,0.820629,-0.571679,9.838637,0.167358,0.389605,0.400967,-6.832000,43.388737,2.718503,-1881.000000,4068.000000,186.000000,134.199967,-84.183714,-144.720958,0.500955,-0.455719,-0.572403,0.462297,1232.456055,87278.625000,0.076955,1.632446,1.491333,1.450406,25.125000,27.269482,1,202
101,426367,426268,0,0,0.798673,-0.588164,9.841351,-0.380922,-0.080637,0.271080,-6.624229,43.434505,1.096171,-1847.000000,4076.000000,75.000000,134.997173,-84.244803,-143.631078,0.500122,-0.457718,-0.570917,0.463062,1232.421875,87279.539062,-0.042406,1.632446,1.457153,1.456172,25.125000,27.320890,1,202
101,426534,426347,0,0,0.798830,-0.590928,9.831396,0.203604,0.218492,0.657269,-6.673118,43.468830,2.323882,-1855.000000,4082.000000,159.000000,134.997173,-84.244803,-143.631078,0.500122,-0.457718,-0.570917,0.463062,1232.447510,87279.539062,-0.059978,1.632446,1.482788,1.452178,25.125000,27.320890,1,202
101,426699,426615,0,0,0.812432,-0.596204,9.836486,0.380469,0.733358,1.026469,-6.648674,43.394459,1.330020,-1851.000000,4069.000000,91.000000,134.959893,-84.150608,-143.726878,-0.499759,0.457339,0.571706,-0.462855,1232.452515,87280.929688,-0.042224,1.632446,1.487793,1.485835,25.125000,27.288176,1,202
101,426869,426695,0,0,0.806896,-0.597175,9.844114,-0.449841,0.158482,0.309650,-6.954219,43.463108,2.630810,-1901.000000,4081.000000,180.000000,134.959893,-84.150608,-143.726878,-0.499759,0.457339,0.571706,-0.462855,1232.383301,87282.578125,-0.030503,1.632446,1.418579,1.480320,25.125000,27.302197,1,202
101,427042,426833,0,0,0.795542,-0.580410,9.847315,-0.063173,0.372262,-0.146370,-6.801447,43.371574,1.432330,-1876.000000,4065.000000,98.000000,134.959893,-84.150608,-143.726878,-0.499759,0.457339,0.571706,-0.462855,1232.411743,87279.851562,-0.040425,1.632446,1.447021,1.474594,25.125000,27.297523,1,202
101,427264,427161,0,0,0.815488,-0.590998,9.839742,0.188461,-0.021186,0.323678,-6.660895,43.594696,1.330020,-1853.000000,4104.000000,91.000000,134.250387,-84.307887,-143.978421,-0.498943,0.459289,0.568909,-0.465243,1232.448975,87279.593750,-0.059904,1.632446,1.484253,1.456192,25.250000,27.325565,1,202
101,427434,427241,0,0,0.810438,-0.581080,9.845294,0.073629,0.745620,0.121030,-6.532566,43.537483,1.446945,-1832.000000,4094.000000,99.000000,134.250387,-84.307887,-143.978421,-0.498943,0.459289,0.568909,-0.465243,1232.501221,87278.312500,-0.012764,1.632446,1.536499,1.450075,25.250000,27.292850,1,202
101,427605,427374,0,0,0.811346,-0.583756,9.843516,-0.198377,-0.109576,-0.676359,-6.330906,43.571812,2.426191,-1799.000000,4100.000000,166.000000,134.084632,-84.201964,-144.265330,-0.498768,0.458507,0.570011,-0.464853,1232.539307,87278.257812,0.074626,1.632446,1.574585,1.567726,25.250000,27.288176,1,202
101,427773,427674,0,0,0.803360,-0.595932,9.835207,0.579454,1.142371,0.794500,-6.801447,43.554646,2.163110,-1876.000000,4097.000000,209.000000,134.084632,-84.201964,-144.265330,-0.498768,0.458507,0.570011,-0.464853,1232.505981,87280.132812,0.113665,1.632446,1.541260,1.582684,25.250000,27.320890,1,202
101,427951,427754,0,0,0.817200,-0.595983,9.838465,0.163582,0.185480,0.217842,-6.630341,43.428780,2.280035,-1848.000000,4075.000000,156.000000,134.849231,-84.130343,-143.896759,-0.499874,0.456961,0.572056,-0.462672,1232.503174,87279.648438,0.100608,1.632446,1.538452,1.540256,25.250000,27.330238,1,202
101,428126,428026,0,0,0.789469,-0.596184,9.828970,-1.253041,-0.292130,0.766797,-6.550899,43.640465,1.286174,-1835.000000,4112.000000,88.000000,134.849231,-84.130343,-143.896759,-0.499874,0.456961,0.572056,-0.462672,1232.448975,87279.203125,-0.027370,1.632446,1.484253,1.560745,25.250000,27.292850,1,202
101,428306,428106,0,0,0.794656,-0.572745,9.841759,0.017166,0.155044,-0.034862,-6.734228,43.423061,1.739258,-1865.000000,4074.000000,119.000000,134.616595,-84.316076,-144.217942,0.501428,-0.456505,-0.571300,0.462373,1232.442993,87280.375000,-0.054760,1.632446,1.478271,1.482092,25.250000,27.316217,1,202
101,428488,428404,0,0,0.838066,-0.581589,9.847374,-0.422467,-0.587798,0.075136,-6.642563,43.463108,1.943876,-1850.000000,4081.000000,133.000000,134.616595,-84.316076,-144.217942,0.501428,-0.456505,-0.571300,0.462373,1232.431396,87282.351562,-0.081732,1.632446,1.466675,1.473261,25.250000,27.283503,1,202
101,428725,428483,0,0,0.820039,-0.590368,9.847988,-0.107941,-0.634361,-0.575622,-6.428681,43.463108,2.163110,-1815.000000,4081.000000,148.000000,134.221755,-84.141715,-144.248855,-0.498866,0.457947,0.570857,-0.464263,1232.457397,87279.429688,-0.062174,1.632446,1.492676,1.492030,25.250000,27.311544,1,202
101,428931,428699,0,0,0.811601,-0.584726,9.839970,0.254736,-0.099729,-0.540129,-6.667007,43.377293,2.470038,-1854.000000,4066.000000,169.000000,134.221755,-84.141715,-144.248855,-0.498866,0.457947,0.570857,-0.464263,1232.476685,87279.390625,-0.075762,1.632446,1.511963,1.482313,25.250000,27.283503,1,202
101,429108,429008,0,0,0.823153,-0.584615,9.842676,0.133672,-0.032560,-0.578755,-6.752559,43.377293,2.236188,-1868.000000,4066.000000,153.000000,134.294975,-84.143259,-144.617112,0.500656,-0.455792,-0.572612,0.462291,1232.428345,87279.968750,-0.211864,1.632446,1.463623,1.465362,25.250000,27.306871,1,202
101,429289,429088,0,0,0.826268,-0.581991,9.839490,-0.284615,0.294440,0.617657,-6.856445,43.485996,2.601578,-1885.000000,4085.000000,178.000000,134.294975,-84.143259,-144.617112,0.500656,-0.455792,-0.572612,0.462291,1232.386353,87281.875000,-0.205785,1.632446,1.421631,1.438414,25.250000,27.292850,1,202
101,429518,429418,0,0,0.792324,-0.595450,9.832718,0.935205,0.794028,1.030595,-6.679229,43.428780,1.812336,-1856.000000,4075.000000,124.000000,135.690369,-84.244072,-143.074281,0.500638,-0.457466,-0.571496,0.462038,1232.440430,87277.687500,-0.252006,1.632446,1.475708,1.475073,25.250000,27.339584,1,202
101,429679,429497,0,0,0.805508,-0.606032,9.831034,0.270307,-0.115562,-0.567557,-6.673118,43.463108,1.636948,-1855.000000,4081.000000,112.000000,135.690369,-84.244072,-143.074281,0.500638,-0.457466,-0.571496,0.462038,1232.453857,87279.781250,-0.181862,1.632446,1.489136,1.442910,25.250000,27.316217,1,202
101,429842,429628,0,0,0.813704,-0.593664,9.832959,0.086219,0.426771,-0.342880,-6.593675,43.560368,1.636948,-1842.000000,4098.000000,112.000000,135.690369,-84.244072,-143.074281,0.500638,-0.457466,-0.571496,0.462038,1232.508179,87278.187500,-0.112181,1.632446,1.543457,1.409643,25.250000,27.306871,1,202
101,430001,429901,0,0,0.817133,-0.563529,9.840951,-0.266028,-0.333477,0.669846,-6.557010,43.548923,1.885414,-1836.000000,4096.000000,129.000000,134.344289,-84.192846,-144.269359,-0.499764,0.457349,0.571133,-0.463546,1232.400269,87282.023438,-0.060590,1.632446,1.435547,1.473480,25.250000,27.330238,1,202
101,430215,429980,0,0,0.818706,-0.579904,9.838871,-0.589101,-0.004337,0.638467,-6.636453,43.440224,2.660041,-1849.000000,4077.000000,182.000000,134.101858,-84.177621,-144.689389,0.500399,-0.456301,-0.571917,0.462927,1232.366943,87281.859375,-0.097260,1.632446,1.402222,1.409975,25.250000,27.316217,1,202
101,430372,430287,0,0,0.804316,-0.589045,9.831832,0.531471,-0.287338,1.668058,-6.630341,43.383015,3.186203,-1889.000000,4061.000000,197.000000,134.101858,-84.177621,-144.689389,0.500399,-0.456301,-0.571917,0.462927,1232.299805,87282.335938,-0.240301,1.632446,1.335083,1.389257,25.250000,27.306871,1,202
101,430535,430365,0,0,0.800927,-0.598963,9.837958,-0.707040,-0.292995,0.925968,-6.801447,43.377293,2.674657,-1876.000000,4066.000000,183.000000,135.801291,-84.195291,-143.209492,0.501313,-0.456277,-0.572770,0.460903,1232.369019,87279.296875,-0.216902,1.632446,1.404297,1.404647,25.250000,27.325565,1,202
101,430697,430500,0,0,0.799608,-0.590130,9.837467,-0.217239,-0.410906,-0.674143,-6.495901,43.577530,2.148495,-1826.000000,4101.000000,147.000000,135.801291,-84.195291,-143.209492,0.501313,-0.456277,-0.572770,0.460903,1232.310303,87283.101562,-0.203957,1.632446,1.345581,1.377756,25.250000,27.320890,1,202
101,430862,430762,0,0,0.835998,-0.575857,9.846066,-0.438095,-0.039545,-0.208505,-6.654784,43.554646,2.645425,-1852.000000,4097.000000,181.000000,133.353242,-84.113561,-145.439917,0.500045,-0.455769,-0.572256,0.463414,1232.296875,87283.656250,-0.111936,1.632446,1.332153,1.336642,25.250000,27.367626,1,202
101,431051,430842,0,0,0.826991,-0.582997,9.843849,-0.673193,-0.763840,0.282674,-6.715894,43.451668,2.689272,-1862.000000,4079.000000,184.000000,133.353242,-84.113561,-145.439917,0.500045,-0.455769,-0.572256,0.463414,1232.449463,87276.367188,-0.003379,1.632446,1.484741,1.320346,25.250000,27.353605,1,202
101,431214,431116,0,0,0.803617,-0.591342,9.840544,0.144497,-0.219653,0.378869,-6.514234,43.348686,2.206957,-1829.000000,4061.000000,151.000000,134.953651,-84.210522,-143.652484,-0.499816,0.457778,0.571029,-0.463194,1232.419189,87281.007812,0.071753,1.632446,1.454468,1.447209,25.250000,27.344259,1,202
101,431387,431196,0,0,0.804857,-0.603084,9.838040,-0.098501,0.093044,-0.094842,-6.538678,43.686234,3.054662,-1833.000000,4120.000000,209.000000,134.953651,-84.210522,-143.652484,-0.499816,0.457778,0.571029,-0.463194,1232.464111,87278.890625,0.065709,1.632446,1.499390,1.453957,25.250000,27.316217,1,202
101,431614,431523,0,0,0.810218,-0.590395,9.837064,-0.174813,-0.303525,-0.742567,-6.367571,43.503162,2.689272,-1805.000000,4088.000000,184.000000,134.465811,-84.160484,-143.997163,-0.498941,0.458152,0.570729,-0.464137,1232.419067,87280.468750,0.053166,1.632446,1.454346,1.461372,25.250000,27.348932,1,202
101,431784,431603,0,0,0.796438,-0.587156,9.842464,0.660224,0.307148,-0.036485,-6.728116,43.463108,2.557732,-1864.000000,4081.000000,175.000000,134.465811,-84.160484,-143.997163,-0.498941,0.458152,0.570729,-0.464137,1232.468140,87278.742188,0.050630,1.632446,1.503418,1.474287,25.250000,27.353605,1,202
101,431953,431874,0,0,0.825040,-0.578243,9.838333,0.301591,-0.091647,0.302805,-6.508123,43.697674,2.104648,-1828.000000,4122.000000,144.000000,134.081763,-84.205659,-144.518019,-0.499804,0.457264,0.570987,-0.463765,1232.483887,87280.484375,0.054179,1.632446,1.519165,1.547869,25.250000,27.325565,1,202
101,432126,431952,0,0,0.835315,-0.593199,9.837580,0.413485,0.538197,1.131645,-6.709784,43.445946,2.221573,-1861.000000,4078.000000,152.000000,134.081763,-84.205659,-144.518019,-0.499804,0.457264,0.570987,-0.463765,1232.476196,87280.062500,0.054901,1.632446,1.511475,1.559045,25.250000,27.339584,1,202
101,432299,432088,0,0,0.815074,-0.585071,9.843835,-0.265615,0.185386,0.489889,-6.972553,43.623302,2.747735,-1904.000000,4109.000000,188.000000,134.861143,-84.180299,-144.328714,0.501980,-0.454784,-0.573528,0.460709,1232.439087,87281.187500,0.036521,1.632446,1.474365,1.478481,25.250000,27.334911,1,202
101,432472,432372,0,0,0.818326,-0.579206,9.847358,-0.530293,0.212882,-0.370010,-6.636453,43.491718,2.557732,-1849.000000,4086.000000,175.000000,134.861143,-84.180299,-144.328714,0.501980,-0.454784,-0.573528,0.460709,1232.353027,87283.414062,-0.104899,1.632446,1.388306,1.488011,25.250000,27.372299,1,202
101,432657,432451,0,0,0.831787,-0.573304,9.852338,0.447620,0.017721,0.817004,-6.367571,43.588974,1.593101,-1805.000000,4103.000000,109.000000,132.893256,-84.145574,-145.423689,-0.498349,0.457882,0.570138,-0.465763,1232.378540,87280.281250,-0.142130,1.632446,1.413818,1.417801,25.250000,27.358280,1,202
101,432832,432733,0,0,0.806765,-0.577673,9.840812,0.431826,0.309221,0.153342,-6.526455,43.691956,2.470038,-1831.000000,4121.000000,169.000000,132.893256,-84.145574,-145.423689,-0.498349,0.457882,0.570138,-0.465763,1232.490234,87278.617188,-0.023589,1.632446,1.525513,1.390787,25.250000,27.367626,1,202
101,433065,432812,0,0,0.800450,-0.594542,9.841766,0.382485,0.496099,0.003277,-6.569232,43.548923,1.826951,-1838.000000,4096.000000,125.000000,135.204619,-84.214948,-143.396557,-0.499812,0.457961,0.570995,-0.463059,1232.404541,87282.765625,-0.002114,1.632446,1.439819,1.438476,25.250000,27.367626,1,202
101,433241,433142,0,0,0.819555,-0.593633,9.840437,-0.707982,0.466781,-0.402354,-6.685339,43.537483,2.221573,-1857.000000,4094.000000,152.000000,135.204619,-84.214948,-143.396557,-0.499812,0.457961,0.570995,-0.463059,1232.491455,87278.078125,0.197473,1.632446,1.526733,1.434884,25.250000,27.372299,1,202
101,433423,433221,0,0,0.810547,-0.572787,9.840844,-0.123525,0.486969,-0.696652,-6.648674,43.451668,1.622333,-1851.000000,4079.000000,111.000000,133.955364,-84.240855,-144.752431,0.500473,-0.456675,-0.571203,0.463359,1232.472412,87280.390625,0.198304,1.632446,1.507690,1.503430,25.250000,27.367626,1,202
101,433603,433503,0,0,0.812901,-0.579483,9.837012,0.070233,0.281725,0.727560,-6.667007,43.537483,2.396960,-1854.000000,4094.000000,164.000000,133.955364,-84.240855,-144.752431,0.500473,-0.456675,-0.571203,0.463359,1232.535156,87277.335938,0.221762,1.632446,1.570435,1.541636,25.250000,27.334911,1,202
101,433789,433582,0,0,0.817235,-0.594076,9.843361,0.202228,-0.482883,1.942686,-7.076437,43.526043,1.812336,-1921.000000,4092.000000,124.000000,135.268577,-84.139543,-143.985278,0.501957,-0.454691,-0.574043,0.460185,1232.550903,87278.687500,0.253939,1.632446,1.586182,1.581086,25.250000,27.348932,1,202
101,434020,433920,0,0,0.800881,-0.591310,9.841452,-1.160522,0.046265,-0.460920,-6.972553,43.537483,0.950015,-1904.000000,4094.000000,65.000000,135.268577,-84.139543,-143.985278,0.501957,-0.454691,-0.574043,0.460185,1232.494873,87279.132812,0.108789,1.632446,1.530151,1.648632,25.250000,27.386320,1,202
101,434175,434000,0,0,0.809489,-0.569769,9.836794,-0.519060,0.094204,-0.451030,-6.722004,43.377293,1.388483,-1863.000000,4066.000000,95.000000,133.935884,-84.253512,-144.859720,0.500909,-0.456235,-0.571477,0.462983,1232.405518,87282.843750,0.035205,1.632446,1.440796,1.449416,25.250000,27.348932,1,202
101,434331,434145,0,0,0.823279,-0.553517,9.849271,-0.345421,0.346142,-0.805251,-6.709784,43.434505,1.593101,-1861.000000,4076.000000,109.000000,133.935884,-84.253512,-144.859720,0.500909,-0.456235,-0.571477,0.462983,1232.421387,87280.062500,-0.069482,1.632446,1.456665,1.458110,25.250000,27.339584,1,202
101,434542,434461,0,0,0.814683,-0.568969,9.852971,1.021166,0.356553,1.074975,-6.758671,43.537483,1.797720,-1869.000000,4094.000000,123.000000,133.224411,-84.208692,-145.335607,-0.499715,0.456933,0.570758,-0.464470,1232.481689,87280.750000,-0.077292,1.632446,1.516968,1.538191,25.250000,27.372299,1,202
101,434701,434540,0,0,0.796969,-0.585573,9.841363,-0.524242,-0.511705,0.941164,-7.082549,43.640465,2.119263,-1922.000000,4112.000000,145.000000,133.224411,-84.208692,-145.335607,-0.499715,0.456933,0.570758,-0.464470,1232.480469,87279.859375,-0.071989,1.632446,1.515747,1.528576,25.250000,27.372299,1,202
101,434863,434682,0,0,0.794180,-0.601756,9.834134,0.039267,-0.329542,-0.473045,-6.801447,43.405899,2.046185,-1876.000000,4071.000000,140.000000,136.097803,-84.214450,-142.848489,0.501164,-0.456795,-0.572412,0.460997,1232.477539,87279.929688,-0.022556,1.632446,1.512817,1.514802,25.250000,27.353605,1,202
101,435022,434814,0,0,0.828581,-0.575729,9.851814,0.064760,-0.155261,2.871118,-7.094769,43.554646,2.133879,-1924.000000,4097.000000,146.000000,136.097803,-84.214450,-142.848489,0.501164,-0.456795,-0.572412,0.460997,1232.510498,87278.687500,0.021788,1.632446,1.545776,1.511075,25.250000,27.348932,1,202
101,435185,435085,0,0,0.774600,-0.571674,9.840947,0.702774,-0.734845,4.973804,-7.290319,43.480274,1.300789,-1960.000000,4094.000000,89.000000,135.924876,-84.412682,-143.571751,0.504645,-0.454053,-0.573419,0.458650,1232.520874,87277.429688,-0.054045,1.632446,1.556152,1.553604,25.250000,27.367626,1,202
101,435354,435165,0,0,0.833612,-0.721016,27.757816,1.555844,-0.082022,-0.955199,-7.131436,43.611858,2.864659,-1930.000000,4107.000000,196.000000,135.924876,-84.412682,-143.571751,0.504645,-0.454053,-0.573419,0.458650,1232.556030,87278.148438,-0.030485,1.632446,1.591309,1.546785,25.250000,27.353605,1,202
101,435470,435298,0,0,0.628576,-0.597882,43.183941,6.050176,2.884174,-4.407047,-5.188167,43.337246,7.088570,-1612.000000,4059.000000,485.000000,135.924876,-84.412682,-143.571751,0.504645,-0.454053,-0.573419,0.458650,1232.557007,87278.984375,-0.012097,1.632446,1.592285,1.540103,25.250000,27.348932,2,202
101,435587,435429,0,0,0.162073,-0.005963,48.888081,29.330540,8.909687,-34.605601,-2.536032,42.398991,7.337036,-1178.000000,3895.000000,502.000000,95.563362,-89.809925,-177.892277,0.513965,-0.483924,-0.515731,0.485468,1232.893799,87267.062500,0.153173,1.929077,1.929077,1.905992,25.250000,27.344259,2,202
101,435791,435563,0,0,0.007279,0.839525,46.671658,58.065562,6.793393,-35.034533,2.481025,40.591125,6.620871,-357.000000,3579.000000,453.000000,95.563362,-89.809925,-177.892277,0.513965,-0.483924,-0.515731,0.485468,1233.285400,87261.539062,0.473925,2.320679,2.320679,1.929353,25.250000,27.353605,2,202
101,435907,435743,0,0,0.103108,2.388323,41.265667,61.010357,-1.421072,-11.212774,4.124860,39.555607,6.299327,-88.000000,3398.000000,431.000000,176.480682,-93.315479,-87.527932,0.487584,-0.510896,-0.458392,0.539559,1234.869385,87215.093750,1.478387,3.904663,3.904663,3.724368,25.250000,27.339584,2,202
101,436026,435875,0,0,0.237371,3.639965,35.065548,30.973904,-8.718567,41.903419,2.511580,39.303879,8.783981,-352.000000,3354.000000,601.000000,176.480682,-93.315479,-87.527932,0.487584,-0.510896,-0.458392,0.539559,1237.479980,87161.859375,3.462784,6.515259,6.515259,3.893353,25.125000,27.353605,2,202
101,436149,435875,0,0,0.237371,3.639965,35.065548,30.973904,-8.718567,41.903419,2.511580,39.303879,8.783981,-352.000000,3354.000000,601.000000,176.480682,-93.315479,-87.527932,0.487584,-0.510896,-0.458392,0.539559,1237.479980,87161.859375,3.462784,6.515259,6.515259,3.893353,25.125000,27.353605,2,202
101,436271,436023,0,0,0.413152,2.836468,27.630589,-6.499326,-16.976604,101.030758,-3.116568,40.676937,13.037125,-1273.000000,3594.000000,892.000000,13.166907,-84.077320,98.287255,0.540708,-0.447435,-0.499565,0.507811,1240.274780,87128.585938,6.079896,9.310059,9.310059,8.811299,25.125000,27.348932,2,202
101,436394,436221,0,0,1.054745,1.248291,20.560297,-17.141424,-14.995139,126.820234,-8.830270,41.260490,13.110201,-2208.000000,3696.000000,897.000000,13.166907,-84.077320,98.287255,0.540708,-0.447435,-0.499565,0.507811,1242.376709,87122.437500,8.716929,11.411987,11.411987,9.577096,25.125000,27.381647,2,202
101,436519,436354,0,0,1.558312,0.305672,16.688755,-11.652147,-2.285340,124.639532,-13.199570,41.289097,10.771705,-2923.000000,3701.000000,737.000000,13.166907,-84.077320,98.287255,0.540708,-0.447435,-0.499565,0.507811,1244.374878,87103.773438,11.416934,13.410156,13.410156,10.287363,25.125000,27.358280,2,202
101,436646,436501,0,0,1.137890,0.041557,14.369977,-3.981011,13.492565,116.301497,-16.255022,40.951550,6.182403,-3423.000000,3642.000000,423.000000,110.098319,-85.469456,177.908451,0.563802,-0.377702,-0.609026,0.410556,1246.787109,87067.882812,13.557585,15.822388,15.822388,15.392678,25.125000,27.358280,2,202
101,436832,436639,0,0,0.503884,0.156197,12.977200,-0.230407,14.416494,134.318785,-20.355444,40.791359,-4.545455,-4094.000000,3614.000000,-311.000000,110.098319,-85.469456,177.908451,0.563802,-0.377702,-0.609026,0.410556,1249.717773,87023.921875,14.779913,18.753052,18.753052,17.737259,25.125000,27.353605,2,202
101,436960,436639,0,0,0.503884,0.156197,12.977200,-0.230407,14.416494,134.318785,-20.355444,40.791359,-4.545455,-4094.000000,3614.000000,-311.000000,110.098319,-85.469456,177.908451,0.563802,-0.377702,-0.609026,0.410556,1249.717773,87023.921875,14.779913,18.753052,18.753052,17.737259,25.125000,27.353605,3,202
101,437083,436825,0,0,0.363258,0.360141,12.331712,-1.653399,4.198480,158.586597,-22.072609,40.654057,-24.466532,-4375.000000,3590.000000,-1674.000000,72.560965,-87.624709,135.246912,0.600266,-0.353503,-0.607310,0.381956,1253.456055,86964.242188,16.228165,22.491333,22.491333,21.855686,25.125000,27.348932,3,202
101,437214,437033,0,0,0.413761,0.693515,11.909397,-7.203988,-3.852184,168.107498,-20.245449,40.133434,-40.792168,-4076.000000,3499.000000,-2791.000000,72.560965,-87.624709,135.246912,0.600266,-0.353503,-0.607310,0.381956,1257.790771,86903.500000,18.068743,26.826050,26.826050,24.388969,25.125000,27.381647,3,202
101,437346,437170,0,0,0.670937,0.798674,11.716472,-12.658098,-10.138351,168.834299,-16.798893,39.424019,-51.987724,-3512.000000,3375.000000,-3557.000000,72.560965,-87.624709,135.246912,0.600266,-0.353503,-0.607310,0.381956,1262.074463,86859.343750,20.485943,31.109741,31.109741,26.546371,25.250000,27.358280,3,202
101,437479,437330,0,0,0.936804,0.676818,11.327036,-15.492367,-10.860347,161.394146,-10.553546,38.331291,-58.915520,-2490.000000,3184.000000,-4031.000000,62.005994,-84.174172,144.152768,0.524245,-0.428985,-0.540509,0.498988,1265.953247,86828.242188,22.728302,34.988525,34.988525,34.185101,25.250000,27.362953,3,202
101,437658,437468,0,0,0.883687,0.495436,10.861329,-14.520815,-10.054943,157.569281,-2.859910,37.867882,-59.090908,-1231.000000,3103.000000,-4043.000000,62.005994,-84.174172,144.152768,0.524245,-0.428985,-0.540509,0.498988,1269.956299,86782.757812,24.698679,38.991577,38.991577,38.193810,25.250000,27.353605,3,202
101,437765,437468,0,0,0.883687,0.495436,10.861329,-14.520815,-10.054943,157.569281,-2.859910,37.867882,-59.090908,-1231.000000,3103.000000,-4043.000000,62.005994,-84.174172,144.152768,0.524245,-0.428985,-0.540509,0.498988,1269.956299,86782.757812,24.698679,38.991577,38.991577,38.193810,25.250000,27.353605,3,202
101,437929,437650,0,0,0.679240,0.403376,10.633715,-10.572011,-9.914154,160.484201,5.701474,37.169910,-45.352234,170.000000,2981.000000,-3103.000000,46.906925,-85.751256,149.295436,0.439133,-0.524702,-0.446520,0.576602,1274.042847,86702.718750,26.388222,43.078125,43.078125,42.287140,25.250000,27.400341,3,202
101,438036,437879,0,0,0.751086,0.180068,10.519656,-0.830223,-13.356643,173.708171,9.038031,36.820923,-30.239695,716.000000,2920.000000,-2069.000000,46.906925,-85.751256,149.295436,0.439133,-0.524702,-0.446520,0.576602,1278.507324,86680.820312,27.956642,47.542603,47.542603,45.798279,25.250000,27.419035,3,202
101,438143,437879,0,0,0.751086,0.180068,10.519656,-0.830223,-13.356643,173.708171,9.038031,36.820923,-30.239695,716.000000,2920.000000,-2069.000000,46.906925,-85.751256,149.295436,0.439133,-0.524702,-0.446520,0.576602,1278.507324,86680.820312,27.956642,47.542603,47.542603,45.798279,25.250000,27.419035,3,202
101,438250,438008,0,0,0.844935,0.305738,10.365028,4.461038,-9.019598,176.769585,9.673566,36.477657,-14.469454,820.000000,2860.000000,-990.000000,46.906925,-85.751256,149.295436,0.439133,-0.524702,-0.446520,0.576602,1282.575806,86647.546875,29.093868,51.611084,51.611084,49.055775,25.250000,27.386320,3,202
101,438375,438201,0,0,0.753338,0.213248,10.217269,4.414577,-6.799022,185.764903,5.921467,36.483379,8.637825,206.000000,2861.000000,591.000000,65.974839,-85.618047,164.194688,0.451080,-0.509675,-0.474002,0.558642,1286.478271,86610.367188,29.553436,55.513550,55.513550,54.710476,25.250000,27.376974,3,202
101,438486,438333,0,0,0.926588,0.176519,10.036632,6.215636,-3.610311,191.384250,-0.177220,36.660732,20.242619,-792.000000,2892.000000,1385.000000,65.974839,-85.618047,164.194688,0.451080,-0.509675,-0.474002,0.558642,1290.393799,86568.640625,30.488712,59.429077,59.429077,58.488277,25.250000,27.358280,3,202
101,438607,438333,0,0,0.926588,0.176519,10.036632,6.215636,-3.610311,191.384250,-0.177220,36.660732,20.242619,-792.000000,2892.000000,1385.000000,65.974839,-85.618047,164.194688,0.451080,-0.509675,-0.474002,0.558642,1290.393799,86568.640625,30.488712,59.429077,59.429077,58.488277,25.250000,27.358280,3,202
101,438718,438462,0,0,1.042175,0.450710,9.955503,2.548305,1.835941,190.385157,-7.895299,36.557751,22.931892,-2055.000000,2874.000000,1569.000000,65.974839,-85.618047,164.194688,0.451080,-0.509675,-0.474002,0.558642,1294.157715,86532.601562,30.967630,63.192993,63.192993,62.261539,25.250000,27.372299,3,202
101,438887,438669,0,0,1.335435,0.417511,9.863616,-3.207309,4.126087,187.067270,-20.746544,36.300304,8.915522,-4158.000000,2829.000000,610.000000,103.935064,-81.926316,162.638648,0.580673,-0.309507,-0.648935,0.381979,1297.676758,86501.453125,29.996742,66.712036,66.712036,65.994797,25.250000,27.372299,3,202
101,439000,438669,0,0,1.335435,0.417511,9.863616,-3.207309,4.126087,187.067270,-20.746544,36.300304,8.915522,-4158.000000,2829.000000,610.000000,103.935064,-81.926316,162.638648,0.580673,-0.309507,-0.648935,0.381979,1297.676758,86501.453125,29.996742,66.712036,66.712036,65.994797,25.250000,27.372299,3,202
101,439116,438870,0,0,1.065373,0.461041,9.670069,-8.733181,9.536908,178.637601,-24.834740,35.499352,-9.412453,-4827.000000,2689.000000,-644.000000,103.935064,-81.926316,162.638648,0.580673,-0.309507,-0.648935,0.381979,1301.732056,86445.406250,28.896025,70.767334,70.767334,70.610023,25.250000,27.344259,3,202
101,439237,439066,0,0,0.942048,0.439786,9.362576,-11.206154,2.297091,186.778216,-24.376423,34.898636,-38.234432,-4752.000000,2584.000000,-2616.000000,94.174846,-83.663670,154.974943,0.586780,-0.325096,-0.631134,0.389451,1305.863403,86399.914062,28.193439,74.898682,74.898682,74.103699,25.250000,27.362953,3,202
101,439358,439201,0,0,1.059333,0.770898,9.054623,-13.742534,-4.015850,190.929428,-20.459330,34.091965,-54.399300,-4111.000000,2443.000000,-3722.000000,94.174846,-83.663670,154.974943,0.586780,-0.325096,-0.631134,0.389451,1310.052612,86354.281250,27.728321,79.087891,79.087891,77.976952,25.250000,27.367626,3,202
101,439484,439342,0,0,1.098456,0.555955,8.747848,-15.622868,-7.577753,189.486482,-12.600700,33.279568,-64.951767,-2825.000000,2301.000000,-4444.000000,94.174846,-83.663670,154.974943,0.586780,-0.325096,-0.631134,0.389451,1313.725952,86328.226562,27.165577,82.761230,82.761230,82.043732,25.250000,27.372299,3,202
101,439610,439342,0,0,1.098456,0.555955,8.747848,-15.622868,-7.577753,189.486482,-12.600700,33.279568,-64.951767,-2825.000000,2301.000000,-4444.000000,94.174846,-83.663670,154.974943,0.586780,-0.325096,-0.631134,0.389451,1313.725952,86328.226562,27.165577,82.761230,82.761230,82.043732,25.250000,27.372299,3,202
101,439733,439480,0,0,0.768510,0.402458,8.656322,-10.897499,-8.707848,191.157420,-1.063303,32.369915,-64.250221,-937.000000,2142.000000,-4389.000000,55.016494,-84.277076,152.359582,0.458020,-0.496033,-0.474726,0.564627,1317.149536,86298.265625,27.584629,86.184814,86.184814,85.449539,25.250000,27.372299,3,202
101,439912,439683,0,0,0.443353,0.490435,26.353168,0.960615,-13.372448,202.810173,10.272434,31.065510,-42.823734,918.000000,1914.000000,-2930.000000,55.016494,-84.277076,152.359582,0.458020,-0.496033,-0.474726,0.564627,1320.549805,86230.773438,27.592632,89.585083,89.585083,91.068161,25.250000,27.386320,3,202
101,440037,439895,0,0,0.404469,1.488823,37.467537,5.309334,-13.848949,216.001358,12.631247,30.584936,-11.517100,1304.000000,1830.000000,-788.000000,172.854712,-92.357914,-74.801254,0.403104,-0.576294,-0.384024,0.598263,1324.329102,86213.843750,27.738281,93.364380,93.364380,92.653831,25.250000,27.414362,3,202
101,440165,439895,0,0,0.404469,1.488823,37.467537,5.309334,-13.848949,216.001358,12.631247,30.584936,-11.517100,1304.000000,1830.000000,-788.000000,172.854712,-92.357914,-74.801254,0.403104,-0.576294,-0.384024,0.598263,1324.329102,86213.843750,27.738281,93.364380,93.364380,92.653831,25.250000,27.414362,3,202
101,440292,440031,0,0,2.064972,1.581951,26.754255,2.320850,-16.119649,224.986691,6.550891,30.853828,17.231804,309.000000,1877.000000,1179.000000,172.854712,-92.357914,-74.801254,0.403104,-0.576294,-0.384024,0.598263,1327.979004,86178.570312,27.551138,97.014282,97.014282,97.811394,25.250000,27.386320,3,202
101,440424,440242,0,0,1.835128,0.586121,5.567651,-2.870504,3.606745,223.975399,-5.426492,30.710800,28.968138,-1651.000000,1852.000000,1982.000000,100.139644,-70.913940,162.287057,0.520020,-0.271728,-0.674497,0.448103,1331.226074,86154.265625,27.039700,100.261353,100.261353,99.577995,25.250000,27.419035,3,202
101,440558,440406,0,0,0.901061,0.854966,-2.951461,5.679331,4.660746,234.804664,-18.082186,30.830944,18.971062,-3722.000000,1873.000000,1298.000000,100.139644,-70.913940,162.287057,0.520020,-0.271728,-0.674497,0.448103,1334.259033,86127.593750,26.188429,103.294312,103.294312,104.090958,25.250000,27.390993,3,202
101,440694,440546,0,0,0.948995,1.310449,-5.472256,-3.043904,-1.838691,243.274563,-25.751379,30.928200,-3.683133,-4977.000000,1890.000000,-252.000000,102.286645,73.528626,125.911109,-0.186598,0.618086,-0.384888,0.659555,1337.746948,86079.710938,25.801022,106.782227,106.782227,106.133087,25.250000,27.376974,3,202
101,440909,440687,0,0,1.524870,1.161783,-5.971370,-9.948848,-2.522127,233.416469,-25.506941,30.104364,-39.579071,-4937.000000,1746.000000,-2708.000000,102.286645,73.528626,125.911109,-0.186598,0.618086,-0.384888,0.659555,1340.609985,86064.921875,25.016291,109.645264,109.645264,111.090698,25.250000,27.381647,3,202
101,441067,440877,0,0,1.212875,1.120211,-5.913500,-14.450580,-3.728652,223.706631,-16.560570,29.217594,-63.007893,-3473.000000,1591.000000,-4311.000000,73.691020,74.400335,137.274440,-0.105448,0.624585,-0.268580,0.725699,1343.452637,86035.515625,23.763784,112.487915,112.487915,111.918015,25.375000,27.376974,3,202
101,441174,440877,0,0,1.212875,1.120211,-5.913500,-14.450580,-3.728652,223.706631,-16.560570,29.217594,-63.007893,-3473.000000,1591.000000,-4311.000000,73.691020,74.400335,137.274440,-0.105448,0.624585,-0.268580,0.725699,1343.452637,86035.515625,23.763784,112.487915,112.487915,111.918015,25.375000,27.376974,3,202
101,441277,441051,0,0,0.800614,0.902259,-5.691675,-9.298216,-9.099796,223.027396,-3.635995,27.981838,-67.261032,-1358.000000,1375.000000,-4602.000000,73.691020,74.400335,137.274440,-0.105448,0.624585,-0.268580,0.725699,1345.813477,86022.507812,22.772594,114.848755,114.848755,116.052750,25.375000,27.381647,3,202
101,441389,441051,0,0,0.800614,0.902259,-5.691675,-9.298216,-9.099796,223.027396,-3.635995,27.981838,-67.261032,-1358.000000,1375.000000,-4602.000000,73.691020,74.400335,137.274440,-0.105448,0.624585,-0.268580,0.725699,1345.813477,86022.507812,22.772594,114.848755,114.848755,116.052750,25.375000,27.381647,3,202
101,441497,441227,0,0,0.128668,1.044474,-5.543402,-2.900552,-13.428508,227.123556,6.502004,27.037859,-55.130077,301.000000,1210.000000,-3772.000000,10.572607,100.749211,-82.977168,0.522721,-0.464069,0.613442,-0.367546,1348.234863,85995.562500,22.054600,117.270142,117.270142,116.787712,25.375000,27.419035,3,202
101,441621,441447,0,0,0.289365,0.773165,-5.303064,6.295825,-16.584843,230.097325,13.242337,25.613308,-17.173342,1404.000000,961.000000,-1175.000000,10.572607,100.749211,-82.977168,0.522721,-0.464069,0.613442,-0.367546,1350.382080,85979.710938,20.519087,119.417358,119.417358,121.675941,25.375000,27.405014,3,202
101,441737,441577,0,0,0.852522,0.922887,-5.046448,7.593511,-10.352082,226.048635,10.419097,25.630472,5.407775,942.000000,964.000000,370.000000,159.778042,76.019582,132.730383,0.499928,-0.410008,0.667265,-0.369761,1351.807861,85982.421875,19.192572,120.843140,120.843140,120.477386,25.375000,27.376974,3,202
101,441853,441577,0,0,0.852522,0.922887,-5.046448,7.593511,-10.352082,226.048635,10.419097,25.630472,5.407775,942.000000,964.000000,370.000000,159.778042,76.019582,132.730383,0.499928,-0.410008,0.667265,-0.369761,1351.807861,85982.421875,19.192572,120.843140,120.843140,120.477386,25.375000,27.376974,3,202
101,442020,441710,0,0,0.745720,0.874449,-4.853104,2.922360,-3.155187,219.677872,3.122671,25.733452,22.800350,-252.000000,982.000000,1560.000000,159.778042,76.019582,132.730383,0.499928,-0.410008,0.667265,-0.369761,1353.115601,85971.570312,17.861469,122.150879,122.150879,123.071121,25.375000,27.390993,3,202
101,442135,441970,0,0,0.853926,0.611747,-4.649778,5.412491,3.399524,214.492132,-15.540049,25.905083,24.028061,-3306.000000,1012.000000,1644.000000,104.323872,77.269896,144.382440,-0.322905,0.553322,-0.470206,0.607020,1353.988647,85973.054688,15.916958,123.023926,123.023926,122.799461,25.375000,27.390993,3,202
101,442251,441970,0,0,0.853926,0.611747,-4.649778,5.412491,3.399524,214.492132,-15.540049,25.905083,24.028061,-3306.000000,1012.000000,1644.000000,104.323872,77.269896,144.382440,-0.322905,0.553322,-0.470206,0.607020,1353.988647,85973.054688,15.916958,123.023926,123.023926,122.799461,25.375000,27.390993,3,202
101,442367,442118,0,0,0.787943,0.909179,-4.462193,-2.305328,7.360383,207.636685,-22.891470,25.470282,6.562409,-4509.000000,936.000000,449.000000,104.323872,77.269896,144.382440,-0.322905,0.553322,-0.470206,0.607020,1354.764160,85967.289062,13.730362,123.799438,123.799438,125.237228,25.375000,27.376974,3,202
101,442489,442317,0,0,0.661422,0.991243,-4.328040,-10.899674,2.197861,203.821451,-26.258581,24.720818,-26.351944,-5060.000000,805.000000,-1803.000000,88.032785,74.605972,123.713809,-0.101507,0.645001,-0.281811,0.703031,1355.455688,85962.085938,11.791485,124.490967,124.490967,124.339973,25.375000,27.390993,3,202
101,442612,442453,0,0,0.772195,1.052599,-4.217715,-14.356422,-3.095395,198.310294,-23.447565,23.839771,-47.193806,-4600.000000,651.000000,-3229.000000,88.032785,74.605972,123.713809,-0.101507,0.645001,-0.281811,0.703031,1355.958984,85961.406250,9.955487,124.994263,124.994263,126.062798,25.375000,27.381647,3,202
101,442740,442595,0,0,0.876611,0.895802,-4.147655,-17.030704,-6.482987,188.768028,-16.438353,22.781368,-61.210175,-3453.000000,466.000000,-4188.000000,88.032785,74.605972,123.713809,-0.101507,0.645001,-0.281811,0.703031,1356.165161,85966.531250,8.095747,125.200439,125.200439,127.894417,25.375000,27.390993,3,202
101,442863,442595,0,0,0.876611,0.895802,-4.147655,-17.030704,-6.482987,188.768028,-16.438353,22.781368,-61.210175,-3453.000000,466.000000,-4188.000000,88.032785,74.605972,123.713809,-0.101507,0.645001,-0.281811,0.703031,1356.165161,85966.531250,8.095747,125.200439,125.200439,127.894417,25.375000,27.390993,3,202
101,443039,442735,0,0,0.850080,0.694047,-4.042886,-13.866315,-9.606507,181.540472,-5.732037,21.768736,-66.574104,-1740.000000,290.000000,-4548.000000,67.613477,74.813268,140.770090,-0.096805,0.623833,-0.246875,0.735197,1355.849976,85982.632812,6.425206,125.200439,124.885254,124.852074,25.375000,27.405014,3,202
101,443163,442989,0,0,0.385129,0.588610,-3.954643,-6.164594,-10.591416,178.897093,5.408151,20.819035,-54.004677,122.000000,123.000000,-3695.000000,67.613477,74.813268,140.770090,-0.096805,0.623833,-0.246875,0.735197,1355.179199,85998.406250,4.693892,125.200439,124.214478,126.326935,25.375000,27.437729,3,202
101,443288,443145,0,0,0.252813,0.401758,-3.914701,6.424067,-12.936024,180.724032,10.681867,19.817844,-36.027477,985.000000,-52.000000,-2465.000000,175.182017,83.086266,122.180801,0.564819,-0.385908,0.641132,-0.347858,1354.399292,86009.289062,2.932637,125.200439,123.434570,123.561974,25.375000,27.395668,3,202
101,443417,443145,0,0,0.252813,0.401758,-3.914701,6.424067,-12.936024,180.724032,10.681867,19.817844,-36.027477,985.000000,-52.000000,-2465.000000,175.182017,83.086266,122.180801,0.564819,-0.385908,0.641132,-0.347858,1354.399292,86009.289062,2.932637,125.200439,123.434570,123.561974,25.375000,27.395668,3,202
101,443544,443281,0,0,0.154555,0.696614,-3.865856,12.723204,-12.441371,184.944830,11.629057,19.257177,-15.010230,1140.000000,-150.000000,-1027.000000,175.182017,83.086266,122.180801,0.564819,-0.385908,0.641132,-0.347858,1353.403564,86025.054688,0.966561,125.200439,122.438843,124.061424,25.375000,27.400341,3,202
101,443677,443494,0,0,0.309752,0.768418,-3.832569,10.492458,-9.466229,184.599454,6.074240,18.856701,12.481730,231.000000,-220.000000,854.000000,176.308575,77.801858,111.954553,0.506181,-0.451976,0.633360,-0.371958,1352.324707,86038.445312,-0.832656,125.200439,121.359985,121.556061,25.250000,27.405014,3,202
101,443809,443659,0,0,0.704659,0.569442,-3.761111,5.711292,-4.651448,180.477900,-1.986050,19.131313,22.595732,-1088.000000,-172.000000,1546.000000,176.308575,77.801858,111.954553,0.506181,-0.451976,0.633360,-0.371958,1351.093628,86055.132812,-2.422996,125.200439,120.128906,121.541489,25.250000,27.381647,3,202
101,443946,443798,0,0,1.089591,0.570404,23.936249,-0.322075,3.439430,173.442668,-8.628610,18.233101,22.668810,-2175.000000,-329.000000,1551.000000,91.001561,-87.058677,152.367887,0.598381,-0.345268,-0.617445,0.376154,1348.991089,86098.656250,-4.338773,125.200439,118.026367,118.344460,25.250000,27.405014,3,202
101,444181,443938,0,0,4.277797,-2.857581,-52.973797,-212.640960,-23.422776,359.589297,-16.285580,10.921548,-18.079510,-3428.000000,-1607.000000,-1237.000000,91.001561,-87.058677,152.367887,0.598381,-0.345268,-0.617445,0.376154,1346.953979,86118.492188,-5.919001,125.200439,115.989258,117.506027,25.250000,27.400341,3,202
101,444286,443938,0,0,4.277797,-2.857581,-52.973797,-212.640960,-23.422776,359.589297,-16.285580,10.921548,-18.079510,-3428.000000,-1607.000000,-1237.000000,91.001561,-87.058677,152.367887,0.598381,-0.345268,-0.617445,0.376154,1346.953979,86118.492188,-5.919001,125.200439,115.989258,117.506027,25.250000,27.400341,3,202
101,444395,444168,0,0,5.664089,-14.008307,-52.765915,44.258127,373.379067,726.489902,3.232667,12.820951,-43.642212,-234.000000,-1275.000000,-2986.000000,19.304309,74.020365,-112.015355,0.523803,-0.417171,0.442786,-0.596271,1354.359619,86058.023438,-2.649341,125.200439,123.394897,122.942192,25.250000,27.405014,3,202
101,444502,444346,0,0,-18.840385,2.633783,-26.514778,155.944393,-54.841225,853.459075,-13.107906,16.316536,13.358667,-2908.000000,-664.000000,914.000000,19.304309,74.020365,-112.015355,0.523803,-0.417171,0.442786,-0.596271,1356.303589,85922.460938,0.977616,125.338867,125.338867,122.576416,25.250000,27.437729,3,202
101,444627,444346,0,0,-18.840385,2.633783,-26.514778,155.944393,-54.841225,853.459075,-13.107906,16.316536,13.358667,-2908.000000,-664.000000,914.000000,19.304309,74.020365,-112.015355,0.523803,-0.417171,0.442786,-0.596271,1356.303589,85922.460938,0.977616,125.338867,125.338867,122.576416,25.250000,27.437729,3,202
101,444734,444475,0,0,-5.046441,5.382374,-18.048120,109.752773,-136.454079,1028.688015,-8.543056,16.848598,-60.377087,-2161.000000,-571.000000,-4131.000000,19.304309,74.020365,-112.015355,0.523803,-0.417171,0.442786,-0.596271,1351.194824,86149.304688,1.407083,125.338867,120.230103,122.204109,25.250000,27.428381,3,202
101,444859,444685,0,0,-3.536916,6.837119,-12.104231,70.160612,-105.018263,1085.536172,-14.378975,12.334659,-2.031570,-3116.000000,-1360.000000,-139.000000,152.641587,57.545327,62.646980,-0.066059,0.786715,-0.345521,0.507279,1346.759277,86179.476562,1.345182,125.338867,115.794556,116.227219,25.250000,27.419035,3,202
101,444972,444816,0,0,0.166980,5.231959,-14.065427,155.222934,-69.124793,1038.664026,-5.365383,18.130121,-63.110203,-1641.000000,-347.000000,-4318.000000,152.641587,57.545327,62.646980,-0.066059,0.786715,-0.345521,0.507279,1342.957031,86203.960938,-0.092813,125.338867,111.992310,116.339363,25.250000,27.405014,3,202
101,445142,444947,0,0,0.381332,4.953772,-12.340269,41.858486,-115.927353,1039.253936,-13.572333,12.735134,2.382344,-2984.000000,-1290.000000,163.000000,128.886394,68.069344,94.401834,-0.127590,0.685119,-0.384505,0.605383,1339.505859,86231.687500,-6.239161,125.338867,108.541138,109.229752,25.250000,27.419035,3,202
101,445257,444947,0,0,0.381332,4.953772,-12.340269,41.858486,-115.927353,1039.253936,-13.572333,12.735134,2.382344,-2984.000000,-1290.000000,163.000000,128.886394,68.069344,94.401834,-0.127590,0.685119,-0.384505,0.605383,1339.505859,86231.687500,-6.239161,125.338867,108.541138,109.229752,25.250000,27.419035,3,202
101,445371,445127,0,0,1.860028,4.677652,-10.703990,7.685083,-142.129625,1090.683293,-1.222186,11.951345,-47.296112,-963.000000,-1427.000000,-3236.000000,128.886394,68.069344,94.401834,-0.127590,0.685119,-0.384505,0.605383,1337.287109,86224.773438,-12.670506,125.338867,106.322388,108.313171,25.250000,27.423708,3,202
101,445486,445321,0,0,1.611486,3.907426,-7.975947,68.123938,-160.970866,1077.854886,-13.792328,12.220237,-1.973107,-3020.000000,-1380.000000,-135.000000,104.220204,62.079589,112.412052,-0.045499,0.639271,-0.385804,0.663640,1334.560913,86265.984375,-15.842672,125.338867,103.596191,104.103577,25.250000,27.437729,3,202
101,445603,445452,0,0,-1.863047,3.175575,-7.165433,101.023381,-80.590345,973.865311,-11.916279,12.820951,-49.298450,-2713.000000,-1275.000000,-3373.000000,104.220204,62.079589,112.412052,-0.045499,0.639271,-0.385804,0.663640,1333.585449,86233.210938,-17.180239,125.338867,102.620728,102.236488,25.250000,27.423708,3,202
101,445724,445452,0,0,-1.863047,3.175575,-7.165433,101.023381,-80.590345,973.865311,-11.916279,12.820951,-49.298450,-2713.000000,-1275.000000,-3373.000000,104.220204,62.079589,112.412052,-0.045499,0.639271,-0.385804,0.663640,1333.585449,86233.210938,-17.180239,125.338867,102.620728,102.236488,25.250000,27.423708,3,202
101,445841,445589,0,0,-1.307856,3.004161,-8.812588,202.027584,-39.202953,764.709892,-1.796612,11.773991,-46.740719,-1057.000000,-1458.000000,-3198.000000,104.220204,62.079589,112.412052,-0.045499,0.639271,-0.385804,0.663640,1331.347778,86287.843750,-17.225910,125.338867,100.383057,100.264626,25.250000,27.428381,3,202
101,445962,445791,0,0,-2.330930,1.885571,-7.497542,93.932784,-115.736954,631.756052,-3.086014,11.522263,6.065478,-1268.000000,-1502.000000,415.000000,32.049754,111.795375,-141.029391,-0.395245,0.698653,-0.411383,0.431775,1329.800781,86287.156250,-16.519821,125.338867,98.836060,99.155479,25.250000,27.419035,3,202
101,446138,445924,0,0,0.977387,2.060869,-8.607600,59.732067,-144.707844,572.841518,-21.565403,15.561353,-17.670273,-4292.000000,-796.000000,-1209.000000,32.049754,111.795375,-141.029391,-0.395245,0.698653,-0.411383,0.431775,1327.430908,86332.406250,-15.762953,125.338867,96.466187,96.224907,25.250000,27.405014,3,202
101,446263,446121,0,0,1.818932,1.932906,-9.153082,-103.345065,-60.576210,473.934915,-8.512502,10.589725,-43.583748,-2156.000000,-1665.000000,-2982.000000,52.476634,73.829106,133.259996,0.040715,0.634753,-0.110780,0.763648,1325.558350,86339.914062,-14.768719,125.338867,94.593628,95.003899,25.250000,27.414362,3,202
101,446391,446121,0,0,1.818932,1.932906,-9.153082,-103.345065,-60.576210,473.934915,-8.512502,10.589725,-43.583748,-2156.000000,-1665.000000,-2982.000000,52.476634,73.829106,133.259996,0.040715,0.634753,-0.110780,0.763648,1325.558350,86339.914062,-14.768719,125.338867,94.593628,95.003899,25.250000,27.414362,3,202
101,446518,446258,0,0,0.510294,-0.423698,-9.386299,-103.625608,47.254182,337.839543,5.365374,13.461712,-42.662964,115.000000,-1163.000000,-2919.000000,52.476634,73.829106,133.259996,0.040715,0.634753,-0.110780,0.763648,1323.198975,86376.796875,-14.717793,125.338867,92.234253,92.185463,25.250000,27.419035,3,202
101,446646,446468,0,0,-0.617259,-0.849203,-7.415974,31.830495,-79.431098,109.339902,2.071594,9.760168,-26.556564,-424.000000,-1810.000000,-1817.000000,162.319063,98.057481,126.012236,0.619050,-0.397470,0.524638,-0.428427,1320.915649,86399.023438,-14.581753,125.338867,89.950928,90.405136,25.250000,27.451750,3,202
101,446779,446628,0,0,2.609229,-0.695580,-6.325513,22.912105,-90.155328,-43.990168,1.411616,9.662908,-14.235603,-532.000000,-1827.000000,-974.000000,162.319063,98.057481,126.012236,0.619050,-0.397470,0.524638,-0.428427,1318.750244,86418.968750,-14.836185,125.338867,87.785522,87.984810,25.250000,27.428381,3,202
101,446910,446769,0,0,2.782640,-0.845689,-10.826430,92.036635,50.917940,-116.648457,-3.128789,8.598785,-29.640457,-1275.000000,-2013.000000,-2028.000000,29.382555,74.963573,-163.095137,-0.265477,0.552640,-0.285585,0.736582,1316.529419,86443.789062,-15.238030,125.338867,85.564697,86.000969,25.250000,27.419035,3,202
101,447042,446769,0,0,2.782640,-0.845689,-10.826430,92.036635,50.917940,-116.648457,-3.128789,8.598785,-29.640457,-1275.000000,-2013.000000,-2028.000000,29.382555,74.963573,-163.095137,-0.265477,0.552640,-0.285585,0.736582,1316.529419,86443.789062,-15.238030,125.338867,85.564697,86.000969,25.250000,27.419035,3,202
101,447223,446907,0,0,1.160174,0.946693,-8.346567,67.653720,43.915418,-174.147708,-9.746905,9.376854,-34.507454,-2358.000000,-1877.000000,-2361.000000,29.382555,74.963573,-163.095137,-0.265477,0.552640,-0.285585,0.736582,1314.105347,86474.390625,-15.892476,125.338867,83.140625,83.906586,25.250000,27.423708,3,202
101,447406,447173,0,0,1.173943,0.508779,-8.408313,79.473219,-8.340434,-279.168464,-14.433972,12.117256,-2.396960,-3125.000000,-1398.000000,-164.000000,62.729550,81.347942,156.568426,-0.200661,0.625077,-0.273524,0.702993,1312.265381,86479.437500,-15.660412,125.338867,81.300659,81.710220,25.250000,27.414362,3,202
101,447512,447356,0,0,3.305719,0.149015,-10.149037,67.685590,28.166530,-347.089149,-9.349697,11.493657,3.449284,-2293.000000,-1507.000000,236.000000,62.729550,81.347942,156.568426,-0.200661,0.625077,-0.273524,0.702993,1308.845337,86554.531250,-16.244713,125.338867,77.880615,79.638145,25.375000,27.456423,3,202
101,447617,447356,0,0,3.305719,0.149015,-10.149037,67.685590,28.166530,-347.089149,-9.349697,11.493657,3.449284,-2293.000000,-1507.000000,236.000000,62.729550,81.347942,156.568426,-0.200661,0.625077,-0.273524,0.702993,1308.845337,86554.531250,-16.244713,125.338867,77.880615,79.638145,25.375000,27.456423,3,202
101,447726,447495,0,0,1.729157,0.333260,-7.705153,54.411213,26.769122,-345.022279,-0.354437,10.584004,-1.651564,-821.000000,-1666.000000,-113.000000,96.789900,77.126407,169.091168,-0.414663,0.467619,-0.542681,0.561145,1306.705078,86545.585938,-16.843370,125.338867,75.740356,76.274994,25.375000,27.433056,3,202
101,447836,447675,0,0,0.386229,-0.504035,-9.150208,14.304993,52.279402,-328.450082,2.419916,9.954685,-20.461853,-367.000000,-1776.000000,-1400.000000,96.789900,77.126407,169.091168,-0.414663,0.467619,-0.542681,0.561145,1304.630371,86565.906250,-17.204851,125.338867,73.665649,74.022041,25.375000,27.465769,3,202
101,447958,447675,0,0,0.386229,-0.504035,-9.150208,14.304993,52.279402,-328.450082,2.419916,9.954685,-20.461853,-367.000000,-1776.000000,-1400.000000,96.789900,77.126407,169.091168,-0.414663,0.467619,-0.542681,0.561145,1304.630371,86565.906250,-17.204851,125.338867,73.665649,74.022041,25.375000,27.465769,3,202
101,448068,447805,0,0,-0.273720,-0.012325,-8.514615,-2.959944,-57.368944,-320.444882,2.499358,9.857426,-22.274189,-354.000000,-1793.000000,-1524.000000,96.789900,77.126407,169.091168,-0.414663,0.467619,-0.542681,0.561145,1302.062500,86605.218750,-17.606434,125.338867,71.097778,71.850098,25.375000,27.451750,3,202
101,448238,448018,0,0,0.727014,-1.284807,-10.445142,-2.921737,-31.766547,-260.611141,-1.051080,10.103433,-40.456005,-935.000000,-1750.000000,-2768.000000,15.264223,81.955529,-119.503558,-0.452178,0.510956,-0.414031,0.602526,1299.771240,86622.625000,-17.992382,125.338867,68.806519,69.251488,25.375000,27.442402,3,202
101,448350,448018,0,0,0.727014,-1.284807,-10.445142,-2.921737,-31.766547,-260.611141,-1.051080,10.103433,-40.456005,-935.000000,-1750.000000,-2768.000000,15.264223,81.955529,-119.503558,-0.452178,0.510956,-0.414031,0.602526,1299.771240,86622.625000,-17.992382,125.338867,68.806519,69.251488,25.375000,27.442402,3,202
101,448463,448220,0,0,0.586398,-0.095373,-9.235666,-12.019439,-65.330008,-130.869525,-1.637728,9.022147,-31.774336,-1031.000000,-1939.000000,-2174.000000,15.264223,81.955529,-119.503558,-0.452178,0.510956,-0.414031,0.602526,1297.434082,86648.484375,-17.565367,125.338867,66.469360,65.686363,25.375000,27.433056,3,202
101,448579,448413,0,0,1.602583,-1.644787,-10.105079,-61.072184,9.965621,25.569734,2.254921,10.229298,-32.870502,-394.000000,-1728.000000,-2249.000000,34.171911,77.196690,-134.255400,-0.459242,0.460188,-0.443344,0.617066,1295.095459,86673.257812,-17.293703,125.338867,64.130737,64.591873,25.375000,27.433056,3,202
101,448696,448545,0,0,0.658336,-1.825411,-11.508432,29.767214,94.809385,161.299630,2.047151,10.252182,-34.405144,-418.000000,-1699.000000,-2355.000000,34.171911,77.196690,-134.255400,-0.459242,0.460188,-0.443344,0.617066,1293.583374,86668.859375,-16.839890,125.338867,62.618652,62.267006,25.250000,27.409687,3,202
101,448815,448545,0,0,0.658336,-1.825411,-11.508432,29.767214,94.809385,161.299630,2.047151,10.252182,-34.405144,-418.000000,-1699.000000,-2355.000000,34.171911,77.196690,-134.255400,-0.459242,0.460188,-0.443344,0.617066,1293.583374,86668.859375,-16.839890,125.338867,62.618652,62.267006,25.250000,27.409687,3,202
101,448933,448684,0,0,-1.469058,0.284506,-8.958982,157.469369,64.942709,236.424922,-5.285941,8.329894,-29.918152,-1628.000000,-2060.000000,-2047.000000,76.273993,99.482177,-169.039478,0.517657,-0.559374,0.454583,-0.460963,1290.934204,86724.976562,-16.468645,125.338867,59.969482,60.383163,25.250000,27.442402,3,202
101,449056,448883,0,0,-3.707756,3.962346,-8.672648,181.548873,-129.688736,360.202430,-14.482862,10.543957,-17.129494,-3133.000000,-1673.000000,-1172.000000,76.273993,99.482177,-169.039478,0.517657,-0.559374,0.454583,-0.460963,1288.995728,86727.945312,-16.514915,125.338867,58.031006,57.857101,25.250000,27.442402,3,202
101,449232,449017,0,0,-2.771111,4.285760,-9.919565,66.665474,-226.189678,536.410218,-15.955588,11.087461,-27.360422,-3374.000000,-1578.000000,-1872.000000,115.157823,62.774220,57.113875,0.191842,0.766421,-0.099214,0.604940,1287.179321,86744.164062,-16.183189,125.338867,56.214600,56.587994,25.250000,27.433056,3,202
101,449356,449214,0,0,-1.159633,6.620260,-7.720973,131.960334,-228.270495,826.678231,-8.359729,9.537045,-36.904411,-2131.000000,-1849.000000,-2525.000000,115.157823,62.774220,57.113875,0.191842,0.766421,-0.099214,0.604940,1284.046387,86809.882812,-16.218729,125.338867,53.081665,54.082314,25.250000,27.447075,3,202
101,449481,449214,0,0,-1.159633,6.620260,-7.720973,131.960334,-228.270495,826.678231,-8.359729,9.537045,-36.904411,-2131.000000,-1849.000000,-2525.000000,115.157823,62.774220,57.113875,0.191842,0.766421,-0.099214,0.604940,1284.046387,86809.882812,-16.218729,125.338867,53.081665,54.082314,25.250000,27.447075,3,202
101,449603,449352,0,0,-3.925816,2.684484,-7.520656,187.014719,-121.652691,939.941127,-5.713705,8.673161,-35.705933,-1698.000000,-2000.000000,-2443.000000,160.253587,122.308320,-145.635575,0.848873,-0.003078,0.498465,0.175891,1282.821045,86775.710938,-16.090902,125.338867,51.856323,52.280231,25.250000,27.456423,3,202
101,449732,449554,0,0,-0.253610,0.634093,-10.631734,137.538304,84.056215,977.269696,2.053262,10.017616,-29.991230,-427.000000,-1765.000000,-2052.000000,160.253587,122.308320,-145.635575,0.848873,-0.003078,0.498465,0.175891,1280.390625,86831.250000,-15.754396,125.338867,49.425903,49.732922,25.250000,27.475117,3,202
101,449862,449714,0,0,-1.218001,-4.393706,-8.351047,34.611632,240.728078,885.228798,1.986041,9.868868,-11.239404,-438.000000,-1791.000000,-769.000000,177.086998,118.633132,105.494171,0.676462,-0.326198,0.392816,-0.530744,1277.376831,86877.632812,-15.884183,125.338867,46.412109,46.939266,25.250000,27.456423,3,202
101,449993,449853,0,0,4.286657,-5.372803,-8.469811,-117.609669,355.304938,877.764331,4.583178,10.887222,-19.453377,-13.000000,-1613.000000,-1331.000000,177.086998,118.633132,105.494171,0.676462,-0.326198,0.392816,-0.530744,1277.555908,86796.773438,-15.235020,125.338867,46.591187,44.736767,25.250000,27.442402,3,202
101,450126,449853,0,0,4.286657,-5.372803,-8.469811,-117.609669,355.304938,877.764331,4.583178,10.887222,-19.453377,-13.000000,-1613.000000,-1331.000000,177.086998,118.633132,105.494171,0.676462,-0.326198,0.392816,-0.530744,1277.555908,86796.773438,-15.235020,125.338867,46.591187,44.736767,25.250000,27.442402,3,202
101,450308,449991,0,0,4.825463,-3.167260,-7.189435,-262.217328,353.516494,753.494667,4.479293,15.349671,8.667056,-30.000000,-833.000000,593.000000,96.633407,51.240677,-146.720537,0.481117,-0.082683,0.727546,-0.482045,1274.989502,86891.867188,-14.661940,125.338867,44.024780,44.285572,25.250000,27.447075,3,202
101,450441,450259,0,0,9.420203,-3.047658,-5.487595,-317.226196,256.976551,713.739086,-7.204767,8.856235,-10.289389,-1942.000000,-1968.000000,-704.000000,96.633407,51.240677,-146.720537,0.481117,-0.082683,0.727546,-0.482045,1273.632202,86876.351562,-14.062827,125.338867,42.667480,41.066540,25.250000,27.475117,3,202
101,450623,450395,0,0,6.351997,-0.271299,-6.966698,-288.027520,229.104926,583.217231,4.601511,10.641215,-17.334112,-10.000000,-1656.000000,-1186.000000,51.462880,47.616514,-177.554333,-0.192807,0.355089,-0.404878,0.820251,1268.901489,86998.632812,-14.962697,125.338867,37.936768,38.505257,25.250000,27.451750,3,202
101,450729,450395,0,0,6.351997,-0.271299,-6.966698,-288.027520,229.104926,583.217231,4.601511,10.641215,-17.334112,-10.000000,-1656.000000,-1186.000000,51.462880,47.616514,-177.554333,-0.192807,0.355089,-0.404878,0.820251,1268.901489,86998.632812,-14.962697,125.338867,37.936768,38.505257,25.250000,27.451750,3,202
101,450837,450606,0,0,1.408073,-1.686161,-8.386875,-146.147634,136.916920,527.016467,-1.876053,11.608080,5.510085,-1196.000000,-1487.000000,377.000000,51.462880,47.616514,-177.554333,-0.192807,0.355089,-0.404878,0.820251,1265.883911,86999.640625,-15.623188,125.338867,34.919189,35.486542,25.250000,27.456423,3,202
101,450944,450785,0,0,3.310832,-2.722519,-7.802354,-64.226263,110.921692,579.288452,-11.989609,9.382575,-17.231804,-2725.000000,-1876.000000,-1179.000000,179.025351,118.783519,39.430689,-0.286257,0.481770,-0.164868,0.811648,1264.501343,86973.828125,-16.869473,125.338867,33.536621,33.984726,25.250000,27.489136,3,202
101,451069,450785,0,0,3.310832,-2.722519,-7.802354,-64.226263,110.921692,579.288452,-11.989609,9.382575,-17.231804,-2725.000000,-1876.000000,-1179.000000,179.025351,118.783519,39.430689,-0.286257,0.481770,-0.164868,0.811648,1264.501343,86973.828125,-16.869473,125.338867,33.536621,33.984726,25.250000,27.489136,3,202
101,451176,450913,0,0,2.707073,-1.276145,-10.187918,-120.056598,111.519620,600.941408,-1.460511,9.159452,-32.885124,-1002.000000,-1915.000000,-2250.000000,179.025351,118.783519,39.430689,-0.286257,0.481770,-0.164868,0.811648,1261.507080,87045.531250,-18.078909,125.338867,30.542358,31.845747,25.250000,27.479790,3,202
101,451342,451127,0,0,0.402541,-1.764170,-12.877038,-63.621341,165.477247,569.160046,-0.824977,9.891752,-5.217772,-898.000000,-1787.000000,-357.000000,7.604383,82.001038,-102.853435,0.503546,-0.480586,0.447293,-0.561611,1259.088623,87056.945312,-19.104521,125.338867,28.123901,28.640404,25.375000,27.465769,3,202
101,451455,451127,0,0,0.402541,-1.764170,-12.877038,-63.621341,165.477247,569.160046,-0.824977,9.891752,-5.217772,-898.000000,-1787.000000,-357.000000,7.604383,82.001038,-102.853435,0.503546,-0.480586,0.447293,-0.561611,1259.088623,87056.945312,-19.104521,125.338867,28.123901,28.640404,25.375000,27.465769,3,202
101,451566,451325,0,0,-0.329510,0.025339,-11.894330,47.485698,69.008270,659.447005,-11.402963,10.114875,-37.971352,-2629.000000,-1748.000000,-2598.000000,7.604383,82.001038,-102.853435,0.503546,-0.480586,0.447293,-0.561611,1256.281860,87096.382812,-18.703609,125.338867,25.317139,24.903633,25.375000,27.447075,3,202
101,451681,451517,0,0,0.205931,1.725537,-11.902012,57.988504,-3.453042,741.731551,2.536023,9.994732,-28.778135,-348.000000,-1769.000000,-1969.000000,12.614467,98.306913,-83.194341,0.541320,-0.445435,0.609985,-0.369430,1253.446045,87127.234375,-18.483269,125.338867,22.481323,23.036072,25.375000,27.489136,3,202
101,451796,451649,0,0,1.314067,2.024970,-11.141246,12.800952,-77.048734,792.773719,-8.170291,11.224767,4.501607,-1946.000000,-1578.000000,339.000000,12.614467,98.306913,-83.194341,0.541320,-0.445435,0.609985,-0.369430,1250.914307,87146.601562,-18.932219,125.338867,19.949585,20.609795,25.375000,27.470442,3,202
101,451911,451649,0,0,1.314067,2.024970,-11.141246,12.800952,-77.048734,792.773719,-8.170291,11.224767,4.501607,-1946.000000,-1578.000000,339.000000,12.614467,98.306913,-83.194341,0.541320,-0.445435,0.609985,-0.369430,1250.914307,87146.601562,-18.932219,125.338867,19.949585,20.609795,25.375000,27.470442,3,202
101,452026,451789,0,0,1.054621,2.111772,-11.193433,-9.980692,-97.734577,816.523871,-13.162904,10.995923,-41.552177,-2917.000000,-1594.000000,-2843.000000,74.263028,78.091957,116.537589,0.002224,0.673721,-0.134603,0.726620,1248.931152,87154.078125,-18.622002,125.338867,17.966431,18.420574,25.375000,27.465769,3,202
101,452148,451977,0,0,1.830591,1.827169,-10.469918,-36.839967,-48.661539,820.162449,5.267600,11.018807,-21.777258,99.000000,-1590.000000,-1490.000000,74.263028,78.091957,116.537589,0.002224,0.673721,-0.134603,0.726620,1246.781738,87181.054688,-18.774218,125.338867,15.817017,15.622059,25.375000,27.498484,3,202
101,452325,452111,0,0,1.954234,1.412071,-9.738209,-49.604437,-46.560863,794.263246,-14.128428,12.471964,0.891552,-3075.000000,-1336.000000,61.000000,78.287164,76.094188,144.149244,-0.182190,0.607790,-0.325879,0.700857,1244.908081,87194.132812,-18.328728,125.338867,13.943359,14.344397,25.375000,27.475117,3,202
101,452444,452307,0,0,1.719716,1.032710,-9.744934,-78.994129,-28.319038,725.313361,-11.011865,10.252182,-38.979832,-2565.000000,-1724.000000,-2667.000000,78.287164,76.094188,144.149244,-0.182190,0.607790,-0.325879,0.700857,1242.884155,87219.382812,-17.612848,125.338867,11.919434,11.627410,25.375000,27.451750,3,202
