index, checksum,uptime mp,uptime nav,missiontime,  errorflag mp,errorflag NAV,  accel x, accel y, accel z, accelworld x, accelworld y, accelworld z, accelhighg x, accelhighg y, accelhighg z, gyro x, gyro y, gyro z, euler x, euler y, euler z, quat w, quat x, quat y, quat z, altitude, presusre, verticalvel,filtered vvel, maxalt, altitudeagl, filtered alt, imutemp, barotemp,state,battstate,pyros fired,pyros cont,pyros state, checksum2
1378, 101,116991,116980,-8108,1,1,0.404695,-0.725110,9.964665,0.025442,-0.033107,0.198119,10.860798,-9.047205,3.476542,-1.211457,-4.167206,-0.077369,90.829345,-175.425144,-111.441175,0.572247,-0.595587,0.371567,0.423966,1420.155518,85928.781250,-1.148692,0.902231,2.505005,1.631836,1.776659,20.625000,26.248632,0,5.370000,0,0,0, 202
1379, 101,117041,117029,-8058,1,1,0.432246,-0.709655,9.976497,-0.043203,-0.001057,0.209947,10.860798,-7.605628,3.476542,0.700467,-1.552891,-2.495573,90.822139,-175.061901,-111.464623,0.570967,-0.596893,0.369556,0.425611,1420.106323,85927.671875,-2.780221,-0.575160,2.505005,1.582642,1.620037,20.625000,26.253174,0,5.370000,0,0,0, 202
1380, 101,117091,117078,-8008,1,1,0.426272,-0.719107,9.959410,-0.034004,-0.013994,0.193364,9.899747,-8.086153,2.996016,0.427031,0.859418,0.737576,90.848087,-175.068800,-111.438867,0.571032,-0.596658,0.369630,0.425789,1420.246826,85927.429688,0.761878,-0.566078,2.505005,1.723145,1.594513,20.625000,26.262257,0,5.370000,0,0,0, 202
1381, 101,117140,117127,-7959,1,1,0.429167,-0.705358,9.968649,-0.051372,-0.015101,0.201640,10.860798,-7.125102,3.957067,-0.688150,-1.458189,0.397441,90.895392,-175.040413,-111.470272,0.571868,-0.596150,0.370808,0.424352,1420.074585,85931.171875,-0.267745,-0.466573,2.505005,1.550903,1.596637,20.625000,26.271338,0,5.370000,0,0,0, 202
1382, 101,117191,117176,-7908,1,1,0.442585,-0.701421,9.971965,-0.013272,0.009211,0.205383,10.860798,-7.605628,2.996016,0.104983,-1.345246,-2.182817,90.836721,-175.253324,-111.456728,0.571715,-0.596166,0.370553,0.424757,1420.288574,85924.679688,0.532749,-0.458117,2.505005,1.764893,1.575699,20.625000,26.253174,0,5.370000,0,0,0, 202
1383, 101,117241,117225,-7858,1,1,0.447362,-0.710164,9.979563,-0.014504,0.012837,0.203469,10.860798,-8.086153,2.996016,0.686670,-0.934853,-1.813502,90.926361,-175.228585,-111.449706,0.572065,-0.595777,0.370126,0.425203,1420.040527,85931.171875,-1.066034,-0.449140,2.505005,1.516846,1.555392,20.625000,26.271338,0,5.370000,0,0,0, 202
1384, 101,117290,117291,-7809,1,1,0.393214,-0.695299,9.969209,-0.042643,-0.049838,0.199944,10.860798,-8.566679,3.957067,-1.189407,-0.929150,0.442383,90.924448,-175.219310,-111.463927,0.572073,-0.595863,0.370011,0.425172,1420.133301,85927.187500,-1.829602,-0.672586,2.505005,1.609619,1.532967,20.625000,26.271338,0,5.370000,0,0,0, 202
1385, 101,117341,117340,-7758,1,1,0.421845,-0.717856,9.933181,-0.017924,-0.023741,0.166972,9.899747,-7.125102,3.957067,-1.197335,0.080702,0.325211,90.879724,-175.163329,-111.506451,0.571794,-0.596408'b',0.369660,0.425090,1420.211182,85927.429688,1.317320,-0.663626,2.505005,1.687500,1.503075,20.625000,26.262257,0,5.380000,0,0,0, 202
1386, 101,117390,117389,-7709,1,1,0.418781,-0.691833,9.977642,-0.040604,0.025703,0.209247,9.899747,-8.566679,2.996016,-2.428910,0.382952,-1.296240,90.631317,-175.199475,-111.506096,0.570631,-0.597526,0.370773,0.424111,1420.484863,85925.195312,4.894033,0.402593,2.505005,1.961182,1.652761,20.625000,26.271338,0,5.370000,0,0,0, 202
1387, 101,117441,117438,-7658,1,1,0.438696,-0.721572,9.958164,-0.013892,0.044378,0.192798,11.341324,-7.605628,2.996016,-1.285662,-0.727622,-1.958006,90.569866,-175.143631,-111.496015,0.570068,-0.597982,0.370759,0.424238,1420.354736,85926.195312,3.485396,0.412097,2.505005,1.831055,1.670861,20.625000,26.271338,0,5.370000,0,0,0, 202
1388, 101,117490,117487,-7609,1,1,0.427194,-0.675751,9.963615,-0.020116,-0.004246,0.194616,10.380273,-7.605628,3.476542,3.956571,-0.802043,0.981785,90.884034,-175.378317,-111.487791,0.572533,-0.595619,0.370875,0.424141,1420.192871,85931.171875,-1.659779,0.280439,2.505005,1.669189,1.702543,20.625000,26.271338,0,5.370000,0,0,0, 202
1389, 101,117541,117536,-7558,1,1,0.424304,-0.711821,9.962095,0.022536,-0.021479,0.195454,10.380273,-6.164050,3.476542,1.179248,-0.444129,0.103415,90.888958,-175.435963,-111.519681,0.572887,-0.595508,0.370995,0.423714,1420.274292,85928.062500,-1.812555,0.290049,2.505005,1.750610,1.715222,20.625000,26.275879,0,5.370000,0,0,0, 202
1390, 101,117591,117586,-7508,1,1,0.456108,-0.709962,9.991344,0.029405,0.009366,0.225869,10.380273,-7.605628,2.515490,0.249058,0.401937,0.069103,90.882094,-175.431742,-111.530664,0.572567,-0.595840,0.369977,0.424569,1420.132080,85930.054688,-1.306124,-0.291219,2.505005,1.608398,1.661113,20.625000,26.275879,0,5.370000,0,0,0, 202
1391, 101,117641,117635,-7458,1,1,0.426118,-0.699027,9.978891,-0.028978,-0.021882,0.211351,10.380273,-7.125102,2.515490,-0.827969,-1.515488,-1.117211,90.920521,-175.211906,-111.592314,0.572502,-0.596322,0.369318,0.424554,1420.016846,85928.062500,-4.139618,-0.281352,2.505005,1.493164,1.648091,20.625000,26.275879,0,5.370000,0,0,0, 202
1392, 101,117691,117683,-7408,1,1,0.410145,-0.693638,9.944682,-0.031451,-0.031085,0.176179,10.860798,-7.605628,3.476542,0.597342,0.775659,0.458962,90.904306,-175.243871,-111.572233,0.572460,-0.596233,0.369652,0.424445,1420.239014,85925.078125,-0.980739,-0.271873,2.505005,1.715332,1.635716,20.625000,26.275879,0,5.370000,0,0,0, 202
1393, 101,117740,117733,-7359,1,1,0.447425,-0.737717,9.958895,0.005722,-0.027871,0.195159,9.899747,-7.605628,2.996016,-0.623564,-2.163890,0.799232,90.992695,-175.151691,-111.540582,0.572466,-0.595992,0.369002,0.425341,1420.209229,85925.828125,2.240290,0.249403,2.505005,1.685547,1.680914,20.625000,26.284962,0,5.370000,0,0,0, 202
1394, 101,117791,117782,-7308,1,1,0.443918,-0.705529,9.968564,-0.027622,-0.019074,0.202298,10.380273,-6.644576,3.476542,-0.452299,-0.287949,0.889599,90.989772,-175.143454,-111.550848,0.572458,-0.596067,0.368915,0.425320,1420.092651,85926.828125,-1.208850,0.258489,2.505005,1.568970,1.692181,20.625000,26.284962,0,5.370000,0,0,0, 202
1395, 101,117841,117831,-7258,1,1,0.433331,-0.697005,9.973265,-0.000150,0.012125,0.205970,9.419221,-6.644576,3.957067,-2.836566,1.659049,-0.971666,90.767770,-175.369656,-111.607149,0.572338,-0.596615,0.370639,0.423211,1420.057007,85930.687500,-1.116532,-0.340441,2.505005,1.533325,1.623809,20.625000,26.289503,0,5.370000,0,0,0, 202
1396, 101,117890,117879,-7209,1,1,0.430546,-0.701989,9.972535,-0.000809,0.019150,0.205460,9.899747,-7.125102,2.515490,1.075303,1.643769,-3.070884,90.694291,-175.343565,-111.705237,0.572222,-0.597384,0.370261,0.422612,1420.057739,85931.687500,-0.337743,-0.331649,2.505005,1.534058,1.608929,20.625000,26.289503,0,5.370000,0,0,0, 202
1397, 101,117940,117928,-7159,1,1,0.420682,-0.735331,9.968173,0.030129,0.006158,0.203060,10.860798,-7.125102,2.515490,0.948666,1.111675,0.009374,90.641740,-175.362156,-111.753144,0.571785,-0.598083,0.369376,0.422989,1420.158813,85927.703125,1.300446,0.246705,2.505005,1.635132,1.631561,20.625000,26.289503,0,5.370000,0,0,0, 202
1398, 101,117990,117977,-7109,1,1,0.426856,-0.673240,9.999190,-0.068076,0.023751,0.229656,9.899747,-7.125102,2.515490,-0.599039,-2.226768,0.247380,90.700992,-175.130285,-111.788436,0.571785,-0.598316,0.368677,0.423270,1420.251099,85929.695312,2.371907,0.255948,2.505005,1.727417,1.642797,20.625000,26.289503,0,5.370000,0,0,0, 202
1399, 101,118040,118026,-7059,1,1,0.432672,-0.732299,10.005942,-0.051392,0.017305,0.252542,10.860798,-6.644576,2.996016,1.996891,-0.801818,1.800150,90.775557,-175.136924,-111.784529,0.572184,-0.597910,0.368457,0.423496,1420.148438,85930.812500,0.361868,0.266015,2.505005,1.624756,1.654290,20.625000,26.284962,0,5.370000,0,0,0, 202
1400, 101,118090,118075,-7009,1,1,0.435508,-0.721730,9.962138,-0.000248,0.009027,0.204278,11.341324,-7.605628,2.515490,-0.161593,-1.424426,0.188916,90.793008,-175.179859,-111.788688,0.572447,-0.597696,0.368598,0.423320,1420.394531,85926.585938,0.343026,0.294724,2.505005,1.870850,1.637572,20.625000,26.294044,0,5.370000,0,0,0, 202
1401, 101,118141,118141,-6958,1,1,0.405482,-0.707433,9.977258,-0.035985,-0.041883,0.209370,10.860798,-7.605628,2.996016,-0.418292,-2.181420,-0.890605,90.890605,-175.167318,-111.803585,0.572965,-0.597297,0.368093,0.423621,1420.113159,85935.664062,0.271171,0.307173,2.505005,1.589478,1.655325,20.625000,26.289503,0,5.370000,0,0,0, 202
1402, 101,118190,118190,-6909,1,1,0.465129,-0.687361,9.986650,-0.034826,0.008634,0.220013,10.860798,-7.125102,2.996016,0.247283,-2.514955,-0.175467,90.959316,-175.158248,-111.813612,0.573327,-0.597015,0.367739,0.423836,1420.150146,85931.445312,-2.078258,-0.116423,2.505005,1.626465,1.662814,20.625000,26.298586,0,5.370000,0,0,0, 202
1403, 101,118241,118238,-6858,1,1,0.390369,-0.702811,9.998131,-0.040159,-0.084715,0.228963,10.380273,-7.605628,3.476542,3.937119,-1.592877,0.191631,91.065416,-175.210185,-111.775165,0.573927,-0.596190,0.367821,0.424114,1420.057617,85931.445312,-2.421360,-0.107437,2.505005,1.533936,1.657776,20.625000,26.298586,0,5.370000,0,0,0, 202
1404, 101,118290,118288,-6809,1,1,0.436078,-0.728075,9.942751,0.025774,0.019709,0.177853,10.860798,-7.605628,2.996016,0.063918,0.040222,-0.389272,90.661684,-175.331024,-111.770110,0.572245,-0.597798,0.369977,0.422245,1420.180298,85924.593750,-2.539235,-1.242378,2.505005,1.656616,1.575920,20.625000,26.294044,0,5.370000,0,0,0, 202
1405, 101,118340,118337,-6759,1,1,0.415977,-0.710879,10.020503,-0.000678,0.003969,0.253295,10.380273,-7.125102,2.034964,0.777116,-2.073001,-0.349583,90.675658,-175.349288,-111.779017,0.572417,-0.597697,0.369975,0.422155,1420.138672,85929.570312,0.918553,-1.233765,2.505005,1.614990,1.520614,20.625000,26.294044,0,5.370000,0,0,0, 202
1406, 101,118391,118386,-6708,1,1,0.416624,-0.678554,9.966538,-0.029305,0.004688,0.197251,10.380273,-7.125102,3.957067,1.281226,-1.242555,1.244994,90.751808,-175.330983,-111.724007,0.573228,-0.596590,0.370583,0.422089,1420.173218,85924.351562,-0.980969,-1.150352,2.505005,1.649536,1.617612,20.625000,26.303127,0,5.370000,0,0,0, 202
1407, 101,118440,118435,-6659,1,1,0.435124,-0.695465,9.962147,0.017284,0.013998,0.194843,10.380273,-8.086153,3.957067,0.311457,0.525819,-1.086146,90.759315,-175.466781,-111.748185,0.573168,-0.596794,0.370448,0.422000,1420.095581,85932.195312,0.287591,-1.141233,2.505005,1.571899,1.565902,20.625000,26.307669,0,5.370000,0,0,0, 202
1408, 101,118491,118483,-6608,1,1,0.416088,-0.668128,9.967633,-0.016968,0.010663,0.197642,10.860798,-7.605628,2.996016,0.347653,-1.807465,1.089751,90.734221,-175.458202,-111.757345,0.573040,-0.596977,0.370447,0.421916,1420.107056,85932.195312,-0.027883,-1.132681,2.505005,1.583374,1.515191,20.625000,26.307669,0,5.370000,0,0,0, 202
1409, 101,118541,118533,-6558,1,1,0.442885,-0.723202,9.970840,0.049477,0.038357,0.205643,10.380273,-6.644576,2.515490,0.520901,2.130391,-0.425693,90.599563,-175.491261,-111.770691,0.572507,-0.597585,0.371047,0.421250,1420.159180,85928.335938,-0.316745,-0.972934,2.505005,1.635498,1.574146,20.625000,26.303127,0,5.370000,0,0,0, 202
1410, 101,118590,118582,-6509,1,1,0.426060,-0.724927,9.987763,0.044013,0.025734,0.221967,9.899747,-7.605628,3.476542,0.649484,0.200738,0.359196,90.579612,-175.494348,-111.748384,0.572332,-0.597603,0.371253,0.421281,1420.243408,85927.218750,1.072012,-0.962823,2.505005,1.719727,1.530805,20.625000,26.307669,0,5.370000,0,0,0, 202
1411, 101,118641,118631,-6458,1,1,0.434547,-0.750361,9.940718,-0.018556,0.012455,0.177439,10.380273,-7.605628,2.996016,1.820911,-2.259908,1.626276,90.650981,-174.960787,-111.732353,0.570696,-0.598938,0.368259,0.424223,1420.231323,85929.093750,1.711465,0.034721,2.505005,1.707642,1.664792,20.625000,26.312210,0,5.370000,0,0,0, 202
1412, 101,118691,118680,-6408,1,1,0.413066,-0.743557,9.995245,-0.039496,0.004528,0.230293,10.380273,-6.644576,2.996016,-1.161859,4.590125,1.195116,90.597357,-174.950282,-111.683264,0.570195,-0.599081,0.368659,0.424346,1420.484253,85923.234375,2.955552,0.043229,2.505005,1.960571,1.666457,20.625000,26.307669,0,5.370000,0,0,0, 202
1413, 101,118740,118729,-6359,1,1,0.442946,-0.721335,9.969329,-0.043043,0.046726,0.203999,9.899747,-7.605628,4.437593,0.135090,4.093854,0.580014,90.565180,-174.972043,-111.660848,0.572102,-0.597183,0.369277,0.423917,1420.223633,85930.960938,1.410086,0.526555,2.505005,1.699951,1.679048,20.625000,26.316750,0,5.370000,0,0,0, 202
1414, 101,118790,118778,-6309,1,1,0.429315,-0.713048,9.959763,-0.014901,0.007952,0.193465,10.380273,-7.125102,2.515490,-1.795968,0.399532,-1.462485,90.731816,-175.201114,-111.674904,0.571785,-0.597565,0.369529,0.423586,1420.344727,85926.101562,-0.837001,0.535630,2.505005,1.821045,1.702811,20.625000,26.312210,0,5.370000,0,0,0, 202
1415, 101,118840,118826,-6259,1,1,0.403488,-0.723979,9.952682,-0.013231,-0.016288,0.186112,10.380273,-8.086153,3.476542,-0.006278,-0.824931,1.428063,90.714324,-175.204256,-111.628999,0.571536,-0.597494,0.369850,0.423744,1420.394775,85923.992188,1.271216,0.544325,2.505005,1.871094,1.726860,20.625000,26.316750,0,5.370000,0,0,0, 202
1416, 101,118891,118876,-6208,1,1,0.412568,-0.701149,9.996439,-0.012838,0.031808,0.231015,10.860798,-7.125102,3.476542,-0.246750,1.282991,1.844577,90.550229,-175.308512,-111.569555,0.570842,-0.597778,0.371316,0.422996,1420.365356,85923.000000,-0.710897,0.480955,2.505005,1.841675,1.706503,20.625000,26.316750,0,5.370000,0,0,0, 202
1417, 101,118941,118941,-6158,1,1,0.407387,-0.709289,9.957959,-0.008660,0.044615,0.190393,11.341324,-6.644576,4.918118,-0.514588,1.786232,0.327009,90.423549,-175.303840,-111.543369,0.570067,-0.598340,0.371895,0.422738,1420.249023,85928.218750,0.321727,0.493921,2.505005,1.725342,1.735227,20.625000,26.307669,0,5.370000,0,0,0, 202
1418, 101,118990,118990,-6109,1,1,0.411063,-0.721675,9.982808,-0.000375,0.000913,0.216297,10.380273,-7.125102,3.476542,0.275959,-0.415433,-1.003091,90.668856,-175.289907,-111.508015,0.571165,-0.597049,0.371100,0.423778,1420.330444,85925.984375,0.225141,0.334533,2.505005,1.806763,1.691027,20.625000,26.316750,0,5.370000,0,0,0, 202
1419, 101,119041,119039,-6058,1,1,0.451048,-0.709484,9.958206,0.013723,0.037158,0.192554,10.860798,-6.644576,2.996016,0.141098,-0.444970,0.173045,90.703123,-175.340505,-111.489171,0.571459,-0.596651,0.371338,0.423734,1420.383789,85923.992188,1.318403,0.344305,2.505005,1.860107,1.706164,20.625000,26.316750,0,5.370000,0,0,0, 202
1420, 101,119091,119089,-6008,1,1,0.427593,-0.716130,9.966742,0.012501,0.022999,0.200546,10.860798,-7.125102,2.996016,0.805690,0.596403,-0.971871,90.644977,-175.351269,-111.485776,0.571183,-0.596895,0.371628,0.423510,1420.399902,85923.992188,1.692316,0.488379,2.505005,1.876221,1.730875,20.625000,26.316750,0,5.370000,0,0,0, 202
1421, 101,119141,119138,-5958,1,1,0.408714,-0.712134,9.991262,-0.000217,0.016072,0.223931,9.899747,-7.125102,2.996016,-0.128471,2.388929,-0.720964,90.586415,-175.349835,-111.542617,0.571082,-0.597375,0.371540,0.423043,1420.240967,85926.859375,-0.788696,0.497791,2.505005,1.717285,1.752790,20.625000,26.321291,0,5.370000,0,0,0, 202
1422, 101,119191,119187,-5908,1,1,0.410252,-0.718322,10.008899,0.006535,0.015036,0.242011,9.899747,-7.605628,2.996016,-1.252603,-0.778396,-0.461936,90.583130,-175.360094,-111.583455,0.571532,-0.597214,0.370933,0.423196,1420.285522,85928.726562,-0.996403,-0.046696,2.505005,1.761841,1.739301,20.625000,26.325832,0,5.370000,0,0,0, 202
1423, 101,119241,119235,-5858,1,1,0.401712,-0.692289,9.978318,-0.026586,0.010665,0.209327,9.899747,-6.164050,3.957067,0.119822,0.260632,0.137581,90.615997,-175.311872,-111.626772,0.571408,-0.597625,0.370792,0.422907,1420.206177,85928.726562,-0.337570,-0.036324,2.505005,1.682495,1.737364,20.625000,26.325832,0,5.370000,0,0,0, 202
1424, 101,119291,119284,-5808,1,1,0.433718,-0.708308,9.927041,0.006679,0.035717,0.160658,10.860798,-7.605628,3.957067,-0.699179,0.237244,-0.511731,90.611441,-175.326011,-111.634661,0.571465,-0.597627,0.370842,0.422783,1420.123291,85927.734375,-2.878765,-0.027238,2.505005,1.599609,1.735886,20.625000,26.325832,0,5.370000,0,0,0, 202
1425, 101,119341,119334,-5758,1,1,0.410788,-0.715340,9.961032,-0.008207,-0.013096,0.194118,10.380273,-7.605628,2.996016,-2.270021,-0.237816,-0.753146,90.750456,-175.267258,-111.655459,0.572052,-0.597193,0.369911,0.423418,1420.139404,85929.726562,-1.617859,-0.694140,2.505005,1.615723,1.712789,20.625000,26.325832,0,5.370000,0,0,0, 202
1426, 101,119391,119382,-5708,1,1,0.418571,-0.753681,9.972903,0.024391,-0.029978,0.209022,9.899747,-7.125102,2.515490,-0.408054,-1.280679,1.006625,90.805063,-175.239623,-111.670943,0.572293,-0.597061,0.369482,0.423653,1420.381592,85921.757812,0.956932,-0.685233,2.505005,1.857910,1.681919,20.625000,26.325832,0,5.370000,0,0,0, 202
1427, 101,119441,119431,-5658,1,1,0.423744,-0.723772,9.950421,-0.001707,-0.010463,0.184699,10.380273,-8.566679,2.515490,-0.509885,-2.028682,0.240296,90.787933,-175.227465,-111.647795,0.572074,-0.597112,0.369602,0.423773,1420.411621,85927.492188,4.375174,0.920127,2.505005,1.887939,1.834172,20.625000,26.334915,0,5.370000,0,0,0, 202
1428, 101,119490,119480,-5609,1,1,0.408854,-0.706276,9.976775,-0.036581,-0.031095,0.208981,10.380273,-6.644576,3.957067,-0.986892,-0.845375,0.904074,90.865954,-175.165105,-111.596726,0.572063,-0.596762,0.369250,0.424586,1420.362061,85928.367188,1.844515,0.929088,2.505005,1.838379,1.875416,20.625000,26.339457,0,5.370000,0,0,0, 202
1429, 101,120495,120487,-4604,1,1,0.420010,-0.732308,9.978256,-0.016833,-0.021654,0.212867,9.899747,-8.566679,4.918118,-2.115893,-1.293820,0.607816,90.814427,-175.117157,-111.617128,0.571695,-0.597242,0.369081,0.424554,1420.249756,85926.320312,-2.402600,1.348670,2.505005,1.726074,1.865744,20.625000,26.416656,0,5.370000,0,0,0, 202
1430, 101,120545,120535,-4554,1,1,0.413001,-0.717296,9.959152,-0.028201,-0.020595,0.192427,10.860798,-8.086153,3.957067,1.465452,0.736868,-1.762012,90.799572,-175.136432,-111.675662,0.571905,-0.597441,0.368933,0.424119,1419.974609,85940.257812,-0.294832,1.506490,2.505005,1.450928,1.820181,20.625000,26.416656,0,5.370000,0,0,0, 202
1431, 101,120595,120584,-4504,1,1,0.484517,-0.745099,9.991254,0.017419,0.044970,0.229591,9.899747,-6.644576,2.996016,-1.212986,0.934914,0.049328,90.742096,-175.114972,-111.687130,0.571569,-0.597835,0.368973,0.423983,1420.071289,85928.789062,-2.813008,1.515619,2.505005,1.547607,1.887177,20.625000,26.398491,0,5.370000,0,0,0, 202
1432, 101,120645,120633,-4454,1,1,0.400958,-0.687658,9.970079,-0.066027,-0.021779,0.200564,10.380273,-8.086153,3.476542,0.813052,-1.531861,-0.265791,90.801942,-175.107295,-111.705702,0.572593,-0.597084,0.370803,0.422058,1420.224731,85928.039062,1.050177,1.340697,2.505005,1.701050,1.757366,20.625000,26.389408,0,5.370000,0,0,0, 202
1433, 101,120695,120682,-4404,1,1,0.442832,-0.707268,9.984440,0.025509,0.027741,0.218179,10.860798,-7.605628,3.476542,-0.764717,-0.961505,-0.429308,90.699981,-175.446045,-111.686031,0.572554,-0.596958,0.370881,0.422221,1420.231567,85927.039062,1.674826,1.350067,2.505005,1.707886,1.817998,20.625000,26.389408,0,5.370000,0,0,0, 202
1434, 101,120744,120731,-4355,1,1,0.411507,-0.731782,9.979140,0.038524,-0.011038,0.213314,10.860798,-7.125102,3.476542,-0.126266,2.314223,-1.038551,90.702542,-175.454022,-111.701269,0.572653,-0.596968,0.370834,0.422114,1420.116943,85929.273438,-0.125363,1.359883,2.505005,1.593262,1.877964,20.625000,26.380327,0,5.370000,0,0,0, 202
1435, 101,120794,120780,-4305,1,1,0.409551,-0.704028,9.970116,-0.017252,0.013268,0.197564,9.899747,-5.202998,2.996016,-1.861548,-0.840422,-0.079508,90.665823,-175.260892,-111.714560,0.571806,-0.597827,0.369882,0.422881,1420.213135,85929.273438,0.234472,0.523202,2.505005,1.689453,1.681269,20.625000,26.380327,0,5.370000,0,0,0, 202
1436, 101,120845,120828,-4254,1,1,0.434679,-0.726287,9.982874,-0.042485,0.047003,0.220065,10.860798,-6.644576,3.957067,-1.933449,0.671519,-1.154721,90.712152,-175.155256,-111.682172,0.571542,-0.597837,0.369322,0.423713,1420.174561,85929.273438,0.945007,0.532270,2.505005,1.650879,1.704604,20.625000,26.380327,0,5.380000,0,0,0, 202
1437, 101,120895,120894,-4204,1,1,0.415000,-0.684389,10.005542,-0.023425,0.013894,0.236467,9.899747,-7.605628,3.476542,0.339850,-1.605625,-0.964995,90.675276,-175.355244,-111.725359,0.572239,-0.597506,0.370288,0.422393,1420.219971,85930.273438,0.867989,0.413955,2.505005,1.696289,1.676097,20.625000,26.380327,0,5.370000,0,0,0, 202
1438, 101,120944,120943,-4155,1,1,0.429057,-0.690011,9.963942,-0.001899,0.023789,0.195988,9.419221,-7.605628,2.996016,-0.826714,-0.103510,1.915752,90.687441,-175.400337,-111.685088,0.572319,-0.597167,0.370691,0.422411,1420.191528,85931.265625,0.548822,0.424272,2.505005,1.667847,1.694856,20.625000,26.380327,0,5.370000,0,0,0, 202
1439, 101,120995,120992,-4104,1,1,0.409932,-0.682697,9.973692,-0.023363,-0.016016,0.204391,10.380273,-8.086153,3.476542,0.434675,0.325682,1.675652,90.826373,-175.360681,-111.712238,0.572998,-0.596691,0.369828,0.422919,1419.973267,85934.132812,-1.692290,-0.202507,2.505005,1.449585,1.628768,20.625000,26.384869,0,5.370000,0,0,0, 202
1440, 101,121045,121041,-4054,1,1,0.407559,-0.675974,9.964242,-0.028701,-0.023411,0.194388,10.860798,-7.605628,3.957067,1.097145,-1.298278,0.645114,90.870544,-175.366295,-111.720796,0.573280,-0.596479,0.369650,0.422991,1420.164307,85931.148438,-0.504519,-0.193307,2.505005,1.640625,1.619838,20.625000,26.384869,0,5.370000,0,0,0, 202
1441, 101,121095,121090,-4004,1,1,0.421786,-0.735193,9.972434,0.027095,-0.029537,0.207309,9.899747,-8.086153,3.957067,-0.578623,-0.079318,0.359738,90.856775,-175.345832,-111.695812,0.571733,-0.597745,0.369557,0.423379,1420.208130,85930.273438,2.230393,0.668763,2.505005,1.684448,1.653637,20.625000,26.380327,0,5.370000,0,0,0, 202
1442, 101,121144,121139,-3955,1,1,0.378516,-0.697562,9.955790,-0.048096,-0.018322,0.186240,9.899747,-8.086153,3.957067,0.283288,-0.420855,-0.518038,90.641890,-175.197931,-111.715025,0.571452,-0.598154,0.369635,0.423112,1420.252319,85929.398438,1.611961,0.678297,2.505005,1.728638,1.683997,20.625000,26.375786,0,5.370000,0,0,0, 202
1443, 101,121195,121188,-3904,1,1,0.448981,-0.706588,9.966088,-0.017388,0.028952,0.200131,10.380273,-7.605628,3.957067,0.804572,-1.451568,0.954524,90.725136,-175.181908,-111.726745,0.571872,-0.597829,0.369182,0.423401,1420.337769,85924.171875,1.232366,0.686987,2.505005,1.814087,1.714281,20.625000,26.384869,0,5.370000,0,0,0, 202
1444, 101,121245,121238,-3854,1,1,0.420554,-0.711728,9.958122,-0.004749,-0.024337,0.191347,10.860798,-7.125102,3.476542,0.502646,-2.018769,1.006930,90.872914,-175.284005,-111.678579,0.572837,-0.596601,0.369426,0.423615,1420.158203,85930.148438,-0.624523,0.592092,2.505005,1.634521,1.701265,20.625000,26.384869,0,5.370000,0,0,0, 202
1445, 101,121295,121287,-3804,1,1,0.404334,-0.697901,9.986876,-0.025159,-0.031937,0.218310,10.860798,-7.605628,3.476542,-0.769851,2.747117,-0.980290,90.859889,-175.288609,-111.642796,0.572653,-0.596536,0.369685,0.423729,1420.321777,85922.421875,-1.073090,0.600484,2.505005,1.798096,1.727840,20.625000,26.375786,0,5.370000,0,0,0, 202
1446, 101,121345,121336,-3754,1,1,0.425646,-0.704475,10.000930,0.031965,0.015867,0.233679,11.341324,-7.125102,4.918118,1.930592,1.656056,0.065649,90.684982,-175.541900,-111.641744,0.572662,-0.596574,0.371671,0.421921,1420.093018,85931.023438,-0.325525,0.175388,2.505005,1.569336,1.664509,20.625000,26.389408,0,5.370000,0,0,0, 202
1447, 101,121395,121385,-3704,1,1,0.404904,-0.697134,9.937862,0.015072,-0.009218,0.169493,10.860798,-7.125102,3.476542,-1.439863,-0.494146,-1.543026,90.736994,-175.499375,-111.658068,0.572838,-0.596507,0.371171,0.422218,1420.049194,85930.906250,-2.183836,0.184167,2.505005,1.525513,1.672412,20.625000,26.393950,0,5.370000,0,0,0, 202
1448, 101,121445,121434,-3654,1,1,0.469053,-0.717785,9.962790,0.056704,0.042583,0.198370,10.380273,-8.086153,4.437593,0.036663,2.492960,-0.795689,90.732397,-175.503514,-111.701194,0.573052,-0.596502,0.368652,0.424138,1420.302002,85926.046875,1.328692,0.587252,2.505005,1.778320,1.710057,20.625000,26.389408,0,5.370000,0,0,0, 202
1449, 101,121495,121483,-3604,1,1,0.421090,-0.703771,9.984534,-0.023279,-0.023814,0.217105,10.860798,-7.125102,3.957067,-0.734067,3.632531,-0.472157,90.883624,-175.230853,-111.724731,0.572869,-0.596870,0.368866,0.423680,1420.264404,85926.164062,1.871866,0.596742,2.505005,1.740723,1.736700,20.625000,26.384869,0,5.370000,0,0,0, 202
1450, 101,121544,121532,-3555,1,1,0.411386,-0.725794,9.964093,0.002862,-0.040330,0.197877,10.860798,-7.125102,2.996016,0.131943,0.574216,0.008786,90.880031,-175.274388,-111.743473,0.573078,-0.596806,0.369011,0.423361,1420.234131,85928.156250,1.291242,0.606234,2.505005,1.710449,1.763491,20.625000,26.384869,0,5.370000,0,0,0, 202
1451, 101,121594,121581,-3505,1,1,0.416407,-0.726465,9.991278,0.017400,0.000740,0.225289,9.899747,-7.605628,3.476542,-0.909747,-1.293618,-1.420314,90.667141,-175.355982,-111.755760,0.572312,-0.597642,0.370163,0.422211,1420.349121,85925.414062,1.091929,0.793170,2.505005,1.825439,1.735440,20.625000,26.375786,0,5.370000,0,0,0, 202
1452, 101,121645,121630,-3454,1,1,0.383614,-0.667898,9.982977,-0.019082,0.009080,0.225380,10.380273,-8.566679,3.476542,-1.950646,2.733448,0.527611,90.635340,-175.340791,-111.781913,0.572187,-0.597935,0.370064,0.422053,1420.371338,85926.921875,2.070630,0.803714,2.505005,1.847656,1.770874,20.625000,26.393950,0,5.370000,0,0,0, 202
1453, 101,121695,121679,-3404,1,1,0.403381,-0.718983,9.935166,0.028711,-0.027523,0.182692,10.380273,-7.125102,3.957067,-1.871766,1.738917,-0.478299,90.709987,-175.470319,-111.762706,0.572977,-0.597076,0.370572,0.421751,1420.320068,85927.796875,-0.155406,0.665369,2.505005,1.796387,1.704826,20.625000,26.398491,0,5.370000,0,0,0, 202
1454, 101,121745,121744,-3354,1,1,0.434693,-0.736917,9.958674,0.048145,0.018465,0.194226,9.899747,-7.605628,2.515490,-1.310952,0.488395,-0.612273,90.640777,-175.422603,-111.779263,0.572504,-0.597632,0.370489,0.421680,1420.361816,85926.796875,0.655562,0.676491,2.505005,1.838135,1.744348,20.625000,26.398491,0,5.370000,0,0,0, 202
1455, 101,121795,121793,-3304,1,1,0.421637,-0.723480,9.972756,-0.004642,-0.004666,0.206848,11.341324,-8.086153,3.957067,-0.475302,-1.501703,-0.531806,90.728251,-175.225184,-111.818823,0.572386,-0.597968,0.368919,0.422738,1420.205566,85928.039062,-1.109422,0.166001,2.505005,1.681885,1.687216,20.625000,26.389408,0,5.370000,0,0,0, 202
1456, 101,121845,121842,-3254,1,1,0.427852,-0.690605,9.967846,-0.022336,0.005181,0.199871,10.380273,-6.644576,2.996016,1.926411,-1.299593,-1.341597,90.770673,-175.281697,-111.878089,0.573032,-0.597762,0.368752,0.422300,1420.041016,85933.773438,-3.784774,0.175148,2.505005,1.517334,1.694733,20.625000,26.398491,0,5.370000,0,0,0, 202
1457, 101,121895,121891,-3204,1,1,0.398994,-0.728686,9.940115,0.005153,-0.036235,0.173704,10.380273,-7.125102,3.957067,-0.969307,0.743548,-1.925392,90.771233,-175.285289,-111.926447,0.572150,-0.598925,0.369067,0.421572,1420.065796,85931.656250,-1.734591,-0.518415,2.505005,1.542114,1.625726,20.625000,26.403032,0,5.370000,0,0,0, 202
1458, 101,121944,121940,-3155,1,1,0.441045,-0.726119,9.973221,0.004413,0.031997,0.208289,10.380273,-7.125102,2.996016,1.097349,-1.487465,-1.265231,90.604297,-175.220211,-111.956253,0.572227,-0.599046,0.368632,0.421677,1420.149658,85927.796875,-0.426360,-0.509976,2.505005,1.625977,1.602449,20.625000,26.398491,0,5.370000,0,0,0, 202
1459, 101,121994,121988,-3105,1,1,0.460254,-0.706336,9.972026,-0.002235,0.040464,0.206517,9.899747,-7.605628,3.957067,0.977802,-1.886946,-0.162339,90.701313,-175.245497,-111.943884,0.572780,-0.598439,0.368473,0.421926,1420.153320,85931.781250,1.063537,-0.500319,2.505005,1.629639,1.579991,20.625000,26.398491,0,5.370000,0,0,0, 202
1460, 101,122045,122038,-3054,1,1,0.418179,-0.685172,9.980946,-0.064440,-0.032853,0.211911,10.380273,-7.125102,3.476542,0.336933,-3.339134,0.377245,90.945075,-175.095820,-111.909952,0.573382,-0.597599,0.366959,0.423615,1420.112671,85926.796875,-1.018142,-0.069820,2.505005,1.588989,1.602571,20.625000,26.398491,0,5.370000,0,0,0, 202
1461, 101,122095,122087,-3004,1,1,0.427898,-0.752392,9.955314,0.004487,-0.048822,0.191750,9.899747,-7.605628,3.476542,1.129200,1.223409,-0.054758,90.945956,-175.101407,-111.915313,0.573427,-0.597594,0.366957,0.423564,1420.168823,85927.671875,-0.449927,-0.060387,2.505005,1.645142,1.599593,20.750000,26.403032,0,5.370000,0,0,0, 202
1462, 101,122144,122136,-2955,1,1,0.414464,-0.693629,9.990132,0.032779,0.011868,0.221696,10.380273,-8.086153,3.957067,-0.181603,-2.030801,-0.115642,90.650817,-175.619327,-111.909139,0.573748,-0.597357,0.370812,0.420090,1420.168701,85928.671875,1.422784,0.459654,2.505005,1.645020,1.627823,20.750000,26.403032,0,5.370000,0,0,0, 202
1463, 101,122195,122185,-2904,1,1,0.423824,-0.710177,9.965693,0.060146,0.008409,0.198767,10.380273,-6.644576,3.476542,1.394456,-0.210354,0.731592,90.684135,-175.657398,-111.938201,0.574166,-0.597160,0.370739,0.419864,1420.106323,85929.546875,-0.800571,0.469270,2.505005,1.582642,1.648353,20.750000,26.407574,0,5.370000,0,0,0, 202
1464, 101,122244,122234,-2855,1,1,0.428423,-0.736860,9.944387,0.092967,0.000420,0.179416,9.899747,-7.125102,2.515490,0.372451,0.318696,-0.174906,90.697262,-175.684855,-111.953849,0.572639,-0.598592,0.368240,0.422103,1420.156128,85928.312500,-0.557296,0.092589,2.505005,1.632446,1.625644,20.750000,26.416656,0,5.370000,0,0,0, 202
1465, 101,122295,122283,-2804,1,1,0.423050,-0.668796,9.994670,-0.066839,0.023576,0.224700,9.899747,-8.086153,2.996016,-1.533887,0.066883,-0.545633,90.679169,-175.164436,-111.948187,0.572385,-0.598827,0.368103,0.422233,1420.179443,85927.554688,0.142914,0.101504,2.505005,1.655762,1.629954,20.750000,26.407574,0,5.370000,0,0,0, 202
1466, 101,122344,122332,-2755,1,1,0.447484,-0.742412,9.965029,0.013982,0.007119,0.201648,10.860798,-7.125102,2.515490,0.519833,-2.063394,0.608212,90.746809,-175.171157,-111.952818,0.572780,-0.598482,0.367865,0.422394,1420.138550,85931.539062,0.812665,0.111475,2.505005,1.614868,1.634602,20.750000,26.407574,0,5.370000,0,0,0, 202
1467, 101,122395,122381,-2704,1,1,0.399937,-0.725279,9.954360,-0.033295,-0.058517,0.187530,10.380273,-8.086153,3.476542,1.498846,-2.753768,-0.537477,90.908903,-175.087337,-111.943215,0.573285,-0.597914,0.366874,0.423375,1420.312866,85925.320312,1.587282,0.437215,2.505005,1.789185,1.663346,20.750000,26.416656,0,5.370000,0,0,0, 202
1468, 101,122444,122429,-2655,1,1,0.445524,-0.701576,9.969258,-0.036340,-0.018293,0.222583,9.419221,-7.605628,3.476542,0.451312,1.141873,-2.914347,90.867696,-175.087719,-111.993362,0.573257,-0.598280,0.366766,0.422990,1420.157471,85930.421875,0.215561,0.446150,2.505005,1.633789,1.682881,20.750000,26.412115,0,5.380000,0,0,0, 202
1469, 101,122494,122479,-2605,1,1,0.430061,-0.760384,9.949499,0.002851,-0.019938,0.206189,10.860798,-7.605628,4.437593,0.431412,0.546618,0.002150,90.771903,-175.420855,-112.061862,0.574220,-0.597893,0.368524,0.420697,1420.269653,85924.445312,-0.784519,-0.129601,2.505005,1.745972,1.623981,20.750000,26.412115,0,5.370000,0,0,0, 202
1470, 101,122544,122544,-2555,1,1,0.401929,-0.717651,9.968222,0.008096,-0.038152,0.201024,9.899747,-10.008257,2.515490,-1.165365,-1.977465,0.552248,90.811839,-175.366623,-112.018019,0.574070,-0.597729,0.368319,0.421313,1420.187744,85929.187500,0.458021,-0.117860,2.505005,1.664062,1.616556,20.750000,26.421196,0,5.370000,0,0,0, 202
1471, 101,122595,122593,-2504,1,1,0.469007,-0.696015,9.958631,0.006534,0.031348,0.192883,10.860798,-7.125102,3.957067,0.348112,-1.700219,-0.645119,90.817856,-175.324290,-112.009010,0.573915,-0.597808,0.368120,0.421586,1420.195801,85932.054688,0.733821,0.350239,2.505005,1.672119,1.711662,20.750000,26.425737,0,5.370000,0,0,0, 202
1472, 101,122645,122642,-2454,1,1,0.439146,-0.694597,10.000516,-0.016151,-0.025080,0.233179,9.899747,-9.047205,2.515490,-0.477335,-2.984423,-0.452881,90.980428,-175.285180,-112.024890,0.574679,-0.597172,0.367232,0.422221,1420.227661,85926.320312,-0.058185,0.360225,2.505005,1.703979,1.727424,20.750000,26.416656,0,5.370000,0,0,0, 202
1473, 101,122695,122691,-2404,1,1,0.425099,-0.685055,9.960982,-0.032874,-0.043097,0.192410,9.899747,-5.683524,2.996016,0.986727,0.646616,-1.850809,91.029667,-175.250647,-112.074033,0.574456,-0.597766,0.368314,0.420738,1420.233887,85928.312500,0.486469,0.397161,2.505005,1.710205,1.707917,20.750000,26.416656,0,5.370000,0,0,0, 202
1474, 101,122745,122740,-2354,1,1,0.453608,-0.624812,10.003632,-0.056552,0.037626,0.232154,10.380273,-7.605628,3.957067,0.116366,-0.994975,0.589208,90.844631,-175.392305,-112.076410,0.574549,-0.597668,0.368030,0.420999,1420.167969,85931.179688,-0.239359,0.405486,2.505005,1.644287,1.725819,20.750000,26.421196,0,5.370000,0,0,0, 202
1475, 101,122795,122788,-2304,1,1,0.269199,-0.699418,11.098373,-0.147499,-0.189774,1.320051,9.419221,-6.644576,6.359696,-0.159388,-0.764314,-4.967129,90.902537,-175.377838,-112.165701,0.575127,-0.597711,0.367275,0.420808,1420.173706,85928.187500,-1.371015,0.416153,2.505005,1.650024,1.743968,20.750000,26.421196,0,5.370000,0,0,0, 202
1476, 101,122845,122838,-2254,1,1,-0.208850,-0.674070,26.549248,-0.078965,-0.146188,16.757105,10.860798,-7.605628,29.424938,-0.897617,-1.296774,-40.657763,89.324517,-178.673528,-113.388933,0.582914,-0.598869,0.383730,0.392834,1419.973511,85933.046875,-2.194419,-0.164633,2.505005,1.449829,1.667977,20.750000,26.425737,0,5.370000,0,0,0, 202
1477, 101,122895,122887,-2204,1,1,0.466571,-1.754629,51.416779,0.542063,0.254251,41.644341,10.380273,-12.891412,54.412281,-0.804069,-0.586006,-71.870843,89.328076,-178.619036,-115.975410,0.591467,-0.607532,0.369819,0.379875,1420.081665,85927.312500,-2.634944,0.922029,2.505005,1.557983,1.673353,20.750000,26.416656,0,5.370000,0,0,0, 202
1478, 101,122945,122936,-2154,1,1,-3.949505,1.463779,69.953964,-4.942002,-1.735226,60.083649,7.497117,-8.566679,62.100693,0.489463,1.296205,-124.631910,89.262472,-178.643038,-120.945192,0.607099,-0.623272,0.343463,0.353548,1420.224976,85926.078125,1.520924,0.644333,2.505005,1.701294,1.648747,20.750000,26.425737,0,5.370000,0,0,0, 202
1479, 101,122995,122985,-2104,1,1,0.285787,-2.280168,88.659676,0.121809,-0.031276,78.888367,9.419221,-7.125102,87.568565,6.014497,-0.686900,-13.403772,89.396453,-178.731311,-121.987889,0.611294,-0.625400,0.337847,0.347929,1420.531250,85919.101562,5.389698,3.518836,2.505005,2.007568,1.717751,20.750000,26.425737,0,5.370000,0,0,0, 202
1480, 101,123044,123034,-2055,1,1,0.352466,-0.991458,76.391396,-0.611489,0.363092,66.594330,9.419221,-9.527731,50.568077,3.227207,-0.534504,-17.193861,89.551826,-178.772074,-122.446673,0.616233,-0.623273,0.336604,0.344216,1421.162720,85913.007812,12.667273,4.360349,2.639038,2.639038,2.061012,20.750000,26.430279,0,5.370000,0,0,0, 202
1481, 101,123095,123083,-2004,1,1,-0.185466,-2.282715,35.482983,1.330336,-1.300406,25.707117,9.419221,-10.969309,22.697577,-0.932135,-0.881768,0.748669,89.852532,-179.211487,-122.778893,0.617618,-0.623876,0.334762,0.342434,1421.492188,85910.898438,16.317150,6.513848,2.968506,2.968506,2.298117,20.750000,26.434820,0,5.370000,0,0,0, 202
1482, 101,123145,123131,-1954,1,1,-0.414530,-1.379098,33.625908,0.581485,-0.958010,23.837067,9.419221,-7.605628,27.983360,1.023668,7.307959,-22.285277,89.754239,-179.411912,-123.217309,0.618983,-0.625103,0.333753,0.338696,1422.119873,85904.921875,17.344910,7.510546,3.596191,3.596191,2.601078,20.750000,26.434820,0,5.370000,0,0,0, 202
1483, 101,123195,123179,-1904,1,1,-0.937143,-0.859641,32.438980,-0.270105,0.131721,23.271303,9.899747,-6.644576,25.100204,-20.225590,19.353824,-25.922497,87.467075,-179.218071,-124.416185,0.609248,-0.641397,0.332722,0.326683,1423.332275,85885.242188,24.941975,10.471787,4.808594,4.808594,3.120351,20.750000,26.425737,0,5.370000,0,0,0, 202
1484, 101,123244,123243,-1855,1,1,-0.765308,-0.765384,31.739016,-0.489817,1.461089,21.919056,10.380273,-7.605628,24.619678,-33.142714,29.137123,-28.148745,85.433461,-178.809626,-125.988672,0.600907,-0.657769,0.327323,0.314819,1424.181885,85878.156250,29.438091,11.783687,5.658203,5.658203,3.756019,20.750000,26.430279,0,5.370000,0,0,0, 202
1485, 101,123295,123291,-1804,1,1,-0.497956,-0.693918,31.025631,-0.088864,1.113474,21.216278,9.899747,-7.605628,24.139153,-42.062979,37.345900,-29.851407,86.437048,-179.371614,-127.217355,0.611628,-0.654456,0.320559,0.307961,1424.865112,85877.039062,30.041195,17.801420,6.341431,6.341431,4.584980,20.750000,26.434820,0,5.370000,0,0,0, 202
1486, 101,123344,123339,-1755,1,1,-0.398657,-0.505983,29.883650,-0.465922,2.551173,19.976875,8.458169,-7.605628,21.736525,-47.200900,38.551599,-21.292551,83.901654,-178.821265,-128.404606,0.598507,-0.672554,0.317455,0.297797,1425.703125,85861.101562,28.212536,18.711424,7.179443,7.179443,5.378372,20.750000,26.434820,0,5.370000,0,0,0, 202
1487, 101,123395,123387,-1704,1,1,-0.223911,-0.367099,28.967060,-0.229507,0.903692,19.154243,9.899747,-8.566679,21.255999,-52.463315,39.126602,-2.959689,87.412283,-179.257645,-128.798066,0.621089,-0.653844,0.308320,0.302781,1426.809814,85849.906250,33.449661,22.341709,8.286133,8.286133,5.994724,20.750000,26.443903,0,5.370000,0,0,0, 202
1488, 101,123445,123435,-1654,1,1,-0.036724,0.047633,28.296030,-0.838873,2.576302,18.365076,9.899747,-6.644576,22.217051,-52.899525,34.735378,3.853265,84.776014,-178.422914,-128.674822,0.603190,-0.669696,0.311472,0.301088,1427.881104,85838.078125,37.413391,23.164061,9.357422,9.357422,6.983159,20.750000,26.439362,0,5.370000,0,0,0, 202
1489, 101,123494,123483,-1605,1,1,0.067880,0.179082,28.145229,-1.343790,3.881426,18.043558,10.380273,-10.488783,22.217051,-50.673836,27.951058,3.310191,82.400126,-177.462112,-128.597477,0.633933,-0.639426,0.308435,0.306807,1428.724609,85829.109375,36.101460,27.096718,10.200928,10.200928,7.540915,20.750000,26.439362,0,5.370000,0,0,0, 202
1490, 101,123545,123531,-1554,1,1,0.157535,0.438973,28.400040,-0.704495,1.636841,18.546913,10.380273,-6.644576,22.217051,-40.116669,22.884481,-7.374671,87.496711,-179.071946,-128.635739,0.620625,-0.653427,0.308008,0.304940,1430.068481,85815.171875,39.404709,27.906363,11.544800,11.544800,8.751934,20.750000,26.439362,0,5.370000,0,0,0, 202
1491, 101,123595,123594,-1504,1,1,0.481629,0.707900,28.108891,-1.185293,3.047778,18.130146,10.380273,-6.644576,21.736525,-31.148395,16.309459,-22.541188,85.450591,-178.066679,-129.691441,0.646362,-0.633319,0.299522,0.302340,1431.923096,85796.000000,47.682529,34.486496,13.399414,13.399414,9.963955,20.750000,26.448442,0,5.370000,0,0,0, 202
1492, 101,123645,123642,-1454,1,1,0.608553,0.929870,28.182938,-0.438741,1.121983,18.378099,11.821850,-6.164050,22.217051,-21.260576,9.213524,-42.175800,89.895104,-179.715391,-131.202565,0.642639,-0.645269,0.290763,0.293427,1433.679199,85771.351562,54.926559,35.294502,15.155518,15.155518,11.497814,20.750000,26.439362,0,5.370000,0,0,0, 202
1493, 101,123695,123690,-1404,1,1,0.694516,1.057585,27.126789,-0.581301,1.551123,17.304712,10.860798,-6.644576,20.294947,-12.116014,1.046885,-58.478632,89.326525,-179.376982,-133.626231,0.644627,-0.655295,0.276524,0.280320,1434.865479,85765.007812,54.127022,36.087181,16.341797,16.341797,13.061174,20.750000,26.452984,0,5.370000,0,0,0, 202
1494, 101,123745,123738,-1354,1,1,0.573753,1.005596,27.211809,-0.159838,0.097796,17.434782,9.899747,-6.164050,20.775473,-3.218139,-6.396173,-77.137657,92.163178,179.767341,-136.789428,0.670237,-0.644361,0.256762,0.263922,1435.937256,85753.304688,46.843994,41.252171,17.413574,17.413574,13.924998,20.750000,26.443903,0,5.370000,0,0,0, 202
1495, 101,123794,123786,-1305,1,1,0.365093,0.548119,27.111492,-0.106616,-0.544854,17.312807,10.380273,-6.644576,20.775473,2.148017,-11.316469,-91.953430,92.535710,-179.914491,-140.567984,0.680045,-0.650944,0.232704,0.244254,1437.006592,85744.218750,43.173679,42.005123,18.482910,18.482910,15.730219,20.750000,26.448442,0,5.370000,0,0,0, 202
1496, 101,123845,123834,-1254,1,1,0.230792,0.355203,27.121983,-0.058415,-0.259018,17.322990,9.419221,-6.644576,20.775473,2.623944,-23.189715,-97.916199,91.441295,-179.909532,-144.876713,0.682410,-0.665789,0.210117,0.216549,1437.557861,85742.351562,35.018326,40.301998,19.034180,19.034180,15.880126,20.750000,26.443903,0,5.370000,0,0,0, 202
1497, 101,123894,123882,-1205,1,1,-0.125477,0.239208,26.879175,-0.751234,-0.889297,17.054314,10.380273,-6.644576,19.814421,1.205818,-31.693331,-93.928160,92.196421,-178.890154,-149.044331,0.692574,-0.670107,0.178317,0.198748,1438.648315,85725.421875,32.430344,41.052864,20.124634,20.124634,17.633663,20.750000,26.443903,0,5.370000,0,0,0, 202
1498, 101,123915,125450,-1184,1,1,-0.166857,0.622582,-0.667788,0.484841,0.565338,-10.465881,9.899747,-6.164050,-7.095027,16.562814,17.071703,46.218968,93.123393,176.663990,114.532792,0.599723,-0.589566,-0.353857,-0.409304,1481.186646,85248.750000,32.737740,50.476624,62.662964,62.662964,57.403633,20.750000,26.289503,1,5.370000,0,0,0, 202
1499, 101,125731,125723,632,1,1,0.296889,-0.031894,-0.443746,0.154434,-0.179243,-10.280681,9.899747,-6.164050,-7.575553,-4.249159,-4.079447,53.522168,98.022217,177.811694,131.186637,0.682080,-0.603144,-0.257855,-0.323255,1488.739502,85202.867188,47.896172,60.701916,70.215820,70.215820,65.883743,20.750000,26.434820,2,5.370000,0,0,0, 202
1500, 101,125784,125776,685,1,1,0.047708,0.103835,-0.425720,0.090921,0.093447,-10.222066,9.899747,-6.644576,-7.575553,-10.449784,-7.652123,63.360421,97.512411,177.724446,133.884904,0.686579,-0.612325,-0.244416,-0.306477,1489.555176,85197.023438,38.935596,53.656635,71.031494,71.031494,66.369415,20.750000,26.430279,2,5.370000,0,0,0, 202
1501, 101,125835,125830,736,1,1,-0.179898,0.292447,-0.441724,0.045286,0.388077,-10.201443,11.341324,-6.644576,-6.133976,-8.849886,-8.322993,85.070354,96.878911,177.572583,137.650851,0.692504,-0.624206,-0.224798,-0.283321,1490.645142,85180.476562,33.379406,53.160061,72.121460,72.121460,68.973114,20.750000,26.416656,2,5.370000,0,0,0, 202
1502, 101,125888,125887,789,1,1,-0.287491,0.354646,-0.410729,-0.027182,0.499527,-10.157170,9.899747,-6.164050,-6.133976,-4.755589,-3.458218,88.334413,96.440079,177.607362,142.230889,0.700913,-0.635310,-0.200869,-0.254467,1491.969727,85166.796875,35.838699,47.314758,73.446045,73.446045,69.110939,20.625000,26.407574,2,5.370000,0,0,0, 202
1503, 101,125940,125927,841,1,1,-0.404331,0.439854,-0.395349,-0.098653,0.631915,-10.123810,10.380273,-6.164050,-5.653450,-1.024457,4.786816,79.126348,96.411221,177.453710,145.217840,0.706859,-0.640788,-0.183343,-0.236913,1492.786255,85155.101562,35.906429,46.947937,74.262573,74.262573,70.817215,20.625000,26.398491,2,5.370000,0,0,0, 202
1504, 101,125992,125984,893,1,1,-0.515603,0.338785,-0.372804,-0.284402,0.595761,-10.090462,9.899747,-6.644576,-7.575553,1.121154,17.572525,64.434727,96.784634,176.871737,148.689284,0.714811,-0.644662,-0.159469,-0.219147,1493.806030,85148.257812,34.539547,43.275894,75.282349,75.282349,70.987801,20.625000,26.393950,2,5.370000,0,0,0, 202
1505, 101,126044,126039,945,1,1,-0.536914,0.258139,-0.411824,-0.379162,0.528965,-10.118717,10.380273,-6.164050,-6.133976,3.593441,33.088346,58.922567,97.592448,175.756204,151.615078,0.722927,-0.645025,-0.134392,-0.207986,1494.577393,85142.414062,30.823843,42.778275,76.053711,76.053711,73.113968,20.625000,26.389408,2,5.370000,0,0,0, 202
1506, 101,126095,126095,996,1,1,-0.331260,0.261537,-0.394135,-0.226867,0.429624,-10.113141,10.380273,-7.605628,-6.614501,-1.259439,43.276809,57.588002,98.512980,173.950998,154.496256,0.730321,-0.644513,-0.104874,-0.200588,1495.851074,85125.484375,30.533188,39.143124,77.327393,77.327393,73.377106,20.625000,26.389408,2,5.370000,0,0,0, 202
1507, 101,126148,126136,1049,1,1,-0.395383,0.241819,-0.371097,-0.315643,0.426028,-10.068183,9.899747,-6.644576,-6.133976,-0.400468,48.213650,73.132509,99.220901,172.342434,156.866824,0.735848,-0.643603,-0.079808,-0.194767,1496.143311,85127.351562,29.275028,38.775547,77.619629,77.619629,74.798157,20.625000,26.393950,2,5.370000,0,0,0, 202
1508, 101,126200,126191,1101,1,1,-0.040080,0.040696,-0.335638,-0.082604,0.107412,-10.113338,10.380273,-7.125102,-7.575553,-5.253111,49.003544,88.642557,100.003368,169.992576,161.006806,0.743436,-0.642564,-0.039744,-0.181204,1496.976562,85117.523438,25.375786,38.273136,78.452881,78.452881,76.717377,20.625000,26.389408,2,5.370000,0,0,0, 202
1509, 101,126251,126245,1152,1,1,0.170735,0.090830,-0.259048,0.127945,0.097108,-10.081547,9.899747,-6.164050,-6.133976,-12.971913,47.046661,100.540070,100.244904,167.606203,165.644669,0.748306,-0.642758,0.002549,-0.163993,1497.701416,85110.296875,25.304873,34.304108,79.177734,79.177734,76.465324,20.625000,26.398491,2,5.370000,0,0,0, 202
1510, 101,126304,126302,1205,1,1,0.319308,0.185148,-0.269730,0.265015,0.190822,-10.120915,11.821850,-6.164050,-6.133976,-18.369126,37.258982,104.262121,99.909098,165.364754,171.000930,0.750530,-0.643837,0.047141,-0.141264,1498.566162,85096.359375,24.324707,33.789387,80.042480,80.042480,78.205330,20.625000,26.398491,2,5.370000,0,0,0, 202
1511, 101,126356,126343,1257,1,1,0.413131,0.172852,-0.231633,0.347212,0.188936,-10.113978,10.380273,-8.086153,-5.653450,-19.751918,28.758136,104.188976,99.300896,164.145661,174.957208,0.750167,-0.645265,0.076793,-0.122413,1499.036865,85093.242188,24.040628,30.990532,80.513184,80.513184,77.675957,20.625000,26.403032,2,5.380000,0,0,0, 202
1512, 101,126407,126399,1308,1,1,0.418462,0.317207,-0.184191,0.344278,0.360009,-10.049038,9.899747,-6.644576,-5.653450,-19.573678,14.967625,101.236688,98.303197,163.057475,-179.559349,0.748555,-0.646491,0.113921,-0.093474,1499.972412,85084.406250,25.699097,30.480131,81.448730,81.448730,79.236664,20.625000,26.398491,2,5.370000,0,0,0, 202
1513, 101,126460,126453,1361,1,1,0.160148,0.292970,-0.165076,0.078225,0.329225,-9.956628,10.380273,-6.164050,-5.653450,-16.581812,1.045186,90.624528,97.431201,162.848362,-174.776987,0.746753,-0.646637,0.141664,-0.064430,1500.969727,85071.593750,28.842316,29.826246,82.446045,82.446045,79.455772,20.625000,26.393950,2,5.370000,0,0,0, 202
1514, 101,126512,126509,1413,1,1,-0.145786,0.348527,-0.177008,-0.247114,0.328285,-9.873248,9.419221,-6.644576,-5.653450,-14.688598,-2.594467,90.944023,96.601701,162.990881,-169.967878,0.744212,-0.645730,0.167521,-0.033436,1501.788696,85064.492188,30.035913,29.323425,83.265015,83.265015,80.958809,20.625000,26.398491,2,5.370000,0,0,0, 202
1515, 101,126733,126724,1634,1,1,-0.513608,0.161793,-0.148664,-0.553182,-0.072318,-9.772179,9.899747,-8.086153,-5.653450,-7.742147,33.316717,57.840767,93.968267,160.948094,-155.029557,0.728438,-0.630724,0.263592,0.045659,1505.065918,85037.539062,28.456528,31.021694,86.542236,86.542236,85.014122,20.625000,26.471148,2,5.370000,0,0,0, 202
1516, 101,126785,126777,1686,1,1,-0.438522,0.026346,-0.184137,-0.438953,-0.180439,-9.841789,9.419221,-7.605628,-5.653450,-11.111837,43.920275,52.436131,92.661591,159.486229,-152.067823,0.720412,-0.628288,0.288977,0.052470,1505.642822,85029.570312,22.478477,28.893450,87.119141,87.119141,85.104378,20.625000,26.471148,2,5.370000,0,0,0, 202
1517, 101,126837,126830,1738,1,1,-0.216843,-0.103627,-0.202906,-0.198857,-0.198529,-9.942323,9.419221,-7.125102,-5.172924,-14.016747,48.179396,56.701058,90.936230,157.824430,-148.868440,0.710088,-0.626186,0.316743,0.057798,1506.150024,85022.125000,19.526693,28.422775,87.626343,87.626343,86.475281,20.625000,26.452984,2,5.370000,0,0,0, 202
1518, 101,126889,126887,1790,1,1,-0.124173,-0.089165,-0.174684,-0.116040,-0.147780,-9.937308,9.419221,-6.644576,-6.133976,-21.993663,47.522762,60.264876,88.594274,156.359436,-144.853559,0.695935,-0.624665,0.347895,0.066617,1506.503052,85018.656250,15.851727,24.896496,87.979370,87.979370,86.209259,20.625000,26.434820,2,5.370000,0,0,0, 202
1519, 101,126941,126927,1842,1,1,-0.006264,-0.113125,-0.182438,-0.016209,-0.103955,-9.988218,9.899747,-6.644576,-5.172924,-27.905515,45.789547,58.861997,86.671631,155.631980,-141.920307,0.684194,-0.624815,0.368849,0.073728,1506.690186,85019.656250,13.641385,24.537764,88.166504,88.166504,87.103889,20.625000,26.434820,2,5.370000,0,0,0, 202
1520, 101,126993,126984,1894,1,1,0.150132,-0.080854,-0.120096,0.099497,0.021440,-9.983047,10.860798,-7.125102,-5.653450,-38.101708,39.172829,60.136250,83.631671,155.113801,-137.609310,0.665094,-0.626612,0.397074,0.085671,1507.333984,85008.960938,14.083729,21.490755,88.810303,88.810303,86.954773,20.625000,26.425737,2,5.370000,0,0,0, 202
1521, 101,127044,127037,1945,1,1,0.222852,0.091426,-0.121874,0.028434,0.198114,-9.982155,10.380273,-6.644576,-5.653450,-41.670147,30.412251,59.229830,80.820064,155.298284,-133.570141,0.646177,-0.628922,0.420626,0.099935,1507.522705,85011.687500,14.057474,21.007538,88.999023,88.999023,87.987289,20.625000,26.434820,2,5.370000,0,0,0, 202
1522, 101,127097,127094,1998,1,1,0.275027,0.166777,-0.088206,0.005583,0.291338,-9.963252,10.380273,-6.164050,-5.653450,-45.162351,22.142900,65.393952,78.146421,156.105818,-129.308212,0.626097,-0.630557,0.443059,0.118742,1507.975586,85005.710938,12.258701,18.496576,89.451904,89.451904,87.895912,20.625000,26.434820,2,5.370000,0,0,0, 202
1523, 101,127148,127135,2049,1,1,0.268763,0.218768,-0.108426,-0.058041,0.315014,-9.972017,9.899747,-7.125102,-5.653450,-43.589499,13.325482,64.992487,76.567568,157.030011,-126.319417,0.612309,-0.630666,0.457384,0.134677,1508.139160,85005.843750,12.096361,18.133232,89.615479,89.615479,88.567421,20.625000,26.430279,2,5.370000,0,0,0, 202
1524, 101,127200,127192,2101,1,1,0.221200,0.296589,-0.058520,-0.143540,0.332498,-9.896710,9.899747,-6.644576,-6.133976,-39.626309,0.992473,63.416155,75.051088,158.640624,-122.508240,0.595481,-0.629012,0.473776,0.159005,1508.706055,84994.023438,12.527107,17.625263,90.182373,90.182373,89.483856,20.750000,26.425737,2,5.370000,0,0,0, 202
1525, 101,127253,127245,2154,1,1,0.118433,0.313956,-0.096154,-0.234896,0.243063,-9.888090,9.899747,-5.683524,-7.095027,-35.581683,-4.416698,55.815377,74.264059,160.270006,-119.471784,0.582513,-0.626286,0.485188,0.181761,1508.865479,85000.734375,12.676389,16.521574,90.395020,90.341797,89.330521,20.750000,26.434820,2,5.370000,0,0,0, 202
1526, 101,127305,127302,2206,1,1,0.022737,0.325400,-0.070880,-0.289188,0.164571,-9.827695,10.380273,-5.683524,-6.614501,-30.893113,-11.017776,56.647540,73.893508,161.888761,-116.495338,0.570936,-0.621324,0.495778,0.205410,1509.281006,84991.898438,10.664661,16.019640,90.757324,90.757324,90.162224,20.750000,26.430279,2,5.370000,0,0,0, 202
1527, 101,127356,127343,2257,1,1,0.036056,0.333221,-0.055377,-0.291987,0.172811,-9.817817,9.899747,-7.125102,-5.172924,-23.410161,-11.298799,55.666960,73.921252,162.935392,-114.443303,0.564115,-0.616086,0.502813,0.222242,1509.561279,84987.789062,10.918373,14.481387,91.037598,91.037598,89.813286,20.750000,26.434820,2,5.370000,0,0,0, 202
1528, 101,127408,127400,2309,1,1,-0.034273,0.251559,-0.078519,-0.258303,0.057332,-9.825787,8.938695,-7.125102,-6.133976,-17.059333,-14.334890,51.056180,74.114430,164.118873,-111.876210,0.556184,-0.608153,0.511650,0.242949,1509.810181,84984.929688,10.519562,13.981842,91.286499,91.286499,90.541946,20.750000,26.430279,2,5.370000,0,0,0, 202
1529, 101,127460,127454,2361,1,1,-0.054989,0.157505,-0.035310,-0.170280,0.003695,-9.792660,9.899747,-7.125102,-5.653450,-13.309481,-13.690353,44.617996,74.499858,165.015198,-109.702803,0.550454,-0.599866,0.518881,0.260623,1509.878174,84984.804688,6.753467,12.290862,91.354492,91.354492,90.372314,20.750000,26.434820,2,5.370000,0,0,0, 202
1530, 101,127513,127510,2414,1,1,-0.066564,0.109728,-0.034512,-0.129326,-0.030187,-9.795946,8.938695,-6.164050,-5.172924,-11.792982,-12.479189,47.276551,74.958314,165.835163,-107.510661,0.544838,-0.590778,0.526115,0.278093,1510.084595,84985.671875,6.503334,11.790048,91.560913,91.560913,90.992599,20.750000,26.439362,2,5.370000,0,0,0, 202
1531, 101,127735,127726,2636,1,1,-0.098403,-0.078924,-0.024251,0.057458,-0.114430,-9.811234,9.899747,-8.566679,-5.653450,-15.420832,-11.778714,42.416008,76.825565,168.847795,-98.588235,0.518430,-0.551803,0.554364,0.345578,1510.420166,84984.843750,2.679963,8.194331,92.058228,91.896484,91.819412,20.750000,26.502935,2,5.370000,0,0,0, 202
1532, 101,127787,127779,2688,1,1,-0.092544,-0.132054,-0.027231,0.113498,-0.115416,-9.824271,8.938695,-7.125102,-6.133976,-17.599700,-9.576902,37.558309,77.234802,169.749476,-96.748919,0.511028,-0.544676,0.558608,0.360743,1510.495605,84980.992188,-1.056091,5.367779,92.058228,91.971924,91.625938,20.750000,26.498394,2,5.370000,0,0,0, 202
1533, 101,127839,127835,2740,1,1,-0.080595,-0.197171,-0.037458,0.180941,-0.109844,-9.845380,9.899747,-6.644576,-5.172924,-25.963934,-9.746976,32.927427,77.643610,170.918107,-95.099695,0.502748,-0.539566,0.560824,0.376284,1510.542725,84984.500000,1.488747,4.877104,92.123657,92.019043,91.885895,20.750000,26.480230,2,5.370000,0,0,0, 202
1534, 101,127890,127875,2791,1,1,-0.071732,-0.198766,-0.025356,0.203178,-0.113018,-9.834707,10.380273,-6.644576,-5.172924,-30.971995,-10.848428,24.332066,77.921161,171.905152,-94.113689,0.496532,-0.537556,0.560910,0.387130,1510.553223,84981.039062,0.594571,4.111797,92.123657,92.029541,91.713371,20.750000,26.462067,2,5.370000,0,0,0, 202
1535, 101,127942,127932,2843,1,1,-0.054595,-0.192023,-0.060178,0.180729,-0.080013,-9.867408,10.380273,-6.644576,-5.653450,-33.702243,-7.887703,21.209754,78.269631,173.461205,-93.082037,0.487811,-0.537353,0.558787,0.401309,1510.538574,84980.296875,-0.101002,3.640750,92.123657,92.014893,91.902641,20.750000,26.452984,2,5.370000,0,0,0, 202
1536, 101,127994,127987,2895,1,1,-0.019770,-0.147182,-0.092962,0.137993,-0.045437,-9.898923,8.938695,-6.644576,-5.653450,-37.142220,-10.677228,16.350489,78.796662,175.197057,-92.255160,0.479590,-0.538144,0.554261,0.416159,1510.530640,84978.437500,-0.908579,2.483567,92.123657,92.006958,91.823997,20.750000,26.448442,2,5.380000,0,0,0, 202
1537, 101,128046,128042,2947,1,1,-0.110296,-0.256399,-0.106803,0.247687,-0.137541,-9.896110,8.938695,-7.605628,-6.614501,-42.225828,-12.590614,9.215828,79.306085,177.214504,-91.620875,0.470477,-0.541089,0.547626,0.431254,1510.156128,84989.000000,-2.697122,1.996742,92.123657,91.632446,91.938164,20.750000,26.462067,2,5.370000,0,0,0, 202
1538, 101,128099,128098,3000,1,1,-0.030738,-0.351068,-0.115142,0.349166,-0.059298,-9.910626,10.380273,-5.683524,-6.133976,-45.829866,-10.070176,4.730263,79.772327,179.464013,-91.332006,0.461186,-0.546745,0.538373,0.445569,1510.279541,84981.296875,-3.861840,0.425597,92.123657,91.755859,91.798317,20.750000,26.452984,2,5.370000,0,0,0, 202
1539, 101,128150,128139,3051,1,1,0.030555,-0.268761,-0.181486,0.273615,-0.005666,-9.977653,8.938695,-7.605628,-6.614501,-53.350068,-8.827700,2.027091,80.124362,-178.632669,-91.243520,0.453599,-0.552355,0.529750,0.456637,1509.992554,84990.257812,-2.860985,0.061038,92.123657,91.468872,91.810684,20.750000,26.452984,2,5.370000,0,0,0, 202
1540, 101,128203,128195,3104,1,1,0.120346,-0.148042,-0.211932,0.164823,0.084201,-10.017929,10.380273,-6.644576,-5.653450,-57.798495,-12.659967,9.435804,80.733587,-175.853807,-90.889450,0.441879,-0.559003,0.517511,0.473752,1509.443604,84997.226562,-7.454679,-0.433711,92.123657,90.919922,91.805557,20.750000,26.452984,2,5.370000,0,0,0, 202
1541, 101,128255,128251,3156,1,1,0.068754,-0.058857,-0.225422,0.086888,0.035833,-10.024993,8.458169,-7.125102,-7.575553,-62.585986,-16.868373,17.307363,81.477176,-172.772763,-90.117379,0.427284,-0.564309,0.505043,0.493878,1508.858887,85002.210938,-15.043987,-3.466148,92.123657,90.335205,91.260490,20.750000,26.452984,2,5.370000,0,0,0, 202
1542, 101,128306,128292,3207,1,1,0.042779,0.048748,-0.250323,-0.007235,0.007620,-10.059375,10.860798,-7.605628,-7.095027,-61.731864,-23.412621,23.144502,82.305371,-170.484158,-89.259876,0.416269,-0.565995,0.495657,0.510582,1508.926758,84997.359375,-13.530214,-3.832741,92.123657,90.403076,91.130455,20.750000,26.448442,2,5.370000,0,0,0, 202
1543, 101,128358,128350,3259,1,1,0.152878,0.114103,-0.222458,-0.069603,0.120227,-10.059031,10.860798,-6.644576,-6.133976,-58.640398,-28.272559,33.376536,83.726358,-167.473397,-87.475489,0.399923,-0.564413,0.484537,0.535466,1508.479126,85006.320312,-9.125343,-5.604518,92.123657,89.955444,90.790489,20.750000,26.448442,2,5.370000,0,0,0, 202
1544, 101,128411,128405,3312,1,1,-0.014631,0.296604,-0.246094,-0.219273,-0.063877,-10.111789,10.380273,-7.125102,-6.133976,-55.339497,-30.925290,36.898434,85.383676,-164.737906,-85.344375,0.383754,-0.559983,0.474596,0.560277,1508.229492,85007.445312,-9.922174,-6.096936,92.123657,89.705811,90.508522,20.750000,26.443903,2,5.370000,0,0,0, 202
1545, 101,128462,128462,3363,1,1,-0.187328,0.371797,-0.254777,-0.251788,-0.247296,-10.138170,10.380273,-6.644576,-6.133976,-47.738473,-33.459294,35.770537,87.492442,-162.319910,-82.823454,0.368687,-0.551867,0.465065,0.585856,1507.599854,85018.140625,-11.199249,-7.252237,92.123657,89.076172,90.175400,20.750000,26.452984,2,5.370000,0,0,0, 202
1546, 101,128515,128502,3416,1,1,-0.147637,0.294398,-0.241343,-0.174556,-0.197285,-10.112966,8.938695,-6.164050,-6.614501,-40.261428,-30.480682,35.217640,88.967012,-160.976316,-81.052380,0.359438,-0.545239,0.459604,0.601899,1507.367554,85018.265625,-12.807018,-7.620212,92.123657,88.843872,89.908730,20.750000,26.448442,2,5.370000,0,0,0, 202
1547, 101,128736,128733,3637,1,1,-0.397075,0.344221,-0.195636,-0.126090,-0.457731,-10.099352,10.380273,-8.086153,-6.133976,-7.039987,-8.069150,20.381442,94.309886,-157.713180,-73.402137,0.324555,-0.512355,0.450249,0.655311,1505.741211,85034.382812,-13.846940,-11.409785,92.123657,87.217529,88.039665,20.750000,26.512018,2,5.370000,0,0,0, 202
1548, 101,128787,128774,3688,1,1,-0.392697,0.277241,-0.185879,-0.066534,-0.438048,-10.064271,10.380273,-6.164050,-6.133976,-3.538961,0.512828,12.399594,94.449058,-157.591206,-72.787181,0.320991,-0.510075,0.451626,0.657892,1505.455933,85039.617188,-12.768941,-11.492710,92.123657,86.932251,87.987389,20.750000,26.502935,2,5.370000,0,0,0, 202
1549, 101,128840,128831,3741,1,1,-0.386663,0.187431,-0.221571,0.028423,-0.407890,-10.058973,9.899747,-7.125102,-5.653450,-2.710207,9.737923,10.070486,94.097228,-157.399087,-72.360431,0.315931,-0.510205,0.454653,0.658156,1505.074707,85044.507812,-11.901971,-12.010068,92.123657,86.551025,87.386726,20.750000,26.471148,2,5.370000,0,0,0, 202
1550, 101,128892,128887,3793,1,1,-0.232369,0.080793,-0.246145,0.089841,-0.232239,-10.044113,9.899747,-7.605628,-6.133976,-1.121670,19.087961,7.148724,93.322534,-157.181777,-72.247064,0.310636,-0.512816,0.458595,0.655909,1504.416748,85050.742188,-15.283878,-12.722279,92.123657,85.893066,87.198196,20.750000,26.462067,2,5.370000,0,0,0, 202
1551, 101,128945,128944,3846,1,1,-0.035584,-0.018655,-0.294248,0.142724,-0.017630,-10.060837,10.380273,-7.605628,-6.133976,-2.556412,20.537593,17.300813,92.303641,-156.716587,-71.964847,0.301884,-0.516403,0.463537,0.653702,1503.659302,85058.710938,-18.971596,-13.242810,92.123657,85.135620,86.530106,20.750000,26.462067,2,5.380000,0,0,0, 202
1552, 101,128997,128985,3898,1,1,0.111953,-0.060905,-0.287469,0.135243,0.132479,-10.052078,11.341324,-7.125102,-6.133976,-4.094209,18.822535,26.724346,91.573398,-156.400376,-71.391220,0.293561,-0.517314,0.468835,0.652995,1503.363159,85060.695312,-18.517796,-13.610351,92.123657,84.839478,86.042618,20.750000,26.462067,2,5.370000,0,0,0, 202
1553, 101,129048,129042,3949,1,1,0.294989,-0.070377,-0.233842,0.063008,0.304912,-10.023962,10.860798,-6.644576,-5.653450,-7.182366,9.802804,41.735529,90.959699,-155.824906,-69.781925,0.278374,-0.514651,0.476964,0.655857,1502.649170,85069.921875,-17.471474,-14.629832,92.123657,84.125488,85.797279,20.750000,26.452984,2,5.370000,0,0,0, 202
1554, 101,129101,129100,4002,1,1,0.413267,-0.005351,-0.256227,-0.034033,0.388493,-10.091493,10.860798,-7.125102,-6.133976,-10.688776,-3.757200,57.086697,91.102614,-155.223098,-67.119661,0.260256,-0.505726,0.485289,0.664080,1501.912476,85080.875000,-20.530561,-15.156190,92.123657,83.388794,85.022041,20.750000,26.452984,3,5.370000,3,0,3, 202
1555, 101,129153,129142,4054,1,1,0.490261,0.043241,-0.276156,-0.108334,0.434575,-10.144361,11.341324,-6.644576,-6.133976,-16.425352,-11.062352,63.571473,91.681704,-154.844692,-64.597272,0.245902,-0.495364,0.491256,0.672915,1501.290894,85088.101562,-21.914265,-16.638933,92.123657,82.767212,84.828651,20.750000,26.443903,3,5.370000,3,0,3, 202
1556, 101,129205,129198,4106,1,1,0.428112,0.097901,-0.307797,-0.135900,0.345554,-10.187945,10.860798,-6.164050,-5.653450,-14.385463,-27.913125,72.957622,93.065029,-154.669115,-60.494050,0.226391,-0.475571,0.499668,0.687685,1500.370483,85097.796875,-24.379076,-17.145203,92.123657,81.846802,83.991753,20.750000,26.452984,3,5.370000,3,0,3, 202
1557, 101,129257,129256,4158,1,1,0.272974,0.189872,-0.421325,-0.104325,0.163448,-10.301481,10.860798,-7.605628,-7.575553,-13.076979,-36.914816,77.009550,95.099340,-155.083420,-55.665219,0.207627,-0.448471,0.508496,0.705121,1499.703247,85100.789062,-25.620346,-19.527056,92.123657,81.179565,83.405228,20.750000,26.452984,3,5.370000,3,0,3, 202
1558, 101,129309,129298,4210,1,1,0.110385,0.205832,-0.465389,-0.017714,0.021323,-10.320971,9.419221,-7.605628,-7.095027,-9.573425,-41.628678,82.706125,96.706838,-155.637294,-52.046847,0.194464,-0.426683,0.514536,0.717899,1499.086792,85109.007812,-24.286654,-19.907141,92.123657,80.563110,82.681198,20.750000,26.443903,3,5.370000,3,0,3, 202
1559, 101,129361,129355,4262,1,1,0.022282,0.270957,-0.451286,-0.018041,-0.091383,-10.319553,10.380273,-6.644576,-6.614501,-3.663909,-45.382041,93.835891,98.827291,-156.882806,-46.628810,0.174752,-0.392009,0.525130,0.734866,1498.404541,85112.734375,-23.234041,-20.621519,92.123657,79.880859,82.264046,20.750000,26.452984,3,5.370000,3,0,3, 202
1560, 101,129413,129397,4314,1,1,-0.180807,0.487225,-0.488339,-0.065409,-0.294280,-10.389315,10.380273,-6.164050,-5.653450,4.303040,-44.077355,89.982579,100.145094,-158.056738,-42.571377,0.159476,-0.364727,0.534120,0.745827,1497.450317,85126.937500,-22.746483,-21.004822,92.123657,78.926636,81.496033,20.750000,26.443903,3,5.370000,3,0,3, 202
1561, 101,129465,129455,4366,1,1,-0.360263,0.530056,-0.423556,0.106778,-0.547559,-10.329134,10.380273,-6.644576,-6.133976,12.866659,-37.300011,82.554324,101.177880,-159.877940,-37.912375,0.142223,-0.330719,0.547370,0.755503,1497.049561,85124.945312,-22.594549,-21.185242,92.123657,78.525879,81.012558,20.750000,26.443903,3,5.370000,3,0,3, 202
1562, 101,129517,129510,4418,1,1,-0.504559,0.314540,-0.443023,0.365688,-0.467958,-10.244928,10.380273,-6.644576,-7.095027,22.840883,-22.148908,59.476905,101.169063,-161.515519,-34.519165,0.128860,-0.304435,0.561662,0.758453,1496.426270,85136.890625,-19.504196,-21.696117,92.123657,77.902588,79.955009,20.750000,26.443903,3,5.370000,3,0,3, 202
1563, 101,129737,129727,4638,1,1,0.083145,-0.343662,-0.452135,0.229933,0.398526,-10.144149,9.899747,-7.605628,-5.653450,-11.211206,6.383768,15.649705,98.891331,-161.958839,-29.111841,0.089925,-0.276686,0.591578,0.751927,1492.414795,85174.671875,-36.940773,-26.896925,92.123657,73.891113,76.021812,20.875000,26.516558,3,5.370000,3,0,0, 202
1564, 101,129789,129783,4690,1,1,0.121436,-0.210658,-0.478688,0.145963,0.316016,-10.209771,10.860798,-7.125102,-6.614501,-23.887577,5.260676,20.025703,99.650629,-161.278306,-28.049977,0.080903,-0.274834,0.587436,0.756862,1491.627441,85183.156250,-33.404522,-28.906725,92.123657,73.103760,75.598412,20.875000,26.498394,3,5.370000,3,0,0, 202
1565, 101,129840,129824,4741,1,1,0.230024,0.021689,-0.614004,0.023489,0.241603,-10.340652,10.380273,-7.125102,-7.095027,-34.545072,-3.080521,22.042424,100.659250,-160.700144,-26.919930,0.072562,-0.271972,0.582018,0.762903,1490.622925,85198.476562,-28.554718,-29.286936,92.123657,72.099243,74.522324,20.875000,26.484772,3,5.370000,3,0,0, 202
1566, 101,129893,129883,4794,1,1,0.354569,0.325383,-0.575145,-0.237300,0.007821,-10.512345,10.860798,-6.164050,-6.133976,-35.156910,-12.377226,34.253846,102.494099,-160.261796,-24.849249,0.060530,-0.263221,0.573499,0.773402,1489.636841,85213.796875,-29.089680,-28.958998,92.123657,71.113159,74.096504,20.875000,26.471148,3,5.370000,3,0,0, 202
1567, 101,129944,129939,4845,1,1,0.213681,0.618242,-0.612551,-0.202330,-0.298118,-10.621543,9.899747,-6.644576,-7.575553,-24.716296,-21.026517,45.041925,104.305403,-160.504459,-22.206984,0.047939,-0.247648,0.567634,0.783686,1488.164062,85226.742188,-37.043648,-29.481089,92.123657,69.640381,72.652023,20.875000,26.471148,3,5.370000,3,0,0, 202
1568, 101,129997,129980,4898,1,1,-0.013994,0.803531,-0.654689,-0.094710,-0.500767,-10.680374,10.860798,-6.644576,-6.133976,-8.145743,-22.931484,49.195110,105.271677,-161.053170,-20.115851,0.038562,-0.233347,0.566557,0.789351,1487.150635,85232.968750,-37.040745,-29.875027,92.123657,68.626953,71.556114,20.875000,26.462067,3,5.370000,3,0,0, 202
1569, 101,130049,130039,4950,1,1,-0.045404,0.848567,-0.687513,0.010732,-0.597504,-10.716246,10.380273,-6.164050,-6.133976,4.487990,-19.694255,54.596328,105.723043,-162.083230,-17.439992,0.026456,-0.213114,0.570666,0.792605,1486.511597,85236.828125,-32.703411,-31.948166,92.123657,67.987915,70.943306,20.875000,26.466608,3,5.370000,3,0,0, 202
1570, 101,130101,130095,5002,1,1,-0.227780,0.673281,-0.741348,0.260008,-0.501821,-10.658530,9.899747,-6.644576,-7.095027,22.299343,-14.237022,58.493200,105.206053,-163.183137,-14.854666,0.013529,-0.192861,0.580747,0.790793,1485.177979,85258.867188,-32.363956,-32.477879,92.123657,66.654297,69.352974,20.875000,26.462067,3,5.370000,3,0,0, 202
1571, 101,130153,130136,5054,1,1,-0.226178,0.502519,-0.801569,0.300510,-0.416205,-10.637240,9.419221,-6.164050,-7.095027,30.754614,-6.921806,73.172739,104.356739,-163.812238,-12.771969,0.001184,-0.178052,0.590960,0.786805,1484.032715,85271.070312,-33.987434,-31.986506,92.123657,65.509033,69.380600,20.875000,26.452984,3,5.370000,3,0,0, 202
1572, 101,130205,130195,5106,1,1,-0.014392,0.354806,-0.786266,0.171051,-0.173204,-10.628678,10.380273,-7.125102,-6.133976,32.848668,-1.116874,83.466558,102.814469,-164.311894,-9.304581,-0.022050,-0.156440,0.607256,0.778640,1483.128052,85279.031250,-34.291100,-32.515236,92.123657,64.604370,67.782776,20.875000,26.452984,3,5.370000,3,0,0, 202
1573, 101,130256,130251,5157,1,1,0.633917,0.153907,-0.751400,-0.421151,0.089151,-10.698120,11.341324,-7.125102,-6.133976,26.317378,-0.382901,65.202885,101.290858,-164.443867,-5.874202,-0.046451,-0.136702,0.622096,0.769514,1481.481812,85301.937500,-39.477821,-33.788567,92.123657,62.958130,67.017128,20.875000,26.452984,3,5.370000,3,0,0, 202
1574, 101,130309,130293,5210,1,1,0.507866,-0.062405,-0.780012,-0.384836,0.215522,-10.664119,10.380273,-7.125102,-7.095027,14.815761,-13.613415,26.123821,100.490483,-164.767495,-4.405532,-0.055407,-0.126181,0.629476,0.764701,1480.143311,85313.015625,-42.432327,-34.183849,92.123657,61.619629,65.766014,20.875000,26.448442,3,5.370000,3,0,0, 202
1575, 101,130361,130352,5262,1,1,0.266783,-0.235621,-0.818125,-0.040312,0.399065,-10.597957,11.341324,-6.644576,-7.575553,3.920900,-21.255115,3.349222,100.116756,-165.677044,-3.820100,-0.054637,-0.116760,0.633459,0.762963,1479.718506,85310.281250,-37.760670,-35.947544,92.123657,61.194824,64.936119,20.875000,26.439362,3,5.370000,3,0,0, 202
1576, 101,130413,130408,5314,1,1,0.118799,-0.017288,-0.873542,0.083757,0.185012,-10.659046,11.341324,-6.644576,-5.653450,-11.481916,-24.543981,-2.498591,100.532182,-166.892230,-3.766287,-0.047814,-0.108595,0.631818,0.765981,1478.364624,85328.953125,-34.378925,-36.476410,92.123657,59.840942,63.134754,20.875000,26.448442,3,5.370000,3,0,0, 202
1577, 101,130465,130450,5366,1,1,-0.125260,0.111457,-0.893730,0.304143,0.048200,-10.656593,9.899747,-3.280895,-8.056079,-18.140829,-25.012634,-1.069137,101.225569,-167.792900,-3.687753,-0.042708,-0.102436,0.627990,0.770267,1477.260986,85342.765625,-37.541691,-36.351421,92.123657,58.737305,62.951637,20.875000,26.452984,3,5.370000,3,0,0, 202
1578, 101,130517,130508,5418,1,1,-0.267963,0.295342,-0.944242,0.431289,-0.115420,-10.723656,9.419221,-6.164050,-7.095027,-23.415161,-13.599930,-0.160121,102.407075,-168.605829,-3.456868,-0.038778,-0.096138,0.620844,0.777050,1475.831177,85355.835938,-40.395863,-36.890232,92.123657,57.307495,61.109924,20.875000,26.448442,3,5.370000,3,0,0, 202
1579, 101,130738,130737,5639,1,1,-0.436899,-1.120740,-15.385910,4.164218,4.731975,-23.887905,14.224480,-3.280895,-71.966019,-45.834954,72.823702,83.985973,104.059237,-165.368087,7.498126,-0.129306,-0.060270,0.615503,0.775115,1447.659668,85429.515625,556.857422,-456.544281,92.123657,29.135986,-8.811628,20.875000,26.484772,3,5.370000,3,0,0, 202
1580, 101,130791,130779,5692,1,1,0.843708,2.061684,-7.457615,1.881426,0.074541,-17.353025,11.821850,-4.241947,-7.575553,-76.644695,106.830149,75.034921,107.432025,-162.331972,11.888727,-0.172885,-0.062568,0.594444,0.782836,1458.063965,85424.914062,1063.907959,89.280029,92.123657,39.540283,28.029522,20.875000,26.471148,3,5.380000,3,0,0, 202
1581, 101,130843,130836,5744,1,1,3.903403,3.342051,-1.352937,-2.197059,-2.883636,-13.686083,13.743954,-3.761421,-5.653450,-71.336832,146.276001,-31.517146,113.181603,-156.400322,13.866933,-0.210414,-0.104391,0.555644,0.797551,1464.315430,85435.132812,672.721436,88.452599,92.123657,45.791748,32.534527,20.875000,26.425737,3,5.370000,3,0,0, 202
1582, 101,130895,130894,5796,1,1,7.456929,8.774175,1.306530,-3.492069,-8.271430,-17.128201,20.951841,16.420666,-5.172924,-236.501966,386.640343,135.355662,127.243801,-145.325908,23.486391,-0.303676,-0.175061,0.469565,0.810335,1465.345947,85458.539062,311.152710,161.238739,92.123657,46.822266,35.114040,20.875000,26.407574,3,5.370000,3,0,0, 202
1583, 101,130946,130936,5847,1,1,14.469931,30.188101,-0.856912,10.198041,-20.833130,-33.954990,26.718151,14.018037,-6.133976,-475.810266,313.010002,254.279009,151.923788,-141.512258,47.253127,-0.440326,-0.201162,0.337963,0.807111,1464.298340,85483.679688,160.319305,160.412521,92.123657,45.774658,41.067215,20.875000,26.398491,3,5.370000,3,0,0, 202
1584, 101,130999,130992,5900,1,1,3.876055,25.679657,-5.943984,25.744308,5.904944,-13.288370,9.419221,12.095933,-15.263968,-979.695342,-105.016959,891.251113,172.185135,179.155097,92.722188,-0.721655,0.054392,0.041703,0.688852,1470.509155,85320.890625,87.835587,158.868256,92.123657,51.985474,49.083851,20.750000,26.380327,3,5.370000,3,0,0, 202
1585, 101,131051,131034,5952,1,1,-3.930471,6.876881,-1.816766,1.991347,8.637332,-3.354546,34.406567,5.849096,-8.056079,-434.646956,-1081.182554,1143.557700,140.366917,160.696401,140.716500,-0.854394,0.367784,-0.036213,0.365288,1469.995605,85463.273438,103.462952,140.102264,92.123657,51.471924,44.251789,20.750000,26.380327,3,5.370000,3,0,0, 202
1586, 101,131102,131092,6003,1,1,-8.152629,27.680782,-42.287731,-2.571681,49.932201,-20.805765,16.627110,25.550657,-38.809734,928.362263,-1132.264829,1499.843972,148.734240,-153.807145,-141.307612,-0.864770,0.319930,0.118940,-0.368335,1467.391113,85449.835938,38.424011,139.793701,92.123657,48.867432,51.235832,20.750000,26.362162,3,5.370000,3,0,0, 202
1587, 101,131155,131149,6056,1,1,-20.180189,28.977358,-12.558640,-15.471482,-4.391085,-43.653599,10.860798,10.173829,-10.458709,1139.250309,792.647988,1662.474929,160.135780,158.361050,-54.138726,-0.469111,-0.087551,-0.235000,-0.846785,1476.878296,85391.218750,100.072838,120.697227,92.123657,58.354614,50.902695,20.750000,26.357620,3,5.370000,3,0,0, 202
1588, 101,131207,131191,6108,1,1,9.587440,13.437177,-11.331364,-7.703327,-3.947950,-21.473305,25.757101,-5.683524,-46.498146,-480.804610,643.066791,1764.314251,135.278453,-169.010463,14.299784,0.150723,0.040732,-0.386766,-0.908865,1463.916870,85540.312500,-6.296448,119.319359,92.123657,45.393188,55.356594,20.750000,26.366703,3,5.370000,3,0,0, 202
1589, 101,131258,131250,6159,1,1,12.097451,46.206581,-47.465401,27.932482,45.990932,-50.285213,30.562359,48.135372,-46.498146,-1147.580080,-927.508325,1201.702280,142.249194,159.464249,100.044335,0.676423,-0.352300,-0.075278,-0.642394,1470.524658,85217.851562,-85.051521,62.141617,92.123657,52.000977,48.480480,20.750000,26.362162,3,5.370000,3,0,0, 202
1590, 101,131311,131305,6212,1,1,6.971005,30.825525,-1.124185,23.947212,-13.449979,-25.475845,32.003937,12.576459,-22.952381,-883.385467,-1226.747327,-1329.402120,59.610934,141.728146,96.069377,0.158960,-0.718496,-0.427011,-0.525507,1465.840942,85560.351562,-5.064061,59.993546,92.123657,47.317261,51.506939,20.750000,26.362162,3,5.370000,3,0,0, 202
1591, 101,131362,131347,6263,1,1,-12.026672,-3.238036,-42.472031,-32.028656,19.334620,-17.563135,26.237625,2.965941,-34.485001,-1820.975862,1000.471138,-604.223724,105.684412,93.849511,-3.670511,-0.430948,-0.529892,-0.458411,-0.568647,1465.455688,85475.593750,-49.951447,34.185555,92.123657,46.932007,47.627331,20.750000,26.366703,3,5.370000,3,0,0, 202
1592, 101,131414,131406,6315,1,1,29.050875,-13.334007,-13.896671,-5.303430,29.412346,8.133718,49.783394,4.888044,-33.523949,-1700.788574,992.991370,519.275076,147.940354,-167.518108,-49.909043,-0.375875,0.210540,-0.204793,-0.878892,1461.943970,85524.507812,-68.297745,33.152401,92.123657,43.420288,49.304729,20.750000,26.362162,4,5.370000,3,0,0, 202
1593, 101,131467,131463,6368,1,1,27.019655,27.153986,-18.440426,-23.276833,34.060719,-20.072638,31.523411,15.940139,-22.471855,-1191.851181,-1396.753249,-13.165878,43.567676,2.098881,-171.328178,0.076970,0.011094,0.371268,-0.925264,1452.750000,85662.031250,-136.578827,-21.197483,92.123657,34.226318,42.575924,20.750000,26.357620,4,5.370000,3,0,0, 202
1594, 101,131519,131505,6420,1,1,7.069413,23.906471,-15.891907,-27.939058,9.599862,-8.660692,19.510263,19.784348,-29.199217,-1476.425384,-1282.749414,-868.302224,107.862600,38.386893,128.840864,-0.000380,-0.504187,0.604988,-0.616267,1449.241699,85656.179688,-180.169205,-21.885855,92.123657,30.718018,41.785339,20.750000,26.353081,4,5.370000,3,0,0, 202
1595, 101,131740,131736,6641,1,1,-2.072965,12.522872,-19.571890,22.945423,-1.270218,-13.810051,9.899747,3.446467,-14.783442,104.317192,-995.683776,1006.330894,13.899363,-127.353576,97.013487,-0.372864,0.630884,0.629658,-0.257855,1446.935181,85653.710938,-133.973404,24.304636,92.123657,28.411499,38.611500,20.750000,26.407574,4,5.380000,3,0,0, 202
1596, 101,131793,131777,6694,1,1,-6.344507,12.531213,-7.947828,12.451615,1.078291,-17.607916,1.250281,4.888044,-18.147121,478.822379,-435.159494,562.093915,140.509764,-66.259201,-98.519448,-0.205109,0.654300,0.476698,-0.550073,1448.786621,85639.390625,-119.231117,23.804064,92.123657,30.262939,39.495380,20.750000,26.384869,4,5.380000,3,0,0, 202
1597, 101,131845,131836,6746,1,1,-9.203952,9.477648,-1.398781,4.269521,-0.865671,-22.351574,-2.113400,-15.294042,-9.497657,462.310424,-314.990894,120.501722,48.202820,-74.174748,-169.915135,-0.181295,0.576963,0.276107,-0.747001,1447.706665,85644.984375,-52.466579,-27.177795,92.123657,29.182983,33.510139,20.750000,26.362162,4,5.370000,3,0,0, 202
1598, 101,131896,131892,6797,1,1,-17.984596,-9.239795,-1.578683,11.421741,-16.245672,-13.916062,-8.840761,-8.566679,-5.172924,162.010598,-173.064125,-174.785169,16.137828,-60.175217,154.401972,-0.258404,0.457122,0.228393,-0.819819,1451.166504,85595.445312,7.462117,-27.845396,92.123657,32.642822,32.148651,20.750000,26.353081,4,5.370000,3,0,0, 202
1599, 101,131948,131933,6849,1,1,-23.280056,-1.873191,-10.739512,13.913536,-11.088911,-22.198004,-13.646021,-4.722473,-37.848682,-223.658356,149.858858,-270.565322,20.636643,-58.865446,149.468267,-0.310519,0.425321,0.277787,-0.803439,1449.986816,85620.085938,24.059229,-12.163115,92.123657,31.463135,33.227852,20.750000,26.325832,4,5.370000,3,0,0, 202
1600, 101,132001,131992,6902,1,1,-7.861741,12.062571,-22.427406,21.381823,12.120206,-20.107281,12.302376,13.056985,-26.316061,-215.748997,365.902605,-328.904618,23.084796,-77.146980,138.220967,-0.389691,0.514974,0.363982,-0.671163,1449.552734,85623.812500,0.984360,-13.310731,92.123657,31.029053,32.613689,20.750000,26.298586,4,5.370000,3,0,0, 202
1601, 101,132052,132048,6953,1,1,6.186255,17.001938,-8.653601,6.365881,16.302561,-0.006996,20.951841,13.537511,-15.263968,98.039934,73.446479,-1049.835155,161.471450,-101.258470,-123.098860,-0.622178,0.407679,0.491162,-0.453269,1448.091431,85654.164062,-18.611132,-11.884789,92.123657,29.567749,32.076458,20.750000,26.280420,4,5.370000,3,0,0, 202
1602, 101,132105,132089,7006,1,1,4.712735,15.135451,-3.925454,-1.072348,3.806764,8.246410,17.588160,5.368570,-11.900286,-330.315106,-493.475703,-1480.095873,49.771657,-84.037159,75.150160,-0.705907,0.122504,0.671898,-0.187726,1442.504883,85752.460938,-64.584808,-11.760078,92.123657,23.981201,31.642471,20.750000,26.253174,4,5.370000,3,0,0, 202
1603, 101,132156,132148,7057,1,1,2.301467,15.213899,-9.083095,10.272134,-13.754262,-4.844630,18.549212,5.368570,-11.419760,-541.135343,29.460293,-1584.139653,82.231953,-105.498836,30.287951,-0.576931,-0.227549,0.682847,0.386124,1439.017090,85767.390625,-106.086143,-33.193836,92.123657,20.493408,28.293613,20.750000,26.253174,4,5.370000,3,0,0, 202
1604, 101,132209,132203,7110,1,1,-5.677916,4.364411,-26.338219,25.690144,-9.188845,-10.556160,5.094488,-9.047205,-36.407104,526.507427,445.480756,-1808.150952,37.263135,-95.737170,-98.586869,-0.234972,-0.672496,0.295852,0.636403,1441.836792,85635.242188,-77.955437,-33.750328,92.123657,23.313110,26.657764,20.750000,26.244091,4,5.370000,3,0,0, 202
1605, 101,132261,132245,7162,1,1,-19.884666,13.694065,5.145138,-6.938916,-12.767623,-21.891562,4.613962,13.056985,0.593386,440.912562,-555.046416,-1994.051544,78.389733,-117.440895,-132.166770,0.330594,-0.738501,-0.031428,0.586801,1443.725098,85706.421875,27.866507,-21.863716,92.123657,25.201416,27.846800,20.625000,26.262257,4,5.370000,3,0,0, 202
1606, 101,132313,132304,7214,1,1,-6.145423,19.207783,5.645495,-4.361712,18.328074,-0.655838,19.990789,9.693303,0.112860,-281.948296,-497.313286,-1999.409253,93.344275,-99.605079,141.281179,0.671028,-0.338842,-0.616700,0.233642,1441.635132,85730.804688,25.262083,-22.997780,92.123657,23.111450,26.750996,20.625000,26.244091,4,5.370000,3,0,0, 202
1607, 101,132365,132360,7266,1,1,1.537825,3.599320,-0.177741,0.712134,-3.745507,-8.897869,9.419221,-10.008257,-1.809243,-422.726992,301.396386,-1837.557594,92.377783,-115.938022,41.955093,0.561850,0.147259,-0.685012,-0.439771,1437.803589,85748.601562,-60.721741,-34.466316,92.123657,19.279907,24.617762,20.625000,26.248632,4,5.370000,3,0,0, 202
1608, 101,132416,132402,7317,1,1,-6.250842,5.860898,5.099942,-4.333817,-8.481592,-6.849190,9.899747,0.563312,-2.289769,257.024827,546.496768,-1962.375640,100.695785,-100.870754,-22.170217,0.284749,0.575841,-0.388467,-0.660620,1439.896729,85688.000000,-59.580120,-34.764183,92.123657,21.373047,23.336933,20.625000,26.244091,4,5.370000,3,0,0, 202
1609, 101,132469,132460,7370,1,1,-5.164984,10.139306,5.656355,-10.833188,-1.736416,-16.212229,10.860798,4.407518,-4.211873,475.095227,-451.291171,-1149.784647,91.142201,-122.780027,-107.566942,-0.307746,0.697852,-0.087216,-0.640850,1440.132568,85717.984375,1.547347,-24.176699,92.123657,21.608887,23.610415,20.625000,26.239550,4,5.370000,3,0,0, 202
1610, 101,132521,132516,7422,1,1,3.537221,29.059715,-35.154308,16.861282,40.880096,-21.519327,16.627110,-0.397740,-5.172924,66.538658,-588.874977,-872.403561,146.998662,-120.469989,-108.203044,-0.591548,0.478825,0.241019,-0.602251,1436.586304,85812.671875,-18.643686,-24.959021,92.123657,18.062622,22.397272,20.625000,26.235008,4,5.370000,3,0,0, 202
1611, 101,132742,132732,7643,1,1,-14.100137,9.204793,-6.136988,-3.589703,-3.926381,7.313387,-0.191296,-2.319843,-8.056079,414.879433,-467.168601,-845.070127,165.270729,-22.657645,100.608229,-0.230180,-0.601727,0.764313,0.027725,1428.635986,85814.718750,-6.327856,-55.071686,92.123657,10.112305,11.460275,20.625000,26.307669,4,5.370000,3,0,0, 202
1612, 101,132794,132788,7695,1,1,-11.918250,17.418787,0.424633,-20.362162,-3.896765,-13.780537,5.094488,12.576459,-5.653450,170.589753,-501.696410,-1336.280503,10.924837,-166.156864,-133.015830,0.038846,-0.910870,0.383399,0.147690,1429.917480,85826.156250,57.116459,-15.110264,92.123657,11.393799,13.066380,20.625000,26.289503,4,5.370000,3,0,0, 202
1613, 101,132847,132846,7748,1,1,0.693041,16.203125,1.037829,4.768991,6.726265,-23.805025,15.185531,9.212777,-5.172924,-255.273949,-339.053350,-1151.443891,9.487022,-147.063672,159.381016,0.128582,-0.936068,-0.194100,0.263758,1430.120728,85848.812500,46.324543,-16.214474,92.123657,11.597046,12.255666,20.625000,26.298586,4,5.370000,3,0,0, 202
1614, 101,132899,132888,7800,1,1,4.608460,9.614102,0.615502,8.801783,5.984302,-10.675337,16.627110,-0.397740,-5.172924,-312.121422,-161.032215,-814.190951,174.130359,-31.164196,-63.004178,0.098128,-0.827394,-0.490938,0.254500,1426.616577,85913.250000,3.687516,-9.739470,92.123657,8.092896,11.400398,20.625000,26.271338,4,5.370000,3,0,0, 202
1615, 101,132951,132944,7852,1,1,7.331357,3.804482,1.057621,3.060934,4.045354,-3.197422,16.146584,-5.683524,-6.133976,-215.233181,-125.260164,-331.174371,164.815388,-19.028846,-91.566575,0.026558,-0.697404,-0.685421,0.207654,1421.901123,85941.726562,-88.455078,-10.094812,92.123657,3.377441,10.899981,20.625000,26.248632,4,5.370000,3,0,0, 202
1616, 101,133003,132986,7904,1,1,7.460362,2.700682,-0.022933,0.734026,2.444202,-3.789754,20.951841,-0.878266,-9.017131,-123.606125,-114.233213,65.307045,160.953654,-12.126291,-98.017668,-0.029289,-0.656475,-0.728782,0.192511,1419.595459,85949.171875,-101.913383,-10.214332,92.123657,1.071777,10.525704,20.625000,26.230467,4,5.370000,3,0,0, 202
1617, 101,133055,133044,7956,1,1,89.872925,59.883652,-22.103672,61.159687,21.575821,79.337898,23.834997,15.459613,-8.536605,98.805803,-96.083160,187.548225,159.506938,-10.643710,-91.144660,-0.058804,-0.697657,-0.688167,0.190376,1419.140137,85936.593750,-78.647346,-37.844601,92.123657,0.616455,6.037018,20.625000,26.216843,4,5.370000,3,0,0, 202
1618, 101,133107,133100,8008,1,1,-23.147108,82.831863,36.483471,-32.121185,36.114498,-89.750496,20.951841,22.667501,21.255999,378.563863,1247.030913,1938.425827,3.807926,-168.565066,-178.440946,0.031701,-0.994429,0.010220,0.100009,1419.134521,85941.570312,-36.266136,-38.555847,92.123657,0.610840,4.205038,20.625000,26.216843,4,5.370000,3,0,0, 202
1619, 101,133159,133142,8060,1,1,-12.369408,3.565527,-2.355434,-39.759171,10.336561,-6.345707,2.691859,-35.956654,-12.380812,-770.120604,-1088.769528,1998.337624,155.311876,-14.977206,74.689690,-0.245738,-0.753094,0.609683,-0.027360,1419.106567,85939.578125,-13.057299,-35.666290,92.123657,0.582886,4.287737,20.625000,26.216843,4,5.370000,3,0,0, 202
1620, 101,133211,133201,8112,1,1,-13.581547,14.357534,1.588961,-4.000737,-14.344847,3.288747,5.575014,7.290674,-1.328717,-1115.041277,-563.312093,-968.611857,44.005994,-140.669426,-54.702213,-0.115040,-0.513119,0.717556,0.456715,1419.394409,85933.125000,-5.241205,-35.691467,92.123657,0.870728,2.514169,20.625000,26.235008,4,5.370000,3,0,0, 202
1621, 101,133263,133256,8164,1,1,-2.607373,2.620544,-0.932995,-0.244299,-3.509294,-11.271136,11.341324,-6.164050,-4.692398,-614.060999,737.265864,-1118.348510,178.286802,-70.379266,19.937269,-0.111782,-0.803330,0.149943,0.565406,1420.100708,85930.500000,9.503322,-21.856110,92.123657,1.577026,3.313804,20.625000,26.221384,4,5.370000,3,0,0, 202
1622, 101,133315,133315,8216,1,1,1.781537,-9.009920,7.100862,-3.577914,8.650800,-2.935364,13.743954,-1.839317,-2.289769,-231.724440,744.316696,431.489688,162.308900,-26.003961,-14.411807,-0.120760,-0.959509,-0.086443,0.239347,1419.567627,85939.578125,5.352557,-22.355820,92.123657,1.043945,2.162146,20.625000,26.216843,4,5.370000,3,0,0, 202
1623, 101,133367,133356,8268,1,1,-4.150706,16.015076,1.950135,-12.876926,-7.094645,-17.634571,6.536066,12.576459,-10.939234,-370.320699,99.964367,1784.760231,147.550063,-16.513946,36.445333,-0.305766,-0.890016,0.335258,0.044509,1419.358032,85937.984375,-3.699436,-15.713262,92.123657,0.834351,2.469236,20.625000,26.239550,4,5.370000,3,0,0, 202
1624, 101,133419,133412,8320,1,1,-2.939400,6.643042,-0.562892,-3.763392,1.247169,-3.688032,10.860798,-3.761421,-6.133976,-7.206097,-86.779964,1453.263175,149.398367,-20.884811,120.394788,-0.280684,-0.429953,0.846894,-0.138304,1419.990356,85928.148438,1.360555,-16.180813,92.123657,1.466675,1.673173,20.625000,26.235008,4,5.370000,3,0,0, 202
1625, 101,133470,133454,8371,1,1,10.168667,20.530048,-72.836662,-3.972107,-8.539907,2.489050,23.354471,21.225925,-65.238655,-410.152450,121.639850,1053.349479,150.444752,-16.177170,165.752941,-0.166316,-0.083102,0.954365,-0.233710,1419.263184,85945.070312,0.177518,-9.388020,92.123657,0.739502,2.075135,20.625000,26.235008,4,5.370000,3,0,0, 202
1626, 101,133522,133512,8423,1,1,3.086172,24.534605,-3.656857,12.733845,1.027573,11.684744,8.938695,11.615407,-11.900286,-462.313430,-133.125906,866.807505,174.393840,-11.796730,-143.148689,-0.082004,0.318792,0.940994,-0.078593,1418.859741,85948.296875,-8.523642,-8.037928,92.123657,0.336060,1.603142,20.625000,26.225925,4,5.370000,3,0,0, 202
1627, 101,133744,133741,8645,1,1,3.105282,9.759412,0.134052,0.690760,0.948512,0.373971,12.782902,2.485415,-6.614501,8.134827,8.751980,31.925704,176.423062,-14.110118,-158.172933,-0.114679,0.191566,0.973279,-0.053656,1417.889404,85954.859375,-4.972513,-10.104325,92.123657,-0.634277,-0.146840,20.625000,26.316750,4,5.370000,3,0,0, 202
1628, 101,133797,133783,8698,1,1,4.260645,8.799700,0.224735,-0.808485,0.631687,-0.075485,13.263428,1.043838,-5.172924,-0.624840,1.293553,-2.693019,176.432925,-14.333565,-158.723119,-0.116853,0.186896,0.973944,-0.053370,1417.848877,85955.218750,-3.726188,-7.802739,92.123657,-0.674805,0.005055,20.625000,26.303127,4,5.370000,3,0,0, 202
1629, 101,133849,133842,8750,1,1,4.094344,8.941263,0.286369,-0.627622,0.734252,-0.010249,13.263428,0.563312,-5.653450,1.245765,1.576135,0.907934,176.491187,-14.482125,-158.743855,-0.118222,0.186669,0.973838,-0.053086,1417.977539,85952.195312,-0.935951,-7.800528,92.123657,-0.546143,-0.403072,20.625000,26.266798,4,5.370000,3,0,0, 202
1630, 101,133901,133900,8802,1,1,4.051163,9.039018,0.302937,-0.583674,0.784499,0.060613,14.224480,1.524364,-5.172924,2.150107,0.199616,-11.612999,176.392695,-14.445172,-158.895158,-0.117818,0.185482,0.974079,-0.053710,1418.070190,85951.562500,1.484731,-5.158386,92.123657,-0.453491,-0.217538,20.625000,26.253174,4,5.370000,3,0,0, 202
1631, 101,133952,133941,8853,1,1,4.172447,8.909981,0.283357,-0.746396,0.721645,-0.013279,13.743954,2.004889,-5.653450,1.017265,0.378572,-1.332288,176.366098,-14.484932,-158.973350,-0.118151,0.184847,0.974148,-0.053917,1418.225342,85949.687500,2.585284,-5.158178,92.123657,-0.298340,-0.407779,20.625000,26.248632,4,5.370000,3,0,0, 202
1632, 101,134004,133998,8905,1,1,4.177958,8.920444,0.270026,-0.755196,0.702244,-0.001045,14.224480,2.004889,-6.133976,-1.020173,-0.973500,-0.709161,176.390496,-14.477959,-159.038400,-0.118161,0.184269,0.974272,-0.053632,1418.268799,85944.828125,2.077550,-2.812161,92.123657,-0.254883,-0.182084,20.625000,26.244091,4,5.370000,3,0,0, 202
1633, 101,134057,134040,8958,1,1,4.120172,8.954297,0.266890,-0.671955,0.710335,0.007952,13.263428,2.965941,-6.614501,0.646328,-1.379158,1.414051,176.394498,-14.355408,-159.011503,-0.117111,0.184485,0.974369,-0.053436,1417.990967,85956.023438,-0.562539,-2.811924,92.123657,-0.532715,-0.286413,20.625000,26.235008,4,5.370000,3,0,0, 202
1634, 101,134109,134098,9010,1,1,4.136879,8.945395,0.244467,-0.688881,0.702291,0.008477,13.743954,2.485415,-6.133976,0.047915,-1.111947,0.966402,176.354282,-14.263598,-158.955004,-0.116238,0.185000,0.974362,-0.053694,1418.002197,85953.039062,-2.009653,-2.582873,92.123657,-0.521484,-0.295771,20.625000,26.235008,4,5.370000,3,0,0, 202
1635, 101,134161,134154,9062,1,1,4.142949,8.984255,0.268373,-0.697476,0.720264,0.045199,13.743954,2.004889,-6.133976,-1.076767,0.543530,-1.037441,176.395004,-14.251919,-159.019440,-0.116235,0.184410,0.974498,-0.053264,1418.101807,85949.054688,-0.994694,-2.581674,92.123657,-0.421875,-0.424883,20.625000,26.235008,4,5.370000,3,0,0, 202
1636, 101,134213,134212,9114,1,1,4.136212,8.946166,0.279717,-0.716443,0.725162,0.006203,13.743954,1.524364,-5.653450,-0.753533,-1.204380,-2.126195,176.392736,-14.246538,-159.073917,-0.116211,0.183948,0.974590,-0.053220,1418.081421,85952.039062,0.577033,-1.558039,92.123657,-0.442261,-0.350995,20.625000,26.235008,4,5.370000,3,0,0, 202
1637, 101,134264,134254,9165,1,1,4.126828,8.955634,0.283514,-0.706849,0.736139,0.010877,14.705005,1.043838,-6.133976,0.526927,-0.853534,1.806506,176.368653,-14.231970,-159.081567,-0.116051,0.183907,0.974607,-0.053395,1418.102783,85952.281250,0.520925,-1.557351,92.123657,-0.420898,-0.408714,20.625000,26.225925,4,5.370000,3,0,0, 202
1638, 101,134317,134310,9218,1,1,4.116531,8.969072,0.257845,-0.690986,0.727421,0.019894,13.743954,2.004889,-6.133976,1.491860,-3.699183,-1.176945,176.295898,-14.173563,-159.108669,-0.115450,0.183745,0.974682,-0.053897,1418.009766,85953.039062,-1.077079,-1.556353,92.123657,-0.513916,-0.486017,20.625000,26.235008,4,5.370000,3,0,0, 202
1639, 101,134369,134368,9270,1,1,4.102324,8.998632,0.270592,-0.660837,0.751153,0.041598,14.224480,2.004889,-6.614501,-1.887342,1.189590,1.732461,176.289122,-14.141534,-159.048086,-0.115138,0.184265,0.974617,-0.053966,1418.106934,85949.656250,-0.584639,-1.533242,92.123657,-0.416748,-0.447146,20.625000,26.212301,4,5.370000,3,0,0, 202
1640, 101,134420,134409,9321,1,1,4.134206,8.966419,0.258517,-0.691802,0.718899,0.025482,13.743954,1.524364,-5.653450,-0.656936,0.532613,0.707940,176.350457,-14.170925,-159.011066,-0.115469,0.184520,0.974553,-0.053527,1418.043945,85953.398438,0.095072,-1.531842,92.123657,-0.479736,-0.502560,20.625000,26.221384,4,5.370000,3,0,0, 202
1641, 101,134473,134466,9374,1,1,4.124542,8.963099,0.280182,-0.674013,0.738823,0.018743,14.224480,1.524364,-5.653450,1.155175,0.601776,0.928151,176.387982,-14.177707,-158.917970,-0.115544,0.185274,0.974413,-0.053312,1418.118408,85951.281250,0.969581,-0.656979,92.123657,-0.405273,-0.395535,20.625000,26.225925,4,5.370000,3,0,0, 202
1642, 101,134525,134524,9426,1,1,4.087271,8.976695,0.295080,-0.637087,0.750727,0.017576,13.743954,2.004889,-6.133976,-1.478573,1.071749,0.277656,176.461721,-14.184270,-158.905171,-0.115713,0.185309,0.974419,-0.052708,1418.189453,85950.531250,1.321320,-0.656228,92.123657,-0.334229,-0.429777,20.625000,26.216843,4,5.370000,3,0,0, 202
1643, 101,134745,134738,9646,1,1,4.150111,8.960031,0.304033,-0.694764,0.742804,0.025675,13.743954,2.485415,-5.653450,0.996917,-2.993647,0.092878,176.490094,-14.026640,-158.864435,-0.114398,0.185617,0.974540,-0.052263,1417.910645,85952.351562,-4.301292,0.305924,92.123657,-0.613037,-0.376928,20.625000,26.298586,4,5.370000,3,0,0, 202
1644, 101,134797,134794,9698,1,1,4.135384,8.950567,0.234654,-0.673437,0.672960,0.015452,14.224480,1.524364,-5.653450,-0.274899,0.806845,-0.252822,176.506309,-14.036988,-158.897398,-0.114528,0.185321,0.974589,-0.052108,1418.019043,85950.960938,-1.746269,-0.910776,92.123657,-0.504639,-0.461500,20.625000,26.275879,4,5.370000,3,0,0, 202
1645, 101,134850,134836,9751,1,1,4.107798,8.998377,0.243825,-0.636616,0.698336,0.048431,14.705005,1.524364,-5.653450,0.028239,1.188617,0.816383,176.475245,-14.101716,-158.912452,-0.115036,0.185228,0.974528,-0.052458,1417.996826,85948.812500,0.074780,-0.910129,92.123657,-0.526855,-0.495174,20.625000,26.244091,4,5.370000,3,0,0, 202
1646, 101,134902,134893,9803,1,1,4.122577,8.984363,0.238734,-0.645645,0.679423,0.042421,14.224480,1.524364,-6.614501,-0.275589,3.616284,-0.313612,176.530474,-14.237449,-158.863411,-0.116258,0.185598,0.974324,-0.052248,1418.198120,85946.070312,1.829620,-0.022097,92.123657,-0.325562,-0.401435,20.625000,26.235008,4,5.370000,3,0,0, 202
1647, 101,134954,134950,9855,1,1,4.118724,8.957288,0.254071,-0.644204,0.694558,0.015519,13.743954,1.043838,-6.133976,1.069936,2.150876,1.329879,176.525146,-14.271452,-158.795819,-0.116508,0.186180,0.974174,-0.052415,1417.986816,85955.265625,1.171752,-0.021188,92.123657,-0.536865,-0.402524,20.625000,26.225925,4,5.370000,3,0,0, 202
1648, 101,135005,134992,9906,1,1,4.143220,8.985290,0.254568,-0.655962,0.686283,0.051169,13.743954,2.485415,-6.133976,-1.764847,3.127995,-0.712612,176.568900,-14.307818,-158.791366,-0.116887,0.186176,0.974146,-0.052104,1417.947876,85949.296875,-1.662861,-0.020298,92.123657,-0.575806,-0.403303,20.625000,26.225925,4,5.370000,3,0,0, 202
1649, 101,135057,135050,9958,1,1,4.140175,8.952868,0.284732,-0.662843,0.717593,0.018454,15.185531,0.082786,-6.133976,-0.336991,-0.515416,-0.090507,176.552426,-14.216584,-158.737380,-0.116059,0.186646,0.974153,-0.052157,1418.093872,85950.648438,-0.048927,-0.454640,92.123657,-0.429810,-0.444249,20.625000,26.212301,4,5.370000,3,0,0, 202
1650, 101,135109,135108,10010,1,1,4.144998,8.950988,0.255505,-0.656996,0.688953,0.020414,13.263428,1.524364,-5.653450,0.233414,-2.498514,-0.349036,176.552098,-14.225111,-158.715155,-0.116121,0.186836,0.974107,-0.052196,1418.296753,85944.796875,2.876130,-0.453057,92.123657,-0.226929,-0.467780,20.625000,26.207760,4,5.370000,3,0,0, 202
1651, 101,135162,135150,10063,1,1,4.135978,8.982492,0.272707,-0.649829,0.703188,0.045274,13.743954,2.485415,-6.133976,-1.269315,1.908011,-1.359335,176.590129,-14.252426,-158.761764,-0.116436,0.186403,0.974170,-0.051868,1418.169067,85951.406250,2.665555,0.643271,92.123657,-0.354614,-0.365244,20.625000,26.221384,4,5.370000,3,0,0, 202
1652, 101,135213,135207,10114,1,1,4.138565,8.979305,0.269329,-0.667842,0.694783,0.042752,13.743954,1.043838,-6.614501,-0.574327,2.927825,-0.813117,176.585634,-14.337580,-158.852988,-0.117195,0.185636,0.974221,-0.051946,1418.074585,85953.515625,0.120178,0.645252,92.123657,-0.449097,-0.332563,20.625000,26.216843,4,5.370000,3,0,0, 202
1653, 101,135265,135265,10166,1,1,4.115502,8.927501,0.270029,-0.664347,0.686315,-0.013347,13.743954,1.043838,-5.653450,-0.735866,0.015817,0.526988,176.624239,-14.348274,-158.847237,-0.117346,0.185646,0.974217,-0.051640,1418.054443,85950.531250,-1.679615,-0.061019,92.123657,-0.469238,-0.418538,20.625000,26.216843,4,5.370000,3,0,0, 202
1654, 101,135317,135306,10218,1,1,4.141115,8.950939,0.282745,-0.678364,0.701892,0.017109,13.263428,1.524364,-5.653450,0.634477,1.631844,-0.190127,176.597259,-14.385123,-158.822252,-0.117605,0.185888,0.974123,-0.051952,1418.170654,85949.890625,-0.662028,-0.061114,92.123657,-0.353027,-0.420783,20.625000,26.203218,4,5.370000,3,0,0, 202
1655, 101,135370,135363,10271,1,1,4.124523,8.947335,0.250397,-0.656319,0.671139,0.009607,14.224480,1.524364,-6.133976,-0.058750,0.393387,1.246565,176.611152,-14.396741,-158.820435,-0.117726,0.185890,0.974113,-0.051854,1418.030396,85954.750000,-0.415422,-0.176143,92.123657,-0.493286,-0.446122,20.625000,26.207760,4,5.370000,3,0,0, 202
1656, 101,135422,135405,10323,1,1,4.115388,8.954620,0.257801,-0.650114,0.647701,-0.007199,13.743954,1.524364,-6.614501,-3.154588,2.527520,0.844595,176.640645,-14.410816,-158.819684,-0.117893,0.185867,0.974110,-0.051626,1418.211304,85945.031250,-0.744685,-0.175620,92.123657,-0.312378,-0.452681,20.625000,26.198677,4,5.370000,3,0,0, 202
1657, 101,135474,135462,10375,1,1,4.098901,8.951154,0.226227,-0.619738,0.635914,0.006490,12.782902,2.004889,-5.653450,0.076694,-3.899846,0.106776,176.724656,-14.391661,-158.783785,-0.117850,0.186084,0.974110,-0.050919,1418.092529,85953.757812,0.245230,-0.174955,92.123657,-0.431152,-0.461755,20.625000,26.207760,4,5.370000,3,0,0, 202
1658, 101,135526,135519,10427,1,1,4.151157,8.929945,0.250904,-0.681116,0.643828,0.005148,12.782902,0.563312,-6.614501,-1.429589,-1.101664,0.002712,176.735885,-14.376392,-158.787691,-0.117740,0.186039,0.974139,-0.050796,1418.237793,85945.914062,0.624443,0.007279,92.123657,-0.285889,-0.455757,20.625000,26.203218,4,5.370000,3,0,0, 202
1659, 101,135746,135736,10647,1,1,4.107234,8.977710,0.245798,-0.595426,0.663760,0.034342,13.743954,2.485415,-6.133976,0.731927,-0.148166,0.238912,176.729342,-14.334021,-158.620010,-0.117295,0.187469,0.973910,-0.050957,1417.987427,85951.835938,-1.709218,-1.193813,92.123657,-0.536255,-0.581768,20.625000,26.280420,4,5.370000,3,0,0, 202
1660, 101,135798,135791,10699,1,1,4.131534,8.944441,0.226683,-0.599875,0.638713,0.015118,14.705005,0.563312,-6.133976,-0.940717,1.171133,4.271009,176.749955,-14.285090,-158.473175,-0.116847,0.188694,0.973733,-0.050854,1418.132812,85949.328125,0.988227,-1.192931,92.123657,-0.390869,-0.640451,20.625000,26.262257,4,5.370000,3,0,0, 202
1661, 101,135851,135850,10752,1,1,4.117317,8.962309,0.284127,-0.596971,0.689988,0.023640,12.782902,2.485415,-5.653450,0.123800,1.345015,-0.400299,176.801755,-14.326434,-158.485114,-0.117289,0.188541,0.973729,-0.050468,1418.330811,85949.929688,4.569828,0.031051,92.123657,-0.192871,-0.408387,20.625000,26.239550,4,5.370000,3,0,0, 202
1662, 101,135903,135891,10804,1,1,4.086234,8.951622,0.270709,-0.562286,0.694606,0.002238,14.224480,2.004889,-6.614501,0.730646,0.291955,2.341243,176.737142,-14.357575,-158.441688,-0.117428,0.188978,0.973594,-0.051111,1418.299805,85946.429688,3.881855,0.031555,92.123657,-0.223877,-0.407218,20.625000,26.221384,4,5.370000,3,0,0, 202
1663, 101,135955,135948,10856,1,1,4.130476,8.966303,0.254150,-0.605591,0.665612,0.033136,13.743954,1.524364,-6.133976,0.160894,-1.197672,-1.618478,176.753302,-14.332442,-158.518623,-0.117275,0.188306,0.973756,-0.050855,1418.181885,85949.773438,0.164939,0.363855,92.123657,-0.341797,-0.375695,20.625000,26.207760,4,5.370000,3,0,0, 202
1664, 101,136007,136006,10908,1,1,4.132704,8.977953,0.250688,-0.593992,0.673658,0.044765,14.224480,2.004889,-6.614501,1.573581,-1.494076,1.824962,176.707813,-14.317441,-158.467151,-0.117050,0.188790,0.973668,-0.051270,1418.072998,85952.640625,-1.918761,0.365519,92.123657,-0.450684,-0.356928,20.625000,26.212301,4,5.380000,3,0,0, 202
1665, 101,136059,136048,10960,1,1,4.131622,8.940660,0.251187,-0.598942,0.670348,0.010254,13.263428,1.043838,-6.133976,0.756876,0.808921,1.346900,176.707676,-14.377434,-158.421621,-0.117540,0.189179,0.973526,-0.051413,1418.163086,85949.773438,-1.434238,-0.219485,92.123657,-0.360596,-0.373577,20.625000,26.207760,4,5.370000,3,0,0, 202
1666, 101,136111,136103,11012,1,1,4.112501,8.988343,0.268720,-0.564856,0.706632,0.045664,13.743954,0.563312,-5.653450,-1.053181,-1.285743,0.772961,176.670274,-14.279226,-158.397647,-0.116632,0.189417,0.973579,-0.051599,1418.245117,85947.664062,0.738412,-0.217828,92.123657,-0.278564,-0.384470,20.625000,26.212301,4,5.370000,3,0,0, 202
1667, 101,136163,136162,11064,1,1,4.131256,8.958757,0.242894,-0.581276,0.683145,0.026565,14.224480,2.485415,-6.614501,0.851889,2.022281,0.459750,176.621520,-14.267909,-158.369766,-0.116442,0.189703,0.973523,-0.052024,1418.159302,85948.898438,-0.188946,-0.209580,92.123657,-0.364380,-0.370110,20.625000,26.203218,4,5.370000,3,0,0, 202
1668, 101,136215,136203,11116,1,1,4.143429,8.982998,0.264186,-0.591477,0.707911,0.051972,14.705005,2.004889,-5.653450,0.136486,-1.419362,-1.729184,176.600169,-14.250666,-158.385830,-0.116267,0.189587,0.973559,-0.052161,1418.186768,85948.257812,-0.585276,-0.208457,92.123657,-0.336914,-0.377801,20.625000,26.189596,4,5.370000,3,0,0, 202
1669, 101,136266,136260,11167,1,1,4.157329,8.927813,0.223340,-0.612915,0.659175,0.008634,14.224480,2.004889,-6.133976,-1.928722,-2.607347,-0.006867,176.593844,-14.209893,-158.381732,-0.115908,0.189626,0.973595,-0.052154,1418.131836,85948.023438,-1.097963,-0.205686,92.123657,-0.391846,-0.388344,20.625000,26.198677,4,5.370000,3,0,0, 202
1670, 101,136319,136302,11220,1,1,4.105618,8.965246,0.265641,-0.558002,0.690845,0.025801,14.224480,1.043838,-5.653450,-0.296126,-0.031774,1.697230,176.629785,-14.136364,-158.355696,-0.115330,0.189808,0.973649,-0.051758,1418.374023,85944.039062,1.536435,-0.408998,92.123657,-0.149658,-0.382509,20.625000,26.198677,4,5.370000,3,0,0, 202
1671, 101,136371,136361,11272,1,1,4.118659,8.965631,0.236805,-0.551234,0.684828,0.029011,14.705005,1.524364,-5.653450,-1.421225,-1.913562,0.245039,176.630686,-14.076365,-158.283446,-0.114789,0.190418,0.973596,-0.051727,1418.258667,85948.023438,2.517966,-0.407645,92.123657,-0.265015,-0.403932,20.625000,26.198677,4,5.370000,3,0,0, 202
1672, 101,136423,136417,11324,1,1,4.154718,8.951128,0.252273,-0.593868,0.682242,0.029050,13.263428,1.524364,-6.133976,-0.308059,1.810500,-0.680246,176.674372,-14.109619,-158.290098,-0.115147,0.190319,0.973590,-0.051402,1418.344238,85945.273438,1.282104,0.316360,92.123657,-0.179443,-0.337041,20.625000,26.189596,4,5.370000,3,0,0, 202
1673, 101,136475,136458,11376,1,1,4.143780,8.975478,0.264894,-0.592535,0.699003,0.026995,13.743954,2.004889,-6.133976,-0.309963,0.924081,-0.743511,176.636970,-14.147779,-158.313458,-0.115420,0.190160,0.973570,-0.051758,1418.289307,85950.890625,1.673568,0.317699,92.123657,-0.234375,-0.325381,20.625000,26.203218,4,5.370000,3,0,0, 202
1674, 101,136527,136517,11428,1,1,4.113262,8.987312,0.248435,-0.547370,0.705065,0.045608,14.224480,0.563312,-5.653450,0.953090,-1.593397,1.016613,176.591181,-14.135915,-158.318334,-0.115245,0.190164,0.973570,-0.052123,1418.412354,85945.273438,1.295481,0.680107,92.123657,-0.111328,-0.280051,20.625000,26.189596,4,5.370000,3,0,0, 202
1675, 101,136748,136746,11649,1,1,4.113533,8.948706,0.275029,-0.566402,0.711297,0.009676,13.263428,2.004889,-6.614501,0.410760,0.809873,0.661206,176.671613,-14.186343,-158.308349,-0.115803,0.190170,0.973535,-0.051530,1418.069458,85949.968750,-2.761811,-0.801251,92.123657,-0.454224,-0.411540,20.625000,26.275879,4,5.370000,3,0,0, 202
1676, 101,136801,136789,11702,1,1,4.121198,8.971491,0.275439,-0.565305,0.716719,0.033355,14.224480,1.524364,-6.614501,0.645385,-0.858536,0.136415,176.651737,-14.195150,-158.308581,-0.115846,0.190189,0.973516,-0.051713,1418.140015,85948.210938,-1.341395,-0.800532,92.123657,-0.383667,-0.441769,20.625000,26.266798,4,5.370000,3,0,0, 202
1677, 101,136853,136845,11754,1,1,4.134071,8.976548,0.293694,-0.577582,0.732736,0.042003,14.224480,2.004889,-6.133976,-1.538481,-0.393187,-0.469891,176.655193,-14.157437,-158.297325,-0.115525,0.190279,0.973541,-0.051635,1418.259277,85948.812500,1.886621,-0.128332,92.123657,-0.264404,-0.345315,20.625000,26.244091,4,5.370000,3,0,0, 202
1678, 101,136905,136904,11806,1,1,4.113107,8.989347,0.255936,-0.554554,0.698873,0.047633,14.224480,2.004889,-6.133976,-0.231071,1.890003,-0.158126,176.662078,-14.137113,-158.355545,-0.115390,0.189777,0.973663,-0.051485,1418.125488,85953.273438,0.650438,-0.126978,92.123657,-0.398193,-0.351988,20.625000,26.225925,4,5.370000,3,0,0, 202
1679, 101,136957,136945,11858,1,1,4.117191,8.966067,0.287767,-0.571380,0.721101,0.026409,12.782902,0.563312,-5.172924,-2.076767,0.581978,-1.131941,176.692172,-14.135550,-158.337841,-0.115419,0.189897,0.973649,-0.051245,1418.169067,85946.546875,-1.204954,-0.477834,92.123657,-0.354614,-0.347580,20.625000,26.216843,4,5.370000,3,0,0, 202
1680, 101,137008,137002,11909,1,1,4.101371,8.949304,0.248488,-0.572829,0.693525,0.005320,13.743954,2.004889,-6.133976,1.051896,-1.204539,-2.407832,176.605633,-14.166214,-158.453477,-0.115589,0.189003,0.973767,-0.051912,1418.057861,85953.515625,-1.784876,-0.476193,92.123657,-0.465820,-0.371939,20.625000,26.216843,4,5.370000,3,0,0, 202
1681, 101,137060,137044,11961,1,1,4.129111,8.981284,0.249886,-0.592721,0.683999,0.041836,14.705005,2.004889,-5.653450,0.608448,0.905055,0.865730,176.606699,-14.226479,-158.473434,-0.116112,0.188835,0.973734,-0.051979,1418.065674,85947.781250,-1.664588,-0.475566,92.123657,-0.458008,-0.389490,20.625000,26.207760,4,5.370000,3,0,0, 202
1682, 101,137113,137102,12014,1,1,4.105405,8.961416,0.241133,-0.576430,0.694610,0.017591,14.224480,2.004889,-5.172924,0.676850,0.619801,-0.062225,176.549120,-14.255401,-158.488994,-0.116270,0.188763,0.973701,-0.052498,1418.080078,85949.773438,-0.871721,-0.861267,92.123657,-0.443604,-0.420960,20.625000,26.207760,4,5.370000,3,0,0, 202
1683, 101,137164,137158,12065,1,1,4.148300,8.943207,0.280512,-0.633948,0.720101,0.014681,14.705005,1.524364,-5.653450,-0.455128,-1.118237,-0.544299,176.552289,-14.241347,-158.505222,-0.116164,0.188621,0.973745,-0.052432,1418.025757,85950.765625,0.132329,-0.860735,92.123657,-0.497925,-0.463432,20.625000,26.207760,4,5.370000,3,0,0, 202
1684, 101,137217,137215,12118,1,1,4.098837,8.975277,0.265163,-0.586539,0.715019,0.026059,14.224480,2.004889,-5.653450,0.051288,1.838981,-2.135098,176.562671,-14.258710,-158.579193,-0.116362,0.187983,0.973852,-0.052296,1418.151978,85946.031250,0.178685,-0.654774,92.123657,-0.371704,-0.464503,20.625000,26.198677,4,5.370000,3,0,0, 202
1685, 101,137269,137256,12170,1,1,4.160544,8.963620,0.281635,-0.643184,0.721209,0.037806,13.743954,0.563312,-5.653450,1.289811,-3.138059,1.077655,176.547003,-14.242088,-158.536177,-0.116175,0.188363,0.973793,-0.052447,1418.151611,85950.765625,1.501703,-0.653821,92.123657,-0.372070,-0.488546,20.625000,26.207760,4,5.370000,3,0,0, 202
1686, 101,137321,137314,12222,1,1,4.104121,8.942798,0.241410,-0.589842,0.687081,-0.000198,13.743954,2.485415,-5.653450,-0.738685,-0.847471,-1.535184,176.571482,-14.203410,-158.536969,-0.115887,0.188330,0.973848,-0.052177,1418.082520,85950.890625,1.236775,0.277034,92.123657,-0.441162,-0.434878,20.625000,26.203218,4,5.370000,3,0,0, 202
1687, 101,137372,137356,12273,1,1,4.126132,8.961949,0.280257,-0.587623,0.700464,-0.003677,14.224480,1.524364,-5.653450,-2.852502,-1.930679,-0.966039,176.627531,-14.179308,-158.521300,-0.115767,0.188405,0.973874,-0.051678,1417.982666,85951.007812,-1.206436,0.277339,92.123657,-0.541016,-0.424619,20.750000,26.198677,4,5.370000,3,0,0, 202
1688, 101,137424,137414,12325,1,1,4.128805,9.010801,0.269946,-0.590274,0.698552,0.072097,14.224480,2.485415,-5.653450,-2.034123,0.501308,-1.141419,176.706788,-14.083019,-158.510427,-0.115073,0.188413,0.973998,-0.050863,1418.011108,85947.898438,-1.467269,-0.321212,92.123657,-0.512573,-0.517007,20.750000,26.203218,4,5.370000,3,0,0, 202
1689, 101,137477,137470,12378,1,1,4.125287,8.992733,0.306138,-0.608765,0.733278,0.051546,13.743954,2.965941,-6.133976,0.391308,-0.799795,-1.860171,176.685997,-14.124307,-158.548239,-0.115407,0.188114,0.974005,-0.051067,1418.142578,85951.765625,0.905001,-0.319255,92.123657,-0.381104,-0.532754,20.750000,26.207760,4,5.370000,3,0,0, 202
1690, 101,137529,137528,12430,1,1,4.169599,8.955063,0.260097,-0.651772,0.671269,0.036223,13.743954,0.563312,-6.614501,-1.900308,-2.277693,0.021897,176.705081,-14.072597,-158.554113,-0.115000,0.188043,0.974080,-0.050817,1418.131592,85951.007812,1.900372,0.424363,92.123657,-0.392090,-0.446814,20.750000,26.198677,4,5.370000,3,0,0, 202
1691, 101,137749,137742,12650,1,1,4.146669,9.005858,0.288725,-0.611383,0.690391,0.074894,14.224480,2.004889,-6.614501,0.087986,-0.376111,0.486959,176.840264,-14.014323,-158.503474,-0.114704,0.188335,0.974120,-0.049627,1418.041870,85950.718750,-0.447573,0.191277,92.123657,-0.481812,-0.466289,20.750000,26.284962,4,5.370000,3,0,0, 202
1692, 101,137801,137799,12702,1,1,4.117772,8.985680,0.303472,-0.585737,0.707456,0.045167,13.263428,1.524364,-6.614501,-1.982329,-0.120559,1.027632,176.857244,-14.014174,-158.441811,-0.114704,0.188842,0.974026,-0.049544,1418.045898,85950.203125,-2.757056,0.194090,92.123657,-0.477783,-0.456557,20.750000,26.266798,4,5.370000,3,0,0, 202
1693, 101,137854,137841,12755,1,1,4.139889,8.950026,0.281889,-0.608997,0.674226,0.022220,14.224480,2.004889,-5.653450,-0.995329,-1.779703,0.403532,176.883198,-13.955623,-158.417577,-0.114238,0.189021,0.974061,-0.049254,1418.009888,85948.812500,-1.699586,-0.422467,92.123657,-0.513794,-0.485699,20.750000,26.244091,4,5.370000,3,0,0, 202
1694, 101,137905,137898,12806,1,1,4.143151,9.000577,0.287473,-0.611073,0.678009,0.069442,14.705005,2.965941,-5.653450,0.333904,1.074272,-3.305319,176.907760,-13.934394,-158.512380,-0.114139,0.188190,0.974251,-0.048917,1418.024536,85951.281250,-0.063650,-0.420955,92.123657,-0.499146,-0.507342,20.750000,26.225925,4,5.370000,3,0,0, 202
1695, 101,137957,137954,12858,1,1,4.122552,8.946135,0.246851,-0.605772,0.640300,0.012906,12.782902,2.004889,-6.614501,1.284469,0.793970,1.130496,176.871997,-13.954495,-158.534551,-0.114261,0.188037,0.974250,-0.049231,1418.012207,85952.398438,-0.073188,-0.309187,92.123657,-0.511475,-0.495413,20.750000,26.221384,4,5.370000,3,0,0, 202
1696, 101,138010,137995,12911,1,1,4.137808,8.984383,0.254218,-0.607663,0.652425,0.053456,13.263428,1.524364,-5.653450,0.915431,0.235525,-1.330428,176.854471,-13.978962,-158.533772,-0.114440,0.188062,0.974214,-0.049420,1418.085083,85947.539062,-0.123323,-0.308584,92.123657,-0.438599,-0.506783,20.750000,26.216843,4,5.370000,3,0,0, 202
1697, 101,138061,138053,12962,1,1,4.111142,8.969634,0.254326,-0.597561,0.649987,0.029612,13.743954,1.524364,-5.172924,-0.042619,2.328940,0.490120,176.873868,-14.021004,-158.585518,-0.114852,0.187604,0.974262,-0.049270,1418.027832,85952.515625,0.893356,-0.306266,92.123657,-0.495850,-0.521845,20.750000,26.216843,4,5.370000,3,0,0, 202
1698, 101,138114,138109,13015,1,1,4.104413,8.977337,0.292511,-0.581614,0.702545,0.032235,14.224480,2.004889,-5.653450,1.573556,-1.591637,3.710392,176.821904,-14.014881,-158.487409,-0.114672,0.188490,0.974085,-0.049800,1418.015869,85952.281250,0.362671,0.320158,92.123657,-0.507812,-0.453538,20.750000,26.225925,4,5.370000,3,0,0, 202
1699, 101,138166,138150,13067,1,1,4.133824,8.960211,0.261373,-0.560162,0.687461,0.059137,13.263428,1.524364,-6.614501,-0.785371,-0.409563,0.292618,176.882816,-14.002340,-158.415036,-0.114634,0.189044,0.974006,-0.049335,1418.138550,85948.539062,0.466923,0.321871,92.123657,-0.385132,-0.441964,20.750000,26.216843,4,5.380000,3,0,0, 202
1700, 101,138218,138209,13119,1,1,4.101995,8.961833,0.250777,-0.558598,0.655339,0.020517,13.743954,2.004889,-6.614501,-1.183266,-2.364568,0.551010,176.881805,-13.898287,-158.391404,-0.113737,0.189242,0.974079,-0.049201,1417.970947,85956.500000,0.276687,0.483571,92.123657,-0.552734,-0.418190,20.750000,26.216843,4,5.370000,3,0,0, 202
1701, 101,138270,138265,13171,1,1,4.098690,8.938924,0.277541,-0.579832,0.668017,-0.003133,13.743954,2.965941,-5.172924,-0.883561,-0.247565,-3.199479,176.931597,-13.881150,-158.449365,-0.113698,0.188700,0.974215,-0.048693,1417.951416,85951.523438,-1.657270,0.484278,92.123657,-0.572266,-0.394386,20.750000,26.216843,4,5.370000,3,0,0, 202
1702, 101,138322,138306,13223,1,1,4.128824,8.951702,0.282218,-0.619054,0.667163,0.014553,13.743954,2.485415,-5.653450,2.095862,-1.761694,1.419104,176.881081,-13.853394,-158.462124,-0.113384,0.188641,0.974244,-0.049065,1418.106323,85948.898438,0.014310,0.010123,92.123657,-0.417358,-0.445921,20.750000,26.203218,4,5.370000,3,0,0, 202
1703, 101,138374,138365,13275,1,1,4.146358,8.951013,0.250931,-0.611865,0.653682,0.026217,13.743954,2.004889,-6.133976,-0.021584,-1.045543,-1.027589,176.823106,-13.803706,-158.448354,-0.112859,0.188813,0.974250,-0.049493,1418.070068,85948.898438,1.121264,0.011438,92.123657,-0.453613,-0.445406,20.750000,26.203218,4,5.370000,3,0,0, 202
1704, 101,138425,138421,13326,1,1,4.115030,8.958261,0.281214,-0.591770,0.692315,0.019056,13.743954,2.004889,-6.133976,-0.402719,1.537761,-1.296704,176.803927,-13.849558,-158.469008,-0.113227,0.188658,0.974226,-0.049709,1418.026855,85953.632812,1.028520,0.340414,92.123657,-0.496826,-0.465108,20.750000,26.212301,4,5.370000,3,0,0, 202
1705, 101,138477,138463,13378,1,1,4.121068,8.983649,0.256587,-0.581796,0.680547,0.045490,13.743954,2.485415,-5.172924,2.286336,-1.987643,0.566911,176.749805,-13.812166,-158.466577,-0.112819,0.188731,0.974239,-0.050112,1418.038696,85950.648438,0.422235,0.341261,92.123657,-0.484985,-0.452392,20.750000,26.212301,4,5.370000,3,0,0, 202
1706, 101,138530,138521,13431,1,1,4.123098,8.945288,0.238898,-0.582761,0.663540,0.012016,14.224480,2.004889,-6.133976,0.276386,-0.292931,2.190056,176.730352,-13.808879,-158.404709,-0.112731,0.189276,0.974132,-0.050333,1418.066528,85949.531250,0.443804,0.369954,92.123657,-0.457153,-0.462445,20.750000,26.216843,4,5.370000,3,0,0, 202
1707, 101,138751,138749,13652,1,1,4.142727,8.926366,0.280317,-0.601240,0.697005,0.000707,13.263428,2.965941,-6.133976,-0.330838,-0.940203,-0.860476,176.758889,-13.723833,-158.310521,-0.112013,0.190044,0.974080,-0.050047,1417.926514,85954.460938,-2.606486,-0.743016,92.123657,-0.597168,-0.484945,20.750000,26.294044,4,5.370000,3,0,0, 202
1708, 101,138802,138791,13703,1,1,4.121353,8.984612,0.247403,-0.551556,0.683917,0.047760,14.224480,2.004889,-5.653450,0.402611,-1.901324,0.430141,176.729246,-13.623927,-158.301805,-0.111110,0.190143,0.974159,-0.050147,1418.100952,85948.851562,-1.352663,-0.742491,92.123657,-0.422729,-0.512907,20.750000,26.280420,4,5.370000,3,0,0, 202
1709, 101,138855,138847,13756,1,1,4.118009,8.954493,0.279711,-0.564187,0.704275,0.017598,14.224480,2.485415,-5.172924,-0.771526,3.190706,-0.774201,176.774435,-13.664348,-158.284498,-0.111522,0.190248,0.974107,-0.049845,1418.110107,85952.554688,1.061416,-0.158219,92.123657,-0.413574,-0.452194,20.750000,26.253174,4,5.370000,3,0,0, 202
1710, 101,138906,138905,13807,1,1,4.138117,8.969980,0.235655,-0.576000,0.656349,0.041638,13.743954,1.524364,-5.172924,-0.220788,0.575275,-2.236840,176.777699,-13.709087,-158.341625,-0.111933,0.189761,0.974155,-0.049833,1417.970581,85956.539062,-1.327187,-0.156656,92.123657,-0.553101,-0.460401,20.750000,26.253174,4,5.370000,3,0,0, 202
1711, 101,138959,138947,13860,1,1,4.166391,8.959616,0.282312,-0.619897,0.692791,0.040189,13.743954,1.043838,-6.133976,-0.228373,1.189993,-0.526033,176.782412,-13.712874,-158.363059,-0.111982,0.189574,0.974189,-0.049778,1418.089844,85953.789062,-1.780621,-0.621762,92.123657,-0.433838,-0.446045,20.750000,26.244091,4,5.370000,3,0,0, 202
1712, 101,139011,139004,13912,1,1,4.118294,8.938654,0.275527,-0.576507,0.708031,0.002169,13.263428,2.004889,-5.653450,0.246430,0.510831,1.691587,176.703633,-13.688280,-158.328279,-0.111627,0.189946,0.974123,-0.050442,1418.072632,85950.289062,-1.651830,-0.619927,92.123657,-0.451050,-0.477682,20.750000,26.225925,4,5.370000,3,0,0, 202
1713, 101,139062,139062,13963,1,1,4.116522,8.966150,0.269095,-0.551090,0.710962,0.027573,13.263428,2.485415,-5.172924,-0.112295,0.966751,1.497841,176.693688,-13.667516,-158.254199,-0.111401,0.190584,0.974018,-0.050565,1418.140137,85950.328125,-0.081567,-0.446564,92.123657,-0.383545,-0.422482,20.750000,26.262257,4,5.370000,3,0,0, 202
1714, 101,139114,139103,14015,1,1,4.127012,8.969335,0.273582,-0.554972,0.711600,0.034734,14.224480,2.004889,-6.133976,-1.334610,-1.059756,-0.576154,176.713455,-13.673024,-158.221223,-0.111466,0.190845,0.973966,-0.050438,1418.044800,85949.812500,-0.219133,-0.445423,92.123657,-0.478882,-0.438609,20.750000,26.244091,4,5.370000,3,0,0, 202
1715, 101,139167,139159,14068,1,1,4.148757,8.970210,0.252101,-0.579323,0.686421,0.044487,12.782902,1.524364,-5.653450,-0.181303,1.171985,-0.527584,176.699863,-13.673666,-158.281711,-0.111476,0.190344,0.974060,-0.050496,1418.061157,85951.796875,-0.427923,-0.443708,92.123657,-0.462524,-0.460911,20.750000,26.244091,4,5.370000,3,0,0, 202
1716, 101,139218,139217,14119,1,1,4.127185,8.940962,0.246939,-0.578888,0.683756,0.008832,14.705005,1.524364,-5.172924,-0.642024,0.440958,-1.184422,176.671927,-13.694013,-158.339877,-0.111628,0.189878,0.974122,-0.050710,1418.104370,85950.921875,0.437251,-0.285334,92.123657,-0.419312,-0.444547,20.750000,26.239550,4,5.370000,3,0,0, 202
1717, 101,139271,139257,14172,1,1,4.118114,8.944580,0.261089,-0.578365,0.696827,0.007796,13.263428,1.524364,-6.614501,-1.218218,1.080489,-1.545607,176.681216,-13.692533,-158.373577,-0.111646,0.189583,0.974184,-0.050595,1418.187866,85945.070312,0.667637,-0.285046,92.123657,-0.335815,-0.454910,20.750000,26.235008,4,5.370000,3,0,0, 202
1718, 101,139322,139315,14223,1,1,4.107085,8.963511,0.272873,-0.567432,0.716029,0.020021,14.705005,-0.397740,-6.133976,-0.244129,-1.703448,0.187792,176.661695,-13.658875,-158.392155,-0.111335,0.189442,0.974242,-0.050690,1418.023682,85951.046875,-0.196343,-0.162351,92.123657,-0.500000,-0.465828,20.750000,26.235008,4,5.370000,3,0,0, 202
1719, 101,139375,139371,14276,1,1,4.125670,8.947712,0.232068,-0.585304,0.678319,0.013982,14.224480,2.485415,-5.653450,1.241005,1.879749,-0.465598,176.607546,-13.684961,-158.422249,-0.111481,0.189240,0.974239,-0.051162,1417.991699,85952.914062,-1.513113,-0.160374,92.123657,-0.531982,-0.473921,20.750000,26.239550,4,5.370000,3,0,0, 202
1720, 101,139427,139413,14328,1,1,4.142247,8.989370,0.242273,-0.589866,0.693961,0.057811,14.224480,2.004889,-5.172924,-0.260879,1.387720,-1.216012,176.586399,-13.686899,-158.434489,-0.111468,0.189157,0.974248,-0.051333,1418.107544,85950.046875,-0.487360,-0.268044,92.123657,-0.416138,-0.445557,20.750000,26.235008,4,5.370000,3,0,0, 202
1721, 101,139479,139470,14380,1,1,4.129078,8.969529,0.248648,-0.576205,0.696372,0.034986,13.743954,2.485415,-5.653450,-0.306980,-3.019656,0.926792,176.628077,-13.577024,-158.373878,-0.110575,0.189625,0.974284,-0.050863,1418.067871,85951.046875,0.475727,-0.266318,92.123657,-0.455811,-0.459244,20.750000,26.235008,4,5.370000,3,0,0, 202
1722, 101,139531,139525,14432,1,1,4.110921,8.928881,0.258699,-0.573425,0.686299,-0.008570,14.224480,2.485415,-5.653450,-2.074343,2.248912,-0.841800,176.730913,-13.670844,-158.352841,-0.111535,0.189709,0.974194,-0.050158,1418.203125,85947.062500,0.338739,-0.071249,92.123657,-0.320557,-0.398461,20.750000,26.235008,4,5.370000,3,0,0, 202
1723, 101,139752,139741,14653,1,1,4.165788,8.934319,0.239070,-0.597691,0.653357,0.019839,14.705005,0.563312,-5.172924,-2.433625,-1.303535,-0.605550,176.784898,-13.584000,-158.241727,-0.110837,0.190598,0.974126,-0.049668,1418.019287,85950.000000,-0.616754,-0.550372,92.123657,-0.504395,-0.472029,20.750000,26.312210,4,5.370000,3,0,0, 202
1724, 101,139805,139797,14706,1,1,4.133996,8.961622,0.252221,-0.557132,0.680732,0.032129,14.224480,2.485415,-6.614501,0.518441,-1.963672,1.170234,176.770405,-13.494746,-158.212344,-0.110040,0.190857,0.974165,-0.049676,1417.989258,85952.234375,-1.390907,-0.548480,92.123657,-0.534424,-0.499471,20.750000,26.303127,4,5.370000,3,0,0, 202
1725, 101,139856,139856,14757,1,1,4.111156,8.948727,0.274374,-0.556165,0.698569,0.010181,13.743954,2.004889,-6.133976,-1.018944,-2.945734,-0.061717,176.797944,-13.411545,-158.272545,-0.109403,0.190315,0.974364,-0.049251,1417.890625,85951.992188,-1.445185,-0.840581,92.123657,-0.633057,-0.532741,20.750000,26.312210,4,5.370000,3,0,0, 202
1726, 101,139909,139898,14810,1,1,4.113736,8.941348,0.251698,-0.556019,0.668773,0.006011,13.263428,2.485415,-6.614501,-0.845390,1.883143,0.322580,176.832518,-13.444999,-158.272859,-0.109746,0.190281,0.974344,-0.049010,1417.937256,85951.359375,-1.271712,-0.840011,92.123657,-0.586426,-0.563998,20.750000,26.298586,4,5.370000,3,0,0, 202
1727, 101,139960,139955,14861,1,1,4.120392,8.978113,0.297770,-0.555522,0.727717,0.039459,14.224480,1.524364,-5.653450,-0.438634,-0.162101,-0.128013,176.777986,-13.430864,-158.249309,-0.109525,0.190533,0.974297,-0.049474,1417.947754,85950.960938,-0.476531,-0.839579,92.123657,-0.575928,-0.606508,20.750000,26.275879,4,5.370000,3,0,0, 202
1728, 101,140013,140012,14914,1,1,4.151667,8.983749,0.249888,-0.563187,0.684499,0.059062,14.705005,2.004889,-5.172924,0.844213,-0.435738,-0.030801,176.737920,-13.442056,-158.204844,-0.109534,0.190950,0.974194,-0.049875,1418.206665,85945.585938,2.222638,-0.578585,92.123657,-0.317017,-0.556489,20.750000,26.253174,4,5.370000,3,0,0, 202
1729, 101,140065,140054,14966,1,1,4.119454,8.966674,0.281048,-0.545825,0.725508,0.028845,13.743954,2.004889,-5.653450,-0.117142,-0.228919,-0.739367,176.701857,-13.411403,-158.195309,-0.109209,0.191064,0.974194,-0.050141,1418.142090,85950.328125,3.288128,-0.577138,92.123657,-0.381592,-0.577997,20.750000,26.262257,4,5.370000,3,0,0, 202
1730, 101,140116,140110,15017,1,1,4.131739,8.989202,0.228562,-0.538674,0.662729,0.058000,13.263428,0.563312,-5.653450,-1.747918,0.006979,-0.553353,176.772754,-13.397190,-158.207795,-0.109211,0.190889,0.974261,-0.049504,1418.085083,85951.562500,1.815951,0.674988,92.123657,-0.438599,-0.475839,20.750000,26.253174,4,5.370000,3,0,0, 202
1731, 101,140169,140153,15070,1,1,4.115936,8.950854,0.277155,-0.559181,0.705084,0.012036,13.743954,2.004889,-5.653450,-0.302866,-3.319957,0.356091,176.711569,-13.359915,-158.219693,-0.108797,0.190844,0.974293,-0.049953,1418.179199,85947.820312,0.337372,0.676586,92.123657,-0.344482,-0.450421,20.750000,26.244091,4,5.370000,3,0,0, 202
