checksum,uptime mp,uptime nav, errorflag mp, errorflag nav,accel x, accel y, accel z, gyro x, gyro y, gyro z, mag x, mag y, mag z, magraw x, magraw y, magraw z, euler x, euler y, euler z, quat w, quat x, quat y, quat z, altitude, pressure, verticalvel,maxrecorded alt,  imutemp, barotemp, state,checksum2
101,11626,11496,0,0,-0.273904,-0.614178,-9.828574,2.013790,5.832856,0.447225,0.727194,32.461456,-54.925461,-644.000000,2158.000000,-3758.000000,47.756703,2.799624,-16.407941,0.906190,0.397346,0.079856,-0.120657,1211.906982,87498.992188,0.032629,1729.280151,28.375000,30.116844,0,202
101,13701,13614,0,0,-0.540455,-0.421591,-9.872874,0.068960,0.091510,0.718015,0.562200,32.244053,-56.372406,-671.000000,2120.000000,-3857.000000,71.334550,0.928357,-18.835030,0.802214,0.574123,0.101897,-0.128269,1211.899048,87499.078125,-0.122322,1729.280151,28.375000,30.163193,0,202
101,15781,15662,0,0,-0.652317,-0.261994,-9.833194,-1.200794,1.108641,-0.960858,0.947187,32.347034,-56.591640,-608.000000,2138.000000,-3872.000000,82.697116,0.973595,-15.441022,0.744627,0.653769,0.095068,-0.095285,1212.206909,87495.796875,0.690488,1729.280151,28.500000,30.191002,0,202
101,17861,17713,0,0,-0.503841,0.492400,-9.840889,-4.941430,14.375487,82.046835,10.828527,32.490059,-54.560070,1009.000000,2163.000000,-3733.000000,81.866497,-9.927311,48.972361,0.708445,0.566925,-0.330024,0.260360,1212.042236,87497.554688,-0.155347,1729.280151,28.500000,30.237350,0,202
101,19937,19848,0,0,0.673976,-0.373282,-9.827329,-0.758263,2.665496,0.686704,13.865649,33.096497,-34.025139,1506.000000,2269.000000,-2328.000000,76.748431,-0.421177,80.893557,0.598087,0.470558,-0.404926,0.506856,1212.171265,87496.171875,0.102213,1729.280151,28.375000,30.251255,0,202
101,22080,21946,0,0,0.665356,-0.218692,-9.813431,0.856500,1.946930,-0.250810,13.932871,33.165146,-34.156681,1517.000000,2281.000000,-2337.000000,79.588772,1.235593,81.161260,0.579029,0.491462,-0.410037,0.505035,1212.007202,87497.921875,0.034198,1729.280151,28.500000,30.302238,0,202
101,24160,24070,0,0,0.678322,-0.155645,-9.817091,0.377543,1.722319,-0.948843,13.792318,33.085052,-34.244373,1494.000000,2267.000000,-2343.000000,81.128386,1.740600,81.070719,0.570873,0.501673,-0.413823,0.501178,1211.938110,87498.656250,0.320362,1729.280151,28.500000,30.320778,0,202
101,26240,26116,0,0,0.661777,-0.296780,-9.818235,-0.027754,1.106396,-0.356016,13.932871,33.050724,-35.296696,1517.000000,2266.000000,-2398.000000,81.752727,2.387436,81.165433,0.565257,0.507157,-0.413680,0.502140,1211.959106,87498.437500,-0.378074,1729.280151,28.500000,30.353222,0,202
101,28326,28244,0,0,0.683835,-0.166700,-9.816772,0.939656,2.828077,0.302681,13.945091,33.199474,-34.127445,1497.000000,2287.000000,-2335.000000,81.788558,2.915067,81.287939,0.562538,0.509105,-0.411693,0.504849,1211.862915,87499.460938,-0.638418,1729.280151,28.625000,30.385664,0,202
101,30413,30293,0,0,0.665505,-0.395531,-9.821856,0.000884,3.475487,0.834355,14.122309,33.153706,-33.425900,1548.000000,2279.000000,-2287.000000,81.900634,2.567895,81.607524,0.561969,0.507044,-0.415369,0.504544,1211.945557,87498.585938,0.155592,1729.280151,28.625000,30.413473,0,202
101,32500,32421,0,0,0.954645,-0.848777,-9.880987,6.560242,5.851224,-2.237557,14.397300,32.821880,-37.079803,1593.000000,2221.000000,-2537.000000,84.151844,3.054134,79.592809,0.558661,0.527343,-0.413564,0.488642,1212.192139,87495.953125,0.310948,1729.280151,28.750000,30.422743,0,202
101,34555,34454,0,0,0.195227,1.442927,-9.237166,-12.997864,10.665707,87.764365,11.891827,33.542740,-40.236774,1183.000000,2347.000000,-2753.000000,89.294048,-4.711361,84.552735,0.545394,0.499850,-0.493974,0.456821,1212.171265,87496.171875,0.171744,1729.280151,28.625000,30.455185,0,202
101,36612,36489,0,0,-0.014993,-1.231809,-10.616696,-14.355724,11.865427,-26.831481,16.523895,31.723431,-29.845074,1941.000000,2029.000000,-2042.000000,93.385283,-7.217917,124.343935,0.360070,0.300841,-0.662409,0.584002,1212.260620,87495.218750,0.414305,1729.280151,28.750000,30.478359,0,202
101,38727,38574,0,0,0.518516,0.204664,-9.876561,-0.579196,0.753863,-0.429810,12.026265,33.199474,-19.161064,1205.000000,2287.000000,-1311.000000,91.006417,-15.398443,137.857041,0.338885,0.166520,-0.693353,0.613751,1211.877563,87499.304688,-0.397346,1729.280151,28.625000,30.506166,0,202
101,40782,40692,0,0,0.602002,0.301254,-9.888747,-0.256651,1.078731,0.137801,11.934603,33.445480,-18.225666,1190.000000,2330.000000,-1247.000000,88.433376,-11.168854,136.523693,0.327221,0.192273,-0.670537,0.637446,1211.877563,87499.304688,-0.052630,1729.280151,28.625000,30.524706,0,202
101,42840,42728,0,0,1.010907,0.492866,-9.847999,0.503886,1.770865,0.105409,11.574059,33.285290,-17.991816,1131.000000,2302.000000,-1231.000000,86.552751,-11.116021,135.813285,0.334066,0.191286,-0.658718,0.646452,1211.864624,87499.445312,-0.257348,1729.280151,28.750000,30.552513,0,202
101,44901,44765,0,0,0.491271,0.427113,-9.845649,-2.152249,-0.150028,0.025440,11.891827,33.159424,-19.204912,1206.000000,2300.000000,-1314.000000,86.465714,-8.141439,135.236926,0.321683,0.212334,-0.651461,0.653477,1211.905884,87499.007812,-0.707514,1729.280151,28.750000,30.571053,0,202
101,46963,46804,0,0,0.638068,0.249753,-9.876962,-0.657020,2.022629,-0.023158,11.934603,33.142265,-18.766441,1190.000000,2277.000000,-1284.000000,86.128153,-7.682726,134.664638,0.323138,0.217392,-0.647519,0.655013,1212.152588,87496.375000,-0.380884,1729.280151,28.750000,30.584957,0,202
101,49024,48931,0,0,0.647277,0.306634,-9.872760,0.192120,1.505917,-0.227398,11.971268,33.102219,-18.781059,1196.000000,2270.000000,-1285.000000,85.737172,-7.136711,133.915066,0.325281,0.223793,-0.642681,0.656559,1212.221069,87495.640625,0.119290,1729.280151,28.750000,30.608130,0,202
101,51091,50972,0,0,0.684745,0.301635,-9.864721,0.865418,1.144425,0.449115,11.867382,33.170868,-18.751827,1179.000000,2282.000000,-1283.000000,85.481272,-6.976393,133.234233,0.328839,0.227836,-0.639523,0.656480,1211.893433,87499.140625,-0.500355,1729.280151,28.750000,30.631302,0,202
101,53156,53014,0,0,0.677533,0.273349,-9.881715,0.847998,2.016993,0.349142,12.234037,33.353943,-19.058756,1239.000000,2314.000000,-1304.000000,85.565475,-6.893807,132.680673,0.331402,0.231662,-0.638711,0.654640,1211.866821,87499.421875,-0.776096,1729.280151,28.875000,30.649841,0,202
101,55279,55187,0,0,0.894982,0.421644,-9.847375,2.206404,0.063031,-0.209124,11.971268,33.336781,-19.307220,1196.000000,2311.000000,-1321.000000,84.977334,-7.349678,132.074057,0.338441,0.230575,-0.635153,0.654884,1211.982788,87498.179688,-0.914642,1729.280151,28.875000,30.673014,0,202
101,57346,57227,0,0,0.702518,0.305152,-9.850536,-0.344839,1.121012,-0.517277,11.965158,33.336781,-18.927214,1195.000000,2311.000000,-1295.000000,85.305900,-6.730424,131.687946,0.336743,0.237401,-0.634826,0.653636,1212.395264,87493.789062,0.433350,1729.280151,28.875000,30.691551,0,202
101,59416,59273,0,0,0.714787,0.338137,-9.858654,0.165993,3.094373,0.459029,11.934603,33.371109,-18.912598,1190.000000,2317.000000,-1294.000000,84.937719,-6.853306,131.158661,0.341167,0.238501,-0.631912,0.653765,1212.237427,87495.468750,0.093197,1729.280151,28.875000,30.705456,0,202
101,61482,61393,0,0,0.693541,0.388866,-9.855456,0.211275,0.679574,-0.303206,12.117929,33.359665,-18.225666,1220.000000,2315.000000,-1247.000000,84.669026,-6.529729,130.470943,0.343979,0.243418,-0.628168,0.654088,1212.073975,87497.210938,-0.620583,1729.280151,28.875000,30.728628,0,202
101,63555,63435,0,0,5.512246,-0.343508,6.841007,30.019166,8.435157,-259.701906,19.218805,5.520839,-9.748611,2382.000000,-2551.000000,-667.000000,126.591833,-129.310835,117.568101,0.790161,-0.149143,-0.537522,-0.253911,1211.629272,87501.953125,-0.618646,1729.280151,28.875000,30.747166,0,202
101,65625,65482,0,0,0.248151,-4.974614,-8.768495,-1.694735,1.679268,3.855327,15.454485,31.843575,-56.313942,1766.000000,2050.000000,-3853.000000,170.338593,174.318462,18.063912,-0.152114,0.061976,0.075313,0.983539,1211.636597,87501.875000,0.030821,1729.280151,28.875000,30.770338,0,202
101,67700,67609,0,0,-0.791812,-0.652933,-9.874744,-4.408238,6.602209,-3.950952,4.179858,32.701736,-57.673191,-79.000000,2200.000000,-3946.000000,50.525464,7.704706,171.348245,0.039470,0.092705,-0.420009,0.901909,1212.171265,87496.171875,0.466578,1729.280151,28.875000,30.784243,0,202
101,69778,69656,0,0,-1.030077,-0.163815,-9.994208,-0.916913,-4.820246,-0.898409,2.316031,32.232613,-57.848583,-384.000000,2118.000000,-3958.000000,71.869402,5.422475,162.131096,0.098184,0.128876,-0.573145,0.803278,1211.932495,87498.718750,-0.155456,1729.280151,28.875000,30.807415,0,202
101,71911,71828,0,0,-1.249446,0.039015,-10.025826,-19.765171,1.492509,0.565102,-2.560475,32.644527,-51.549255,-1182.000000,2190.000000,-3527.000000,81.647808,7.583212,127.565490,0.294787,0.333065,-0.563093,0.696487,1212.180298,87496.078125,-0.050508,1729.280151,29.000000,30.830585,0,202
101,73985,73873,0,0,-1.138099,-0.512810,-10.209003,5.064516,3.679239,-6.888140,0.513312,32.804722,-56.284714,-679.000000,2218.000000,-3851.000000,83.093267,11.004140,152.394689,0.115978,0.227190,-0.623990,0.738627,1212.092041,87497.023438,-0.224504,1729.280151,28.875000,30.839855,0,202
101,76058,75913,0,0,-1.028194,0.276589,-9.861295,-1.468489,5.387464,4.084425,-0.513321,32.552994,-56.021629,-847.000000,2174.000000,-3833.000000,87.810503,3.929832,150.858798,0.158136,0.198264,-0.664555,0.702887,1212.461548,87493.078125,0.895295,1729.280151,29.000000,30.853758,0,202
101,78134,78043,0,0,1.311087,-1.427151,-11.080213,35.666483,28.081788,110.947715,5.053718,33.519855,-52.002342,64.000000,2343.000000,-3558.000000,80.358712,-2.227551,171.132329,0.071558,0.035062,-0.644278,0.760628,1212.326782,87494.515625,0.106232,1729.280151,29.000000,30.890833,0,202
101,80209,80086,0,0,0.127253,-0.403213,-9.976313,-0.001841,1.239643,-0.133426,10.651312,32.936302,-50.789242,980.000000,2241.000000,-3475.000000,81.859851,-1.572255,-144.954523,-0.218880,-0.207117,-0.621556,0.723092,1212.484741,87492.835938,-0.067287,1729.280151,29.000000,30.900103,0,202
101,82289,82209,0,0,0.109631,-0.436494,-9.982470,0.769872,2.503804,0.052414,10.608535,33.050724,-51.724644,973.000000,2261.000000,-3539.000000,86.732194,-3.827014,-145.269654,-0.194971,-0.227994,-0.647750,0.700303,1212.265747,87495.164062,-0.638907,1729.280151,29.000000,30.923275,0,202
101,84365,84251,0,0,0.151456,-0.506913,-9.986144,0.443201,1.699736,-0.254027,10.602424,33.216640,-50.920784,972.000000,2290.000000,-3484.000000,88.744026,-5.228296,-145.433306,-0.181693,-0.238679,-0.657357,0.691304,1212.232910,87495.515625,-0.793308,1729.280151,29.125000,30.941813,0,202
101,86450,86299,0,0,0.129414,-0.514970,-9.988936,0.885271,2.017094,0.125450,10.431318,33.004955,-50.423855,944.000000,2253.000000,-3450.000000,89.592179,-6.057020,-145.520691,-0.174462,-0.244333,-0.660880,0.687824,1212.206909,87495.796875,-0.272685,1729.280151,29.125000,30.960350,0,202
101,88585,88494,0,0,0.125047,-0.492844,-9.983568,0.125813,1.792744,0.073379,10.553536,33.085052,-50.511543,964.000000,2267.000000,-3456.000000,90.367091,-6.317479,-145.566808,-0.170968,-0.246741,-0.665058,0.683802,1212.255005,87495.281250,0.225174,1729.280151,29.125000,30.974253,0,202
101,90667,90539,0,0,0.094220,-0.558506,-9.977611,-0.781632,2.398838,0.036517,10.431318,33.170868,-50.453083,944.000000,2282.000000,-3452.000000,90.550864,-6.420863,-145.429071,-0.170771,-0.248410,-0.665634,0.682686,1212.236328,87495.484375,0.606020,1729.280151,29.000000,30.997425,0,202
101,92748,92660,0,0,0.139433,-0.535427,-9.980378,0.890527,1.871519,0.300051,10.547426,33.045006,-51.183861,963.000000,2260.000000,-3502.000000,90.334941,-6.402888,-145.642487,-0.170072,-0.246747,-0.664846,0.684230,1212.257202,87495.257812,-0.400068,1729.280151,29.125000,31.015961,0,202
101,94832,94709,0,0,0.122025,-0.505075,-9.994109,-0.763645,2.437350,-0.480510,10.565758,32.970631,-50.876938,966.000000,2247.000000,-3481.000000,90.282629,-6.249454,-145.846723,-0.169886,-0.244598,-0.665299,0.684607,1212.168945,87496.195312,-0.345814,1729.280151,29.125000,31.034498,0,202
101,96919,96835,0,0,0.241220,-0.485426,-9.979355,0.000566,0.791412,-0.263309,10.290767,33.033562,-51.417713,921.000000,2258.000000,-3518.000000,90.216888,-6.257193,-146.429912,-0.166491,-0.241159,-0.666126,0.685856,1212.711548,87490.414062,0.225880,1729.280151,29.250000,31.053036,0,202
101,98975,98869,0,0,0.198435,-0.692459,-9.966730,1.700812,2.391250,-0.494418,10.749085,33.022121,-51.096172,996.000000,2256.000000,-3496.000000,89.920274,-6.928391,-146.477874,-0.162802,-0.244342,-0.663028,0.688611,1212.699707,87490.539062,0.417488,1729.280151,29.125000,31.080841,0,202
101,101032,100906,0,0,10.801176,-7.106156,-5.360362,-38.602481,-19.693643,22.477837,18.839930,26.048111,-4.852383,2320.000000,1037.000000,-332.000000,92.274954,-65.619116,-122.829177,0.064398,-0.619642,-0.352473,0.698326,1212.315552,87494.632812,0.412490,1729.280151,29.125000,31.085476,0,202
101,103090,102947,0,0,-8.740725,4.307707,0.762752,6.324134,-3.971620,4.084789,-0.996082,9.725842,-87.182114,-926.000000,-1816.000000,-5965.000000,8.505775,75.052441,-71.142212,-0.669583,0.305521,-0.528306,0.423329,1211.837402,87499.734375,0.399554,1729.280151,29.125000,31.108646,0,202
101,105206,105117,0,0,-5.743094,-7.860936,0.206746,3.653184,0.864793,-39.940573,22.805908,9.760168,-59.660919,2969.000000,-1810.000000,-4082.000000,172.202852,102.096964,148.298570,-0.734702,0.222175,-0.588917,0.253035,1212.084717,87497.093750,0.467878,1729.280151,29.250000,31.122549,0,202
101,107265,107154,0,0,-5.885602,-7.773710,0.201383,0.411311,3.060093,1.416296,24.309195,10.200692,-53.317745,3215.000000,-1733.000000,-3648.000000,161.315763,95.907098,111.431292,-0.544198,0.471859,-0.478125,0.502588,1212.078979,87497.156250,0.555287,1729.280151,29.250000,31.141087,0,202
101,109326,109192,0,0,-5.960243,-7.708618,0.153815,0.892335,0.485069,1.508086,24.303083,10.194970,-54.180061,3214.000000,-1734.000000,-3707.000000,1.737474,83.891163,-115.704347,-0.404304,0.559875,-0.365179,0.624277,1211.765625,87500.500000,-0.413154,1729.280151,29.250000,31.159624,0,202
101,111388,111233,0,0,-5.988327,-7.688963,0.129869,0.419346,0.584705,1.224183,24.223640,10.091990,-54.501606,3201.000000,-1752.000000,-3729.000000,1.385389,82.929944,-127.864666,-0.336460,0.590779,-0.299092,0.669566,1212.019653,87497.789062,0.287827,1729.280151,29.250000,31.168892,0,202
101,113449,113361,0,0,-5.999650,-7.694552,0.123273,-0.225724,0.274422,2.123840,24.248085,10.212132,-53.843903,3205.000000,-1731.000000,-3684.000000,0.262811,82.796311,-132.843833,-0.301441,0.605391,-0.266090,0.686900,1212.144653,87496.460938,0.137006,1729.280151,29.250000,31.187429,0,202
101,115514,115406,0,0,-6.021372,-7.673832,0.103235,0.681986,-0.257262,1.292627,24.296972,9.971848,-54.253143,3213.000000,-1773.000000,-3712.000000,179.621899,98.219001,45.201092,-0.288524,0.605300,-0.249267,0.698735,1212.111328,87496.812500,-0.085745,1729.280151,29.250000,31.205965,0,202
101,117580,117444,0,0,-6.025241,-7.680904,0.106097,0.018313,0.558545,1.822376,24.278639,9.966125,-54.004677,3210.000000,-1774.000000,-3695.000000,0.493594,81.050344,-136.964240,-0.281407,0.603288,-0.241378,0.706109,1211.926880,87498.781250,-1.432773,1729.280151,29.250000,31.219868,0,202
101,119646,119561,0,0,-5.908079,-7.744452,0.185709,-1.009898,0.258027,1.393145,24.162533,10.120596,-54.121601,3191.000000,-1747.000000,-3703.000000,1.557266,80.206618,-138.808063,-0.277237,0.599283,-0.236311,0.712851,1211.990234,87498.109375,0.104176,1729.280151,29.250000,31.238405,0,202
101,121778,121658,0,0,-5.973995,-7.701325,0.134484,-0.664097,-0.234835,1.038468,23.942539,10.057664,-53.887756,3155.000000,-1758.000000,-3687.000000,0.277757,79.442374,-137.684511,-0.279063,0.595299,-0.232395,0.716753,1211.908691,87498.976562,-1.228811,1729.280151,29.250000,31.252308,0,202
101,123845,123698,0,0,-6.075193,-7.629275,0.058239,0.959647,0.697424,1.800970,23.942539,10.029058,-54.004677,3155.000000,-1763.000000,-3695.000000,0.186384,78.152589,-137.645920,-0.281397,0.587329,-0.228893,0.723511,1212.670288,87490.851562,0.672732,1729.280151,29.250000,31.261576,0,202
101,125913,125827,0,0,-6.025089,-7.676333,0.087287,-0.266950,0.429223,1.597216,23.997538,10.183527,-54.370071,3164.000000,-1736.000000,-3720.000000,0.486973,77.322038,-138.106534,-0.281632,0.582234,-0.226431,0.728296,1211.719238,87500.992188,-1.277435,1729.280151,29.250000,31.289381,0,202
101,127982,127869,0,0,-6.037753,-7.664594,0.114550,0.994731,-0.094060,1.749569,24.199198,10.011896,-54.267757,3197.000000,-1766.000000,-3713.000000,0.084109,76.855331,-137.931258,-0.281607,0.579904,-0.223619,0.731028,1212.131104,87496.601562,1.071516,1729.280151,29.375000,31.289381,0,202
101,130053,129910,0,0,-6.042445,-7.675140,0.115045,-0.282927,2.873712,1.741327,24.180864,10.046222,-53.770828,3194.000000,-1760.000000,-3679.000000,0.480955,76.093731,-138.411939,-0.281988,0.574983,-0.221882,0.735286,1211.878784,87499.289062,0.379420,1729.280151,29.375000,31.312551,0,202
101,132125,132034,0,0,-6.006735,-7.667468,0.107170,-0.694402,-0.474907,1.055017,24.296972,10.034780,-54.925461,3218.000000,-1734.000000,-3712.000000,0.745632,75.214514,-138.799880,-0.282445,0.569400,-0.219531,0.740145,1211.886108,87499.210938,0.103860,1729.280151,29.375000,31.326452,0,202
101,134198,134077,0,0,-6.104740,-7.592169,0.110529,-0.856692,-0.012257,1.799070,24.144199,10.063385,-54.355453,3188.000000,-1757.000000,-3719.000000,0.666259,74.734591,-138.919559,-0.282153,0.566707,-0.217271,0.742984,1212.209717,87495.765625,0.639581,1729.280151,29.375000,31.335722,0,202
101,136274,136118,0,0,-6.062537,-7.640962,0.052947,-0.334475,2.893946,1.234576,23.948648,10.029058,-54.209297,3156.000000,-1763.000000,-3709.000000,0.427881,74.261362,-138.153253,-0.286820,0.562763,-0.218349,0.743878,1212.087524,87497.062500,0.242428,1729.280151,29.375000,31.354258,0,202
101,11588,11453,0,0,-6.088167,-7.953769,0.027622,-0.997922,0.296944,-0.580500,24.846952,10.486746,-52.557732,3303.000000,-1683.000000,-3596.000000,14.685511,-20.129904,-73.531180,0.768925,0.204554,-0.063535,-0.602391,1212.144653,87496.460938,0.122275,1729.280151,29.500000,31.377428,0,202
101,13665,13571,0,0,-6.245119,-7.813798,0.050141,0.394443,0.171249,-0.743762,24.804178,10.463861,-52.426189,3296.000000,-1687.000000,-3587.000000,8.064971,-27.285334,-111.028461,0.535193,0.232628,-0.076888,-0.808419,1212.030396,87497.671875,-0.104352,1729.280151,29.500000,31.409866,0,202
101,15745,15615,0,0,-6.270391,-7.830485,0.060416,-0.615316,-0.582529,-1.399801,24.657515,10.584004,-53.405441,3272.000000,-1666.000000,-3654.000000,3.282987,-29.142904,-128.694069,0.412326,0.238698,-0.083881,-0.875200,1212.046265,87497.507812,0.070089,1729.280151,29.500000,31.428402,0,202
101,17884,17797,0,0,-6.195531,-7.867397,0.151594,1.188490,-0.111000,0.132834,24.639183,10.812847,-52.645428,3236.000000,-1619.000000,-3617.000000,0.936769,-29.805880,-136.887810,0.353086,0.242089,-0.087141,-0.899516,1212.239746,87495.445312,0.846242,1729.280151,29.500000,31.446938,0,202
101,19965,19844,0,0,-6.863730,-7.368114,0.451680,24.545181,-6.787074,-25.053100,23.300892,9.279595,-58.550133,3050.000000,-1894.000000,-4006.000000,176.028264,-148.580465,31.730829,0.272034,0.251174,-0.106065,-0.922854,1211.920044,87498.851562,-0.170657,1729.280151,29.500000,31.474743,0,202
101,22047,21896,0,0,-6.236261,-7.809160,0.155476,-0.774443,0.723362,0.188309,24.584185,10.538235,-53.522362,3260.000000,-1674.000000,-3662.000000,0.266602,-33.017998,-141.407496,0.316205,0.268939,-0.091798,-0.905130,1212.024170,87497.742188,0.336870,1729.280151,29.625000,31.493279,0,202
101,24126,24039,0,0,-6.287148,-7.772670,0.169281,0.442103,-0.340644,-0.853526,24.724737,10.543957,-54.106987,3283.000000,-1673.000000,-3697.000000,179.949202,-145.526770,36.927066,0.302602,0.280932,-0.094246,-0.905885,1212.100464,87496.929688,0.176488,1729.280151,29.500000,31.497911,0,202
101,26212,26085,0,0,-6.244913,-7.812123,0.168066,0.987074,-0.050011,-0.586517,24.718624,10.538235,-54.983921,3282.000000,-1674.000000,-3762.000000,179.954721,-143.849808,35.995251,0.293846,0.294966,-0.096222,-0.904097,1212.279907,87495.015625,0.810937,1729.280151,29.500000,31.511814,0,202
101,28348,28258,0,0,-6.286543,-7.773568,0.183272,-0.008583,-0.046543,-0.114810,25.030283,10.595447,-54.793919,3333.000000,-1664.000000,-3749.000000,179.968832,-142.022855,35.447039,0.287943,0.309858,-0.099298,-0.900676,1212.014526,87497.843750,0.001996,1729.280151,29.625000,31.534985,0,202
101,30405,30298,0,0,-6.278912,-7.762237,0.194352,-0.129082,1.361215,-0.992916,25.091391,10.727032,-54.808533,3343.000000,-1641.000000,-3750.000000,0.105459,-39.804362,-144.755901,0.284357,0.324703,-0.102231,-0.896247,1212.023560,87497.750000,-0.634979,1729.280151,29.500000,31.553520,0,202
101,32465,32337,0,0,-6.238889,-7.813207,0.185240,-0.555753,0.161523,-0.500586,24.810287,10.789964,-54.779305,3297.000000,-1630.000000,-3748.000000,0.062999,-40.070503,-144.438188,0.286718,0.326390,-0.104130,-0.894661,1212.127075,87496.640625,0.240905,1729.280151,29.625000,31.567421,0,202
101,34584,34504,0,0,-6.249263,-7.793761,0.207976,-1.404838,-0.332766,-2.094996,25.048613,10.795685,-54.691612,3336.000000,-1629.000000,-3742.000000,0.104683,-41.582789,-144.520792,0.284541,0.338348,-0.107342,-0.890525,1212.142944,87496.476562,0.019988,1729.280151,29.625000,31.581324,0,202
101,36642,36539,0,0,-6.250028,-7.794719,0.195658,0.230314,0.313426,-0.528888,24.590296,10.835732,-55.100845,3261.000000,-1622.000000,-3770.000000,0.023885,-42.394861,-144.263103,0.286001,0.344201,-0.110760,-0.887390,1212.055298,87497.414062,-0.497757,1729.280151,29.625000,31.595224,0,202
101,38701,38575,0,0,-6.305248,-7.734655,0.154275,-0.851254,-0.787772,-1.617302,24.724737,10.669821,-54.910843,3283.000000,-1651.000000,-3757.000000,0.193862,-43.762316,-144.565380,0.281796,0.355483,-0.111920,-0.884136,1211.870850,87499.375000,-0.155245,1729.280151,29.625000,31.609127,0,202
101,40763,40613,0,0,-6.236650,-7.798603,0.215072,0.027733,0.100527,-1.594298,24.663628,9.994732,-54.560070,3273.000000,-1769.000000,-3733.000000,179.961210,-134.394326,35.243216,0.279194,0.369281,-0.117624,-0.878548,1212.071045,87497.242188,-0.481747,1729.280151,29.625000,31.618395,0,202
101,42825,42739,0,0,-6.099691,-7.943043,0.123639,0.702254,0.219825,-0.411712,24.547520,10.315114,-54.530842,3254.000000,-1713.000000,-3731.000000,0.027985,-48.047140,-144.989821,0.274641,0.388326,-0.122243,-0.871110,1212.305298,87494.742188,0.397795,1729.280151,29.625000,31.627663,0,202
101,44887,44776,0,0,-6.318076,-7.713967,0.201540,0.286230,-0.387286,-1.492394,24.003649,10.097713,-56.036247,3165.000000,-1751.000000,-3834.000000,0.035344,-49.085260,-144.786145,0.275034,0.395997,-0.125376,-0.867078,1212.204590,87495.820312,-0.171437,1729.280151,29.625000,31.646198,0,202
101,46951,46813,0,0,-6.306863,-7.683373,0.148066,-0.495171,0.430044,-1.085071,24.327526,10.103433,-55.480854,3208.000000,-1750.000000,-3796.000000,0.105538,-49.931483,-144.332784,0.277267,0.402051,-0.128468,-0.863119,1212.137329,87496.539062,-0.187270,1729.280151,29.625000,31.660099,0,202
101,49014,48930,0,0,-6.265690,-7.776244,0.167607,0.755903,-0.552522,-0.778835,24.064758,9.851706,-55.919319,3175.000000,-1794.000000,-3826.000000,179.861024,-128.437473,35.273289,0.273324,0.414162,-0.132817,-0.857976,1212.315552,87494.632812,0.170067,1729.280151,29.625000,31.664734,0,202
101,51139,51019,0,0,-6.281552,-7.752964,0.204362,-0.362011,0.169088,-1.175112,23.905874,10.320834,-56.372406,3149.000000,-1712.000000,-3857.000000,0.226049,-52.501366,-144.534097,0.272337,0.421822,-0.133031,-0.854518,1212.311523,87494.679688,0.212608,1729.280151,29.750000,31.683268,0,202
101,53204,53057,0,0,-6.304051,-7.737133,0.166140,0.993498,0.154803,-1.122020,23.746990,10.240739,-55.846245,3123.000000,-1726.000000,-3821.000000,179.921786,-125.997251,35.319233,0.270589,0.432432,-0.138309,-0.848914,1212.421265,87493.507812,0.137731,1729.280151,29.625000,31.687902,0,202
101,55271,55179,0,0,-6.312150,-7.755212,0.169393,-0.692197,-0.000344,-1.647985,23.918095,10.252182,-56.503944,3151.000000,-1724.000000,-3866.000000,0.201050,-55.108627,-144.627425,0.268572,0.441197,-0.139055,-0.844913,1212.239136,87495.453125,-0.169802,1729.280151,29.750000,31.711071,0,202
101,57340,57220,0,0,-6.341568,-7.729738,0.084873,-0.151176,2.923628,-2.633720,24.095312,10.154922,-55.773163,3180.000000,-1741.000000,-3816.000000,0.213813,-55.319147,-144.363630,0.270204,0.442455,-0.140476,-0.843499,1212.348877,87494.281250,0.152757,1729.280151,29.750000,31.715706,0,202
101,59412,59261,0,0,-6.249796,-7.776821,0.242169,-0.543039,-0.401272,-1.466831,24.431412,10.069107,-56.810875,3235.000000,-1756.000000,-3887.000000,179.954721,-124.331177,35.635737,0.270765,0.444415,-0.143206,-0.841828,1212.364136,87494.117188,-0.014525,1729.280151,29.750000,31.729607,0,202
101,61483,61392,0,0,-6.265091,-7.766340,0.117623,0.103755,-0.157773,-1.873773,24.400858,10.212132,-56.123943,3230.000000,-1731.000000,-3840.000000,0.090396,-56.776904,-144.568153,0.267347,0.453111,-0.144016,-0.838138,1212.229004,87495.554688,-0.758132,1729.280151,29.750000,31.752775,0,202
101,63555,63446,0,0,-6.259642,-7.761464,0.227247,1.171654,0.001599,-1.387590,24.516964,9.748725,-57.103188,3249.000000,-1812.000000,-3907.000000,179.915447,-122.476043,35.338880,0.266416,0.458276,-0.146664,-0.835162,1212.434937,87493.367188,0.401479,1729.280151,29.750000,31.743507,0,202
101,65631,65488,0,0,-6.305431,-7.729872,0.176059,0.495126,0.038778,-1.696780,24.180864,9.920358,-55.860859,3194.000000,-1782.000000,-3822.000000,0.050285,-59.362158,-144.809982,0.262418,0.472122,-0.149321,-0.828216,1212.430420,87493.406250,-0.273550,1729.280151,29.750000,31.771311,0,202
101,67761,67671,0,0,-6.308785,-7.738737,0.164496,0.368580,0.790285,-1.138385,23.997538,9.971848,-55.890091,3164.000000,-1773.000000,-3824.000000,0.089711,-60.250697,-144.641058,0.262297,0.478395,-0.151776,-0.824198,1212.527100,87492.375000,0.035321,1729.280151,29.750000,31.775946,0,202
101,69833,69711,0,0,-6.299100,-7.748597,0.162316,1.948388,3.570850,-2.794916,24.138088,10.069107,-56.197018,3187.000000,-1756.000000,-3845.000000,179.959188,-118.048181,34.815448,0.256678,0.491014,-0.154267,-0.818061,1212.528809,87492.359375,0.002209,1729.280151,29.875000,31.789846,0,202
101,71908,71752,0,0,-6.287098,-7.744085,0.178620,0.239209,0.148742,-0.877878,24.138088,10.069107,-55.714703,3192.000000,-1756.000000,-3812.000000,0.080271,-63.341037,-145.113885,0.254767,0.501069,-0.156814,-0.812055,1212.413940,87493.585938,0.038526,1729.280151,29.875000,31.803747,0,202
101,73984,73895,0,0,-6.293494,-7.734626,0.171506,-0.059975,2.782630,-2.105969,23.930317,9.989011,-56.197018,3153.000000,-1770.000000,-3845.000000,0.145044,-64.444720,-144.921834,0.254299,0.508741,-0.159664,-0.806859,1212.484741,87492.835938,-0.083207,1729.280151,29.750000,31.817648,0,202
101,76065,75939,0,0,-6.297309,-7.740273,0.174799,0.415841,-0.674347,-1.915009,24.339748,10.149201,-56.577026,3220.000000,-1742.000000,-3871.000000,0.070203,-65.640358,-144.919826,0.252950,0.516960,-0.162855,-0.801404,1212.355103,87494.210938,0.069325,1729.280151,29.875000,31.831551,0,202
101,78143,77985,0,0,-6.293774,-7.741344,0.166079,-1.553705,2.404201,-2.649643,24.125866,10.051943,-56.752415,3185.000000,-1759.000000,-3883.000000,0.365953,-67.227858,-144.860990,0.249700,0.528570,-0.164573,-0.794468,1212.362427,87494.132812,0.207597,1729.280151,29.750000,31.836184,0,202
101,80219,80130,0,0,-6.320203,-7.720456,0.171942,-0.224487,3.000020,-2.052456,24.327526,10.172086,-55.334698,3218.000000,-1738.000000,-3786.000000,0.129394,-68.249456,-145.154962,0.247257,0.535539,-0.167079,-0.790029,1212.425293,87493.460938,-0.105331,1729.280151,29.875000,31.845451,0,202
101,82301,82185,0,0,-6.296859,-7.746975,0.080029,-0.941448,0.238380,-0.509891,24.089201,10.114875,-55.729317,3179.000000,-1748.000000,-3813.000000,0.671520,-67.758639,-144.459908,0.250264,0.532325,-0.165495,-0.791587,1212.180298,87496.078125,-0.773060,1729.280151,29.875000,31.859352,0,202
101,84441,84358,0,0,-9.162381,-3.578527,1.123978,3.256148,-12.840295,-70.721274,15.674479,7.471732,-77.448112,1802.000000,-2210.000000,-5299.000000,171.403146,-111.590108,-5.828216,0.000153,0.563000,-0.033408,-0.825781,1212.490356,87492.773438,0.121247,1729.280151,29.875000,31.863985,0,202
101,86521,86401,0,0,-9.140252,3.302390,2.182685,0.370333,2.755875,-6.374097,2.047151,5.497956,-83.002052,-428.000000,-2555.000000,-5679.000000,105.170181,-109.949004,-44.292950,0.077799,0.609788,-0.288993,-0.733886,1212.423584,87493.484375,0.586560,1729.280151,29.750000,31.882521,0,202
101,88603,88447,0,0,-12.347885,6.719905,2.718170,42.772513,27.718619,33.339905,5.090384,10.515351,-86.378250,70.000000,-1678.000000,-5910.000000,45.336620,-104.151212,-70.223449,0.289083,0.612430,-0.459192,-0.574894,1212.328491,87494.492188,-0.307315,1729.280151,29.875000,31.896421,0,202
101,90685,90593,0,0,-0.164110,-4.711777,-8.160611,-2.260903,2.618415,5.235415,21.980938,26.116764,-26.205788,2834.000000,1049.000000,-1793.000000,88.057579,-32.687626,54.291753,0.703173,0.501158,-0.484332,0.140753,1213.058472,87486.710938,0.002925,1729.280151,29.875000,31.910322,0,202
101,92814,92683,0,0,-0.800740,-1.640462,-9.127684,-16.621540,-6.071785,-9.583930,15.136719,31.563242,-42.429115,1714.000000,2001.000000,-2903.000000,77.338942,-17.210929,21.747954,0.775750,0.584661,-0.231274,0.053818,1213.416016,87482.906250,0.587171,1729.280151,29.875000,31.910322,0,202
101,94877,94728,0,0,-0.069224,-1.747315,-9.580400,-1.708401,9.599197,-4.505421,15.607260,31.666224,-40.952938,1791.000000,2019.000000,-2802.000000,88.175140,-3.251159,18.135390,0.712126,0.683574,-0.129729,0.093665,1213.486816,87482.148438,0.451008,1729.280151,29.875000,31.924225,0,202
101,96931,96787,0,0,0.574926,-1.239991,-8.081864,-7.594767,-31.566897,-18.401805,16.994436,30.682196,-42.721428,2018.000000,1847.000000,-2923.000000,96.213945,1.850379,16.456723,0.659061,0.738177,-0.095852,0.107450,1213.077148,87486.515625,-0.100071,1729.280151,30.000000,31.947392,0,202
101,98992,98834,0,0,-0.532963,-0.662580,-9.985360,25.852807,20.714109,25.314607,16.829441,31.368725,-29.070446,1991.000000,1967.000000,-1989.000000,96.639602,2.907504,50.212214,0.593914,0.683247,-0.301515,0.299212,1213.147217,87485.765625,-0.675384,1729.280151,29.875000,31.956659,0,202
101,101103,101004,0,0,-0.692685,-3.278588,-8.933854,-27.268907,-3.869522,56.281749,17.911074,30.436186,-31.248173,2168.000000,1804.000000,-2138.000000,97.069651,10.412099,44.814930,0.583724,0.712824,-0.228923,0.314231,1213.156372,87485.671875,-0.378494,1729.280151,30.000000,31.970560,0,202
101,103163,103048,0,0,-1.553989,-1.966063,-9.406081,11.820252,-8.564753,4.921819,16.542229,31.443102,-28.602749,1944.000000,1980.000000,-1957.000000,101.866111,5.921791,64.545766,0.510741,0.672972,-0.386488,0.369972,1213.417725,87482.882812,0.466296,1729.280151,30.000000,31.975195,0,202
101,105237,105084,0,0,0.366201,-2.853425,-8.877179,-2.388117,-3.190155,8.862251,16.664446,30.201622,-16.237942,1964.000000,1763.000000,-1111.000000,91.073831,16.566340,75.465025,0.485267,0.620317,-0.352404,0.505504,1213.343018,87483.679688,-0.209816,1729.280151,30.000000,31.984461,0,202
101,107297,107205,0,0,0.906535,0.041603,-9.658917,-6.177710,1.698951,0.108257,13.150673,32.244053,-16.851797,1389.000000,2120.000000,-1153.000000,82.300808,3.338904,70.601056,0.603196,0.549495,-0.362192,0.450585,1213.400146,87483.070312,0.292979,1729.280151,30.000000,31.998362,0,202
101,109359,109265,0,0,0.285817,0.489733,-9.833558,1.674699,0.991906,0.323101,12.619024,33.176590,-22.259573,1299.000000,2283.000000,-1523.000000,83.847464,0.117654,66.142596,0.623121,0.560313,-0.363952,0.406581,1213.225342,87484.937500,-0.637671,1729.280151,30.000000,32.026165,0,202
101,111424,111316,0,0,0.311829,0.372749,-9.807621,1.391698,0.970171,0.472061,12.454029,33.096497,-22.201111,1275.000000,2269.000000,-1519.000000,83.461886,-0.400612,66.360615,0.625870,0.555672,-0.366466,0.406470,1213.473755,87482.289062,0.638173,1729.280151,30.000000,32.030796,0,202
101,113493,113364,0,0,0.405546,0.586290,-9.869443,1.769804,0.203858,-0.752736,12.026265,33.205196,-21.835720,1205.000000,2288.000000,-1494.000000,83.252971,-0.765744,66.209470,0.628564,0.553702,-0.366982,0.404531,1213.056152,87486.734375,-0.349346,1729.280151,30.000000,32.049332,0,202
101,115561,115431,0,0,0.931727,1.331098,-7.615656,25.273686,4.693308,4.372872,13.474551,32.347034,-20.461853,1442.000000,2138.000000,-1400.000000,83.328622,3.135636,65.492157,0.618254,0.569965,-0.342257,0.419240,1213.224731,87484.945312,0.365876,1729.280151,30.000000,32.067867,0,202
101,117685,117577,0,0,-3.506321,-5.325439,-10.165123,-25.228764,6.463921,28.941742,21.119299,26.768969,-24.378836,2693.000000,1163.000000,-1668.000000,109.755300,20.406715,66.397990,0.394469,0.729398,-0.355492,0.431276,1212.793579,87489.539062,0.015175,1729.280151,30.000000,32.081768,0,202
101,119751,119625,0,0,0.000941,-1.603778,-7.777808,14.456739,7.096106,-18.129202,17.794966,30.539169,-27.185036,2149.000000,1822.000000,-1860.000000,88.396902,8.577778,54.446279,0.611881,0.642715,-0.270344,0.373407,1213.406372,87483.000000,0.445282,1729.280151,30.000000,32.095669,0,202
101,121817,121699,0,0,-0.471609,-0.596065,-6.956088,25.052352,6.757552,4.547347,16.462788,31.437380,-24.685764,1931.000000,1979.000000,-1689.000000,87.710462,6.398447,62.676398,0.594825,0.611769,-0.325404,0.407473,1213.215210,87485.039062,-0.911324,1729.280151,30.000000,32.104935,0,202
101,123886,123743,0,0,-5.495863,-1.102991,-9.813626,-2.512465,-4.920030,-70.337971,10.681867,29.967060,-62.116344,985.000000,1722.000000,-4250.000000,90.864732,5.341336,-13.372451,0.700086,0.703001,0.115334,-0.048648,1213.725586,87479.601562,0.020712,1729.280151,30.000000,32.114201,0,202
101,125956,125802,0,0,-1.462786,1.951630,-9.113725,19.323440,-13.246125,-46.858240,-6.233132,31.397331,-43.978371,-1783.000000,1972.000000,-3009.000000,92.311748,-8.260715,-126.150083,0.266539,0.370224,0.618784,-0.639529,1213.919067,87477.539062,0.171357,1729.280151,30.125000,32.123470,0,202
101,128025,127883,0,0,-2.138209,0.091614,-9.643284,-9.360906,-1.690780,6.875287,-5.200388,31.511753,-47.983047,-1614.000000,1992.000000,-3283.000000,84.721400,-0.541633,-123.165181,0.348840,0.323722,0.590937,-0.651389,1213.785034,87478.968750,0.088816,1729.280151,30.125000,32.146637,0,202
101,130099,129968,0,0,-2.258676,0.604906,-9.673783,1.183321,2.722955,4.144800,-5.114836,31.511753,-47.281498,-1600.000000,1992.000000,-3235.000000,85.263697,2.696417,-120.291407,0.379958,0.322043,0.595860,-0.629977,1213.829102,87478.500000,0.274291,1729.280151,30.125000,32.160538,0,202
101,132172,132029,0,0,-1.450406,-1.105966,-9.436440,6.673862,-4.252097,10.939582,-1.649950,33.508411,-43.905293,-1033.000000,2341.000000,-3004.000000,84.284678,-6.890465,-121.077001,0.328922,0.368212,0.561237,-0.664262,1213.872070,87478.039062,0.484083,1729.280151,30.125000,32.174438,0,202
101,134304,134188,0,0,0.099791,-1.568118,-10.420985,2.485095,-5.074203,-15.801325,-2.866020,33.485531,-34.872845,-1232.000000,2337.000000,-2386.000000,91.597242,-7.600771,-130.423077,0.248526,0.341863,0.630035,-0.651476,1213.825684,87478.531250,-0.651704,1729.280151,30.000000,32.188339,0,202
101,136379,136257,0,0,0.367584,-0.723709,-9.692228,-4.848041,13.205282,8.721615,-3.495445,33.004955,-35.282082,-1335.000000,2253.000000,-2414.000000,92.106774,-6.848868,-127.939866,0.265364,0.352645,0.627607,-0.641352,1213.835938,87478.421875,-0.404383,1729.280151,30.000000,32.211506,0,202
101,138455,138305,0,0,0.341598,-1.234812,-9.837221,2.879042,2.870790,3.555208,-2.236597,33.491249,-36.378254,-1129.000000,2338.000000,-2489.000000,92.356459,-9.315253,-118.426177,0.302911,0.416378,0.588996,-0.622863,1214.414307,87472.257812,0.595591,1729.280151,30.000000,32.216141,0,202
101,140532,140385,0,0,-0.472890,-1.264599,-10.031949,0.310529,2.588415,1.681604,-2.218264,33.256683,-38.994446,-1126.000000,2297.000000,-2668.000000,90.012024,-7.942254,-118.966951,0.315969,0.400417,0.582898,-0.632503,1214.442017,87471.960938,0.486440,1729.280151,30.125000,32.220772,0,202
101,142609,142460,0,0,0.388909,-1.373916,-9.636695,-5.273554,-0.582737,-9.576293,-2.279373,33.531300,-38.117512,-1157.000000,2350.000000,-2582.000000,92.129041,-8.718586,-117.753964,0.310739,0.416286,0.587423,-0.620549,1214.060547,87476.031250,0.001396,1729.280151,30.125000,32.239307,0,202
101,144688,144537,0,0,-0.449081,-1.164486,-10.194025,-10.767053,0.681188,0.496504,-3.012682,33.107941,-40.105232,-1256.000000,2271.000000,-2744.000000,90.082238,-5.446029,-121.478767,0.315656,0.374765,0.600221,-0.632177,1213.946777,87477.242188,-0.142929,1729.280151,30.000000,32.257839,0,202
101,146769,146616,0,0,-0.772045,-0.205118,-9.936358,2.706012,3.396282,4.346636,-3.409892,32.873371,-42.546040,-1321.000000,2230.000000,-2911.000000,91.267447,-3.572964,-113.973468,0.362098,0.407583,0.587294,-0.598204,1214.098511,87475.625000,-0.095975,1729.280151,30.125000,32.262474,0,202
101,148848,148692,0,0,-0.201892,-0.312418,-9.814750,-0.072394,2.177638,-0.484386,-3.532109,32.827602,-41.596024,-1341.000000,2222.000000,-2846.000000,92.729264,-3.764466,-113.857157,0.356435,0.413717,0.593797,-0.590930,1214.092285,87475.687500,-0.133806,1729.280151,30.125000,32.267105,0,202
101,150985,150836,0,0,1.015351,-0.822505,-9.729666,24.015082,-13.438340,124.715416,-0.048891,32.821880,-50.409241,-771.000000,2221.000000,-3449.000000,90.967342,-6.382726,-92.562327,0.455112,0.520249,0.487576,-0.533372,1214.248413,87474.031250,0.209783,1729.280151,30.125000,32.294907,0,202
101,153065,152946,0,0,-1.422800,-0.331972,-9.253305,-1.201638,11.885273,-12.890817,-3.489333,32.306984,-48.406898,-1334.000000,2131.000000,-3312.000000,88.981519,-1.857558,-105.154164,0.424428,0.434995,0.549451,-0.573362,1214.065674,87475.976562,0.807700,1729.280151,30.250000,32.313442,0,202
101,155150,155000,0,0,-1.657373,0.689880,-9.522635,-3.505334,-2.192037,15.636866,-4.577076,31.620453,-52.586960,-1512.000000,2011.000000,-3598.000000,84.770366,3.050507,-106.205070,0.457655,0.388860,0.550707,-0.579709,1213.734009,87479.507812,0.019081,1729.280151,30.250000,32.345875,0,202
101,157280,157132,0,0,-1.551524,-2.084244,-9.818322,-2.028190,-4.155870,-21.863307,2.041040,32.301262,-59.178604,-429.000000,2130.000000,-4049.000000,85.648291,-7.447550,-77.932868,0.541297,0.557356,0.389532,-0.494589,1213.992065,87476.757812,0.435260,1729.280151,30.250000,32.369041,0,202
101,159335,159185,0,0,-4.634272,-2.625477,-11.469680,-24.375332,41.572882,-17.178097,2.835458,34.898636,-33.893597,-299.000000,2584.000000,-2319.000000,69.169940,-10.301355,173.134176,-0.099967,0.039926,0.568747,-0.815439,1213.500977,87481.992188,0.242297,1729.280151,30.250000,32.392208,0,202
101,161391,161240,0,0,-4.746075,-1.920830,-8.993061,6.004752,8.929443,-6.390963,6.288122,35.178974,-34.025139,266.000000,2633.000000,-2328.000000,67.367576,6.790732,171.566115,-0.028322,-0.089859,0.548513,-0.830818,1213.236694,87484.812500,-1.134212,1729.280151,30.250000,32.415375,0,202
101,163474,163329,0,0,-8.548628,-4.703243,-3.758528,-8.293645,-8.302545,32.971939,7.571413,30.247389,-62.715576,476.000000,1771.000000,-4291.000000,83.111941,53.566319,-168.485973,0.364419,-0.276096,0.623023,-0.634675,1213.021606,87487.109375,-0.245137,1729.280151,30.375000,32.401474,0,202
101,165538,165418,0,0,-8.917190,-4.377863,1.206491,-11.410987,3.674046,107.247432,9.215247,12.334659,-77.038879,745.000000,-1360.000000,-5271.000000,24.909416,156.066476,-86.898127,0.292080,-0.624468,0.724248,0.013932,1212.403809,87493.695312,-0.401546,1729.280151,30.375000,32.447807,0,202
101,167655,167516,0,0,-6.365152,-7.472901,0.801188,1.039084,0.646046,3.287272,13.608993,12.574944,-73.399590,1464.000000,-1318.000000,-5022.000000,17.182787,173.382563,-101.021107,0.151388,-0.756327,0.634406,0.050800,1212.369263,87494.062500,-0.488250,1729.280151,30.375000,32.447807,0,202
101,169714,169574,0,0,-6.384350,-7.473313,0.818514,0.395908,0.784944,3.994213,13.364555,12.780902,-73.954979,1424.000000,-1282.000000,-5060.000000,11.195843,178.799941,-116.490338,0.088425,-0.845669,0.524616,0.042473,1212.602417,87491.578125,-0.674642,1729.280151,30.250000,32.484875,0,202
101,171775,171653,0,0,-6.246669,-7.366543,0.705931,0.495888,0.080281,-3.551861,13.272892,12.637877,-74.481148,1409.000000,-1307.000000,-5096.000000,7.584788,-178.994820,-131.089321,0.056582,-0.908496,0.412534,0.035348,1212.537354,87492.273438,0.349293,1729.280151,30.250000,32.503407,0,202
101,173838,173686,0,0,-6.360995,-7.454309,0.807285,-0.022650,-0.385654,-3.571440,13.175117,12.695087,-73.779594,1393.000000,-1297.000000,-5048.000000,5.862427,-178.818246,-140.553217,0.044659,-0.940229,0.336524,0.026952,1212.205200,87495.812500,-0.808134,1729.280151,30.375000,32.531208,0,202
101,175900,175742,0,0,-6.486507,-7.544921,0.830720,-0.860372,-0.380930,-1.694112,13.682322,13.009747,-73.414207,1476.000000,-1242.000000,-5023.000000,4.556303,-178.739876,-144.601621,0.034526,-0.951989,0.303345,0.022552,1212.213623,87495.718750,-0.080700,1729.280151,30.375000,32.540474,0,202
101,177965,177845,0,0,-6.601852,-7.448771,0.724940,0.227393,1.163998,-8.824952,12.942903,12.992583,-74.539604,1355.000000,-1245.000000,-5100.000000,3.862105,179.983435,-148.339442,0.032458,-0.961527,0.272639,0.009053,1211.970337,87498.312500,0.036767,1729.280151,30.500000,32.568272,0,202
101,180029,179890,0,0,-0.677800,-1.918374,-3.617753,-81.008482,4.970062,81.980746,20.019335,21.351095,-60.304005,2513.000000,216.000000,-4126.000000,152.661818,-16.399284,58.072140,-0.271764,-0.824508,0.496260,0.007640,1212.793091,87489.546875,1.376437,1729.280151,30.375000,32.586807,0,202
101,182097,181952,0,0,5.813600,2.030326,-9.776729,24.754620,29.086275,83.257438,14.446187,31.975161,-16.311020,1601.000000,2073.000000,-1116.000000,90.243232,-21.594567,52.765489,-0.679910,-0.564825,0.427722,-0.189075,1213.189697,87485.312500,-0.114769,1729.280151,30.375000,32.614605,0,202
101,184217,184132,0,0,4.586241,0.166642,-8.901749,-7.508471,-0.960865,5.880153,7.614190,29.263365,3.420053,483.000000,1599.000000,234.000000,77.237275,6.865158,121.240475,-0.350061,-0.346412,0.519936,-0.697942,1213.592041,87481.023438,-0.508434,1729.280151,30.500000,32.633137,0,202
101,186283,186171,0,0,2.255242,-0.742165,-9.145235,18.086365,-16.639558,54.827752,-4.149312,31.975161,-16.150248,-1442.000000,2073.000000,-1105.000000,56.625967,2.016534,-162.487455,0.142248,0.056879,0.471045,-0.868704,1213.620850,87480.718750,-0.488639,1729.280151,30.500000,32.637772,0,202
101,188351,188236,0,0,6.100012,3.770520,-2.322376,12.131355,72.989430,-3.429959,-11.708507,24.108662,-14.571762,-2679.000000,698.000000,-997.000000,137.218965,8.904796,-104.101092,0.280615,0.548550,0.749431,-0.242284,1213.530884,87481.679688,0.073323,1729.280151,30.500000,32.670204,0,202
101,190424,190255,0,0,6.154138,1.410088,1.696829,15.036501,-6.630270,-17.100774,-7.528646,13.261476,3.303128,-1995.000000,-1198.000000,226.000000,8.865633,163.475100,58.493972,0.087643,0.491749,0.855456,0.136739,1212.817993,87489.273438,0.561355,1729.280151,30.375000,32.688736,0,202
101,192496,192343,0,0,-6.626587,-7.173244,0.090851,0.617604,3.849891,47.549366,22.500364,15.132272,-51.066940,2919.000000,-871.000000,-3494.000000,34.685254,-173.325763,-87.986087,0.166716,-0.674354,0.673503,0.252680,1212.690063,87490.640625,0.221071,1729.280151,30.500000,32.702637,0,202
101,194567,194423,0,0,-6.462776,-7.411798,0.099259,0.146634,0.808915,-2.944433,21.815943,15.395442,-50.482315,2807.000000,-825.000000,-3454.000000,17.704436,-161.638134,-117.176772,0.047486,-0.845273,0.487423,0.213723,1212.617676,87491.414062,-0.474114,1729.280151,30.500000,32.716534,0,202
101,196638,196493,0,0,-7.370622,-7.071863,0.125938,16.728754,-10.478646,-18.396833,21.553173,14.960639,-51.841568,2764.000000,-901.000000,-3547.000000,9.964351,-160.344701,-134.291177,0.012812,-0.910299,0.367586,0.189926,1212.903442,87488.367188,0.033352,1729.280151,30.500000,32.735065,0,202
101,198710,198624,0,0,-4.608141,-7.056581,5.040651,4.618027,0.061772,1.744009,22.995348,7.917976,-38.029816,3009.000000,-2146.000000,-2609.000000,32.413858,-170.623999,-126.137871,0.212461,-0.863589,0.413127,0.195961,1212.948608,87487.882812,0.646865,1729.280151,30.500000,32.758232,0,202
101,200841,200715,0,0,-4.682471,-6.715855,5.516232,-2.338724,-5.234824,-6.006570,23.117567,7.248610,-37.722889,3020.000000,-2242.000000,-2522.000000,33.951183,-168.945672,-138.650859,0.239368,-0.900604,0.309797,0.188790,1212.566162,87491.960938,-0.585077,1729.280151,30.625000,32.772133,0,202
101,202915,202780,0,0,-4.783478,-6.645809,5.588803,0.813196,1.310222,-2.220708,22.836464,7.946581,-38.979832,2974.000000,-2127.000000,-2667.000000,34.492066,-169.728985,-148.874177,0.261524,-0.923452,0.229641,0.161577,1212.872314,87488.695312,-0.340803,1729.280151,30.625000,32.753601,0,202
101,204994,204841,0,0,-4.311185,-6.748786,5.912604,-3.298033,1.607213,-4.807978,22.720356,6.630732,-37.503654,2955.000000,-2357.000000,-2566.000000,35.908828,-177.116709,-147.226121,0.288893,-0.914558,0.260859,0.109901,1212.900024,87488.406250,-0.293471,1729.280151,30.500000,32.786030,0,202
101,207068,206933,0,0,-4.266370,-6.258603,6.380200,3.602598,2.173595,10.476694,22.384258,5.658145,-35.311310,2900.000000,-2527.000000,-2416.000000,39.366263,178.857874,-148.450569,0.326668,-0.905151,0.259189,0.082531,1212.811157,87489.351562,0.055363,1729.280151,30.500000,32.790665,0,202
101,209149,208995,0,0,-4.211286,-6.161379,6.437136,0.596992,2.283340,0.696226,22.207041,5.194736,-35.764397,2871.000000,-2608.000000,-2447.000000,39.406377,177.595410,-141.724376,0.324921,-0.886906,0.315262,0.091845,1212.991699,87487.429688,0.431221,1729.280151,30.500000,32.799931,0,202
101,211228,211088,0,0,-3.858223,-6.603976,6.442016,1.195336,3.339966,-3.597167,22.182598,5.686750,-33.762058,2867.000000,-2522.000000,-2310.000000,39.355267,-179.963040,-137.461437,0.313682,-0.877505,0.341467,0.122432,1213.047729,87486.828125,0.378157,1729.280151,30.500000,32.804562,0,202
101,213312,213156,0,0,-4.811128,-6.072193,6.074064,-6.808291,8.296985,3.032529,22.909796,7.717739,-38.453667,2986.000000,-2167.000000,-2631.000000,36.137991,179.233098,-147.987359,0.299886,-0.913234,0.264135,0.079408,1212.911865,87488.273438,-0.502075,1729.280151,30.500000,32.813828,0,202
101,215390,215262,0,0,-4.053677,-5.477778,7.137272,2.102041,1.116631,6.285469,21.528728,3.856002,-35.647472,2760.000000,-2842.000000,-2439.000000,44.858627,173.025863,-138.047754,0.375726,-0.853189,0.351955,0.083836,1213.215210,87485.039062,0.346284,1729.280151,30.500000,32.818462,0,202
101,217531,217438,0,0,-4.119492,-5.593380,7.172146,-10.155768,0.966832,2.277217,21.657059,3.999029,-34.215141,2781.000000,-2817.000000,-2341.000000,43.793971,176.803640,-134.930756,0.354248,-0.852693,0.365062,0.118968,1213.176147,87485.460938,0.113958,1729.280151,30.500000,32.827728,0,202
101,219618,219487,0,0,-2.640100,-3.060373,8.082073,62.554520,-33.810280,31.060186,15.497264,-0.640774,-27.828121,1773.000000,-3628.000000,-1904.000000,63.355646,169.771401,-135.089339,0.512370,-0.765477,0.367025,0.129677,1213.610718,87480.828125,0.652878,1729.280151,30.500000,32.832363,0,202
101,221754,221671,0,0,0.249647,-0.798430,10.007370,-1.698581,1.353262,5.581525,8.769151,-1.304422,-15.083308,672.000000,-3744.000000,-1032.000000,85.852315,174.682593,-119.891827,0.605866,-0.617282,0.393664,0.311318,1213.552979,87481.437500,0.495708,1729.280151,30.500000,32.823093,0,202
101,223811,223706,0,0,0.300338,-0.583918,10.097141,5.118138,-0.186880,4.446427,8.231392,-1.476055,-14.849459,584.000000,-3774.000000,-1016.000000,85.865812,178.978113,-110.939389,0.564822,-0.599699,0.420002,0.380706,1213.384888,87483.234375,0.239838,1729.280151,30.625000,32.836994,0,202
101,225867,225760,0,0,-0.267975,-0.885317,10.081922,0.546766,0.628630,-4.070747,8.653044,-1.727783,-17.377958,653.000000,-3818.000000,-1189.000000,82.714861,-179.905393,-113.199444,0.551287,-0.626937,0.412740,0.364253,1213.434204,87482.710938,0.327301,1729.280151,30.625000,32.841629,0,202
101,227927,227803,0,0,-0.229380,-0.777432,10.230294,-3.431300,1.691536,-5.799768,8.371943,-1.664851,-17.451038,614.000000,-3808.000000,-1194.000000,83.201977,-179.111657,-114.720199,0.555945,-0.632451,0.398978,0.362972,1213.207275,87485.125000,-0.080192,1729.280151,30.625000,32.846260,0,202
101,230010,229921,0,0,-8.936826,-0.653621,5.426966,-4.712402,22.071210,-36.519987,11.470174,1.258627,-56.810875,1114.000000,-3296.000000,-3887.000000,25.010911,177.628440,-108.551923,0.187548,-0.789792,0.573546,0.110001,1213.311401,87484.015625,0.124846,1729.280151,30.625000,32.850895,0,202
101,232073,231925,0,0,-8.616020,1.920255,4.333151,18.495001,2.385469,-25.031967,5.634254,2.408566,-66.384102,159.000000,-3095.000000,-4542.000000,20.814520,171.607588,-102.475118,0.185538,-0.756589,0.624450,0.056680,1213.244629,87484.726562,-0.382514,1729.280151,30.625000,32.860161,0,202
101,234190,234050,0,0,-9.213614,5.056984,0.304022,-85.524364,53.832061,-2.856359,2.254921,17.701040,-82.622040,-394.000000,-422.000000,-5653.000000,146.748732,-22.909996,76.086975,-0.338113,-0.704571,0.623485,-0.022944,1213.423950,87482.820312,-0.574863,1729.280151,30.625000,32.860161,0,202
101,236251,236137,0,0,-9.833677,7.446272,-3.060726,15.807696,15.778522,32.759664,-6.263686,24.097219,-67.246422,-1788.000000,696.000000,-4601.000000,6.538701,-27.709970,-28.853233,-0.935358,-0.113188,0.217742,0.254723,1213.463013,87482.406250,0.083411,1729.280151,30.625000,32.883324,0,202
101,238315,238198,0,0,8.380359,6.274400,-6.062263,-19.722960,-7.841305,-30.753302,-5.915365,29.515093,-12.598655,-1731.000000,1643.000000,-862.000000,107.938743,-150.093940,-89.565302,0.442648,-0.548430,0.256380,0.661482,1213.527466,87481.710938,-0.116943,1729.280151,30.625000,32.897224,0,202
101,240380,240228,0,0,1.629140,-0.266194,-9.383822,-12.433051,-8.862411,-1.186284,-1.784390,33.662884,-19.190294,-1055.000000,2368.000000,-1313.000000,21.168517,-40.361408,88.292865,0.706187,-0.112479,-0.363414,0.597144,1214.073608,87475.890625,-0.352986,1729.280151,30.625000,32.906490,0,202
101,242446,242309,0,0,-0.513221,1.247541,-10.242521,11.475023,2.990171,-12.274644,-4.784846,32.867649,-39.023678,-1546.000000,2229.000000,-2670.000000,74.048683,-21.149011,128.359690,0.441299,0.125926,-0.596647,0.658340,1214.212280,87474.414062,0.047177,1729.280151,30.625000,32.911121,0,202
101,244516,244372,0,0,-0.026168,-0.133750,-9.961559,2.793257,0.978338,-3.811973,-11.635177,37.598995,-62.481731,-2667.000000,3056.000000,-4275.000000,80.377851,-8.975465,128.709423,0.375129,0.224548,-0.605827,0.664703,1213.875488,87478.000000,0.894758,1729.280151,30.625000,32.915756,0,202
101,246603,246485,0,0,-0.247122,0.008706,-10.677670,0.907018,1.139190,-2.821244,-6.618119,29.057405,-43.130665,-1846.000000,1567.000000,-3007.000000,84.648228,-5.069533,123.078902,0.378174,0.291814,-0.606953,0.635168,1213.508301,87481.914062,-0.453474,1729.280151,30.625000,32.938919,0,202
101,248674,248549,0,0,-0.208640,-0.079601,-9.892121,-0.020962,1.887403,-0.057959,-3.886542,28.662647,-40.309853,-1399.000000,1494.000000,-2758.000000,85.765060,-2.855263,126.354019,0.345671,0.290678,-0.615328,0.646057,1213.580688,87481.148438,0.467682,1729.280151,30.625000,32.952820,0,202
101,250801,250678,0,0,-0.159473,-0.053960,-9.894079,0.982695,1.917896,0.445825,-3.874321,28.405199,-40.061386,-1397.000000,1449.000000,-2741.000000,86.489681,-2.102821,125.627806,0.343935,0.301075,-0.615435,0.642108,1213.361206,87483.484375,-0.113360,1729.280151,30.750000,32.989883,0,202
101,252893,252748,0,0,-0.158593,-0.068676,-9.896028,0.558220,1.750450,0.038814,-3.403781,28.422363,-40.339081,-1320.000000,1452.000000,-2760.000000,86.883394,-1.670932,125.208665,0.342957,0.306961,-0.615307,0.639964,1213.369629,87483.398438,0.025957,1729.280151,30.750000,32.994514,0,202
101,254964,254821,0,0,-0.230762,-0.080805,-9.904978,-0.007472,2.286435,-0.286932,-3.715438,28.410921,-41.142941,-1348.000000,1450.000000,-2815.000000,87.001242,-1.657189,125.309710,0.342005,0.306848,-0.616196,0.639672,1213.446045,87482.578125,-0.407276,1729.280151,30.875000,33.031578,0,202
101,257036,256953,0,0,-0.176734,-0.103638,-9.887896,0.718601,1.453477,-0.843944,-3.697104,28.319386,-41.055248,-1368.000000,1434.000000,-2809.000000,86.813105,-1.308957,125.159173,0.341509,0.309066,-0.613750,0.641219,1213.442627,87482.617188,0.531708,1729.280151,30.750000,33.045479,0,202
101,259113,258958,0,0,-0.215276,-0.048080,-9.890676,-0.438684,1.975887,-0.599549,-4.002650,28.393759,-40.309853,-1418.000000,1447.000000,-2758.000000,86.986625,-1.629069,125.002270,0.343610,0.308616,-0.615209,0.638911,1213.198730,87485.218750,0.620103,1729.280151,30.875000,33.064011,0,202
101,261185,261086,0,0,-0.203994,-0.077303,-9.892176,-0.021082,1.846270,0.117179,-3.794879,28.342270,-39.637531,-1384.000000,1438.000000,-2712.000000,86.932681,-1.536077,124.869081,0.344007,0.309694,-0.614284,0.639066,1213.136475,87485.882812,0.023442,1729.280151,30.875000,33.091805,0,202
101,263263,263152,0,0,-0.189946,-0.036202,-9.904777,-0.589885,1.413878,4.811090,-3.923208,28.559669,-39.842152,-1405.000000,1476.000000,-2726.000000,87.359800,-1.730840,124.874586,0.343852,0.309847,-0.617230,0.636230,1213.481689,87482.203125,0.689502,1729.280151,30.875000,33.096439,0,202
101,265345,265255,0,0,-0.210959,-0.105646,-9.892679,-0.554304,1.448630,-0.492113,-3.568776,28.576834,-40.222157,-1347.000000,1479.000000,-2752.000000,87.250578,-1.699990,124.455185,0.346313,0.311948,-0.615398,0.635643,1213.244629,87484.726562,0.188132,1729.280151,30.875000,33.114971,0,202
101,267481,267373,0,0,-0.195517,-0.066568,-9.884439,0.335781,2.349137,-0.373817,-3.831545,28.502459,-40.339081,-1390.000000,1466.000000,-2760.000000,87.204037,-1.587498,123.858241,0.349155,0.315639,-0.613182,0.634407,1213.296021,87484.179688,0.172311,1729.280151,31.000000,33.128868,0,202
101,269559,269438,0,0,-0.115690,0.041178,-9.889002,-0.667518,2.338566,-5.960762,-3.978206,28.336548,-39.228294,-1414.000000,1437.000000,-2684.000000,86.978033,-1.352895,121.992766,0.358854,0.326177,-0.606017,0.630537,1213.204468,87485.156250,-0.499144,1729.280151,30.875000,33.152031,0,202
101,271638,271483,0,0,-0.195031,-0.069499,-9.886111,0.852231,2.121997,0.523265,-3.947652,28.502459,-39.184448,-1409.000000,1466.000000,-2681.000000,86.722393,-1.220143,121.481854,0.361706,0.328807,-0.602748,0.630674,1213.400757,87483.062500,-0.395271,1729.280151,30.875000,33.165932,0,202
101,273715,273627,0,0,-0.169705,-0.054566,-9.898573,-0.146800,2.161234,-0.176298,-3.642107,28.410921,-39.915230,-1359.000000,1450.000000,-2731.000000,86.953813,-1.534233,121.282863,0.363765,0.328841,-0.604403,0.627883,1213.507202,87481.929688,-0.218169,1729.280151,31.000000,33.179829,0,202
101,275798,275668,0,0,-0.179964,-0.036425,-9.889544,1.078074,1.816825,-0.550377,-3.996539,28.536785,-38.833675,-1417.000000,1472.000000,-2657.000000,86.763258,-1.300177,121.349143,0.362734,0.329189,-0.602836,0.629801,1213.286499,87484.281250,0.173434,1729.280151,31.000000,33.207626,0,202
101,277880,277792,0,0,-0.202023,-0.032973,-9.900443,0.540147,1.969033,0.074028,-4.069870,28.433807,-39.520611,-1429.000000,1454.000000,-2704.000000,86.746326,-0.975256,121.109513,0.362413,0.332200,-0.601057,0.630105,1213.187988,87485.335938,-0.788280,1729.280151,31.000000,33.226158,0,202
101,279965,279852,0,0,-0.236995,-0.066675,-9.899151,-0.038479,2.161057,0.514801,-3.800990,28.410921,-40.719090,-1385.000000,1450.000000,-2786.000000,86.729182,-1.557302,123.738535,0.350967,0.314997,-0.610131,0.636664,1213.260986,87484.554688,-0.302421,1729.280151,31.000000,33.244690,0,202
101,282051,281931,0,0,-0.208414,-0.074179,-9.896034,0.065043,2.214793,0.003053,-3.513777,28.433807,-40.704475,-1354.000000,1454.000000,-2785.000000,87.016002,-1.828674,123.766921,0.351446,0.314197,-0.612589,0.634430,1213.270020,87484.460938,-0.348925,1729.280151,31.000000,33.253952,0,202
101,284194,284049,0,0,-0.200402,-0.101417,-9.885013,-0.399316,2.007365,0.460950,-3.880432,28.227848,-40.572933,-1398.000000,1418.000000,-2776.000000,86.735992,-1.687277,123.410658,0.353448,0.316031,-0.609646,0.635241,1213.472656,87482.296875,0.203958,1729.280151,31.000000,33.267853,0,202
101,286328,286181,0,0,-0.185061,-0.085729,-9.890092,0.782340,1.300998,-0.399070,-3.611552,28.290777,-40.792168,-1354.000000,1429.000000,-2791.000000,87.299892,-1.674903,123.284477,0.352520,0.318511,-0.612378,0.631882,1213.468140,87482.351562,-0.020953,1729.280151,31.000000,33.272484,0,202
101,288386,288241,0,0,-0.279308,-0.041362,-9.873520,0.074770,1.785185,-1.460871,-3.972095,28.273615,-40.821396,-1413.000000,1426.000000,-2793.000000,87.375960,-1.500594,123.937321,0.347785,0.316226,-0.614099,0.633979,1213.490112,87482.109375,-0.066279,1729.280151,31.000000,33.281750,0,202
101,290443,290303,0,0,-0.219831,-0.088242,-9.887697,-0.108315,1.800121,0.283093,-4.082092,28.273615,-40.923706,-1431.000000,1426.000000,-2800.000000,87.080083,-1.560437,123.322344,0.352320,0.318274,-0.610935,0.633508,1213.323242,87483.890625,0.167130,1729.280151,31.000000,33.304913,0,202
101,292501,292413,0,0,-0.199206,-0.072321,-9.891739,-1.056587,1.099973,-0.542337,-3.892653,28.302221,-40.441391,-1400.000000,1431.000000,-2767.000000,87.244130,-1.419534,123.483728,0.350231,0.318705,-0.611878,0.633539,1213.589722,87481.046875,0.326870,1729.280151,31.000000,33.323444,0,202
101,294560,294481,0,0,-0.198697,-0.069318,-9.892513,1.065957,2.436409,0.053395,-3.599330,28.216404,-41.391407,-1352.000000,1416.000000,-2832.000000,87.065350,-1.723690,123.395208,0.352815,0.316924,-0.611533,0.633332,1213.407593,87482.992188,-0.206481,1729.280151,31.125000,33.337341,0,202
101,296642,296485,0,0,-0.214136,-0.080287,-9.893271,1.165439,1.503080,-0.251061,-3.361004,28.290777,-41.376789,-1313.000000,1429.000000,-2831.000000,86.776167,-1.270551,123.107384,0.352837,0.320107,-0.607799,0.635310,1213.345337,87483.656250,-0.061874,1729.280151,31.000000,33.365139,0,202
101,298704,298619,0,0,-0.219978,-0.077904,-9.889722,-0.038953,1.850312,-0.195944,-3.611552,28.210682,-41.201405,-1354.000000,1415.000000,-2819.000000,86.948247,-1.341319,122.922204,0.353751,0.321224,-0.608443,0.633619,1213.236084,87484.820312,-0.218401,1729.280151,31.125000,33.397568,0,202
101,300824,300671,0,0,-0.207793,-0.063582,-9.899179,2.102420,1.972470,-0.336919,-3.477111,28.227848,-41.654488,-1332.000000,1418.000000,-2850.000000,86.600549,-1.235810,122.982173,0.353840,0.320424,-0.606372,0.635955,1213.463013,87482.406250,0.599626,1729.280151,31.125000,33.392933,0,202
101,302887,302739,0,0,-0.187317,-0.083372,-9.895494,-0.534510,1.966270,-0.248534,-3.562664,28.262175,-40.909092,-1346.000000,1424.000000,-2799.000000,86.716430,-1.315031,122.766011,0.355128,0.321482,-0.606645,0.634442,1213.345825,87483.648438,0.174665,1729.280151,31.125000,33.397568,0,202
101,304951,304852,0,0,-0.204315,-0.059125,-9.887059,-0.839042,1.016146,-0.946668,-3.660439,28.159193,-41.318329,-1362.000000,1406.000000,-2827.000000,86.859680,-1.222671,122.495591,0.355738,0.323875,-0.606400,0.633116,1213.405884,87483.007812,0.291797,1729.280151,31.125000,33.443893,0,202
101,307018,306895,0,0,-0.204604,-0.082082,-9.893457,0.539012,1.461478,-0.388267,-3.477111,28.313663,-40.382927,-1332.000000,1433.000000,-2763.000000,86.944196,-1.297517,122.246029,0.357267,0.325040,-0.606384,0.631671,1213.507202,87481.929688,0.243946,1729.280151,31.250000,33.462425,0,202
101,309083,308953,0,0,-0.217404,-0.064615,-9.882753,0.375152,1.990150,-0.650583,-3.373226,28.410921,-42.224495,-1315.000000,1450.000000,-2889.000000,86.715815,-1.335725,121.985048,0.359553,0.325492,-0.604499,0.631948,1213.210083,87485.093750,-0.700673,1729.280151,31.125000,33.485588,0,202
101,311154,311041,0,0,-0.199184,-0.089667,-9.900561,-0.772707,2.135173,0.332176,-3.281562,28.285055,-41.230633,-1300.000000,1428.000000,-2821.000000,86.927401,-1.796821,121.727304,0.362767,0.324947,-0.606318,0.628640,1213.578979,87481.164062,0.392344,1729.280151,31.125000,33.499485,0,202
101,313227,313100,0,0,-0.208084,-0.073066,-9.896525,-0.275349,1.559178,-0.929726,-3.519888,28.445248,-41.815262,-1339.000000,1456.000000,-2861.000000,86.736668,-1.630121,121.661706,0.362804,0.325620,-0.604583,0.629941,1213.352661,87483.578125,-0.153569,1729.280151,31.125000,33.476322,0,202
101,315297,315164,0,0,-0.203496,-0.063375,-9.896171,-0.435568,1.949835,0.269135,-3.489333,28.262175,-41.493713,-1334.000000,1424.000000,-2839.000000,86.794458,-1.584759,121.434903,0.363650,0.327252,-0.604117,0.629054,1213.250854,87484.664062,-0.665919,1729.280151,31.125000,33.508751,0,202
101,317425,317269,0,0,-0.225538,-0.074981,-9.890964,-1.617823,1.610487,-0.775303,-3.678771,28.199242,-41.581409,-1365.000000,1413.000000,-2845.000000,87.215157,-1.899595,121.087055,0.365982,0.328678,-0.606375,0.624770,1213.688843,87479.992188,0.262345,1729.280151,31.250000,33.550442,0,202
101,319493,319411,0,0,-0.216782,-0.057301,-9.896293,-0.127877,1.462396,-0.623859,-3.483223,28.330826,-41.479099,-1333.000000,1436.000000,-2838.000000,87.102834,-1.674024,120.568453,0.367964,0.332307,-0.603582,0.624392,1213.571045,87481.250000,-0.169642,1729.280151,31.250000,33.573605,0,202
101,321565,321473,0,0,-0.205069,-0.073088,-9.894035,0.596442,2.230495,-0.467865,-3.587108,28.393759,-42.326805,-1350.000000,1447.000000,-2896.000000,86.777717,-1.535827,120.194268,0.370236,0.333990,-0.600296,0.625318,1213.444946,87482.593750,0.278437,1729.280151,31.250000,33.592136,0,202
101,323657,323540,0,0,-0.204737,-0.070055,-9.882376,-0.306317,1.505791,0.153685,-3.354894,28.113426,-41.186790,-1312.000000,1398.000000,-2818.000000,86.864959,-1.244016,120.058429,0.369216,0.336597,-0.599470,0.625315,1213.537720,87481.601562,0.888311,1729.280151,31.250000,33.606033,0,202
101,325731,325628,0,0,-0.217100,-0.066780,-9.892374,-0.304411,2.052119,0.882449,-3.440446,28.262175,-42.516808,-1326.000000,1424.000000,-2909.000000,87.095055,-1.382023,119.740497,0.370983,0.338243,-0.600216,0.622660,1213.229858,87484.890625,-0.414809,1729.280151,31.250000,33.638458,0,202
101,327808,327687,0,0,-0.210184,-0.060073,-9.890562,-0.418575,1.846646,0.378368,-3.397670,28.279337,-42.063725,-1319.000000,1427.000000,-2878.000000,86.929996,-1.198059,119.630094,0.371122,0.339299,-0.598418,0.623733,1213.141602,87485.828125,-0.572890,1729.280151,31.250000,33.670887,0,202
101,329884,329738,0,0,-0.216530,-0.075029,-9.890206,-0.459924,1.454590,0.028342,-3.703216,28.176355,-40.792168,-1369.000000,1409.000000,-2791.000000,86.988251,-0.927018,119.525865,0.370118,0.341522,-0.597575,0.623924,1213.175049,87485.476562,-0.844332,1729.280151,31.375000,33.689415,0,202
101,331959,331824,0,0,-0.231079,-0.051448,-9.877982,0.041800,1.378086,0.048474,-3.672661,28.204964,-41.888336,-1364.000000,1414.000000,-2866.000000,87.119473,-1.008296,119.041605,0.372776,0.344026,-0.597096,0.621420,1213.401367,87483.054688,0.049207,1729.280151,31.375000,33.712578,0,202
101,334094,333948,0,0,-0.202753,-0.073672,-9.894741,-0.222354,1.761428,-0.212024,-3.477111,28.119144,-40.894474,-1332.000000,1399.000000,-2798.000000,86.985758,-1.211198,118.708374,0.376027,0.344212,-0.596013,0.620396,1213.394531,87483.132812,0.179363,1729.280151,31.250000,33.735741,0,202
101,335353,335203,0,0,-0.201754,-0.062871,-9.882463,0.792784,1.897599,-0.125567,-3.464890,28.370874,-42.136803,-1330.000000,1443.000000,-2883.000000,86.622283,-1.144969,118.387819,0.378518,0.345042,-0.592869,0.621433,1213.237793,87484.804688,-0.419633,1729.280151,31.250000,33.768169,1,202
101,335532,335433,0,0,-0.229937,-0.153928,-9.943384,1.014049,1.444624,0.237012,-3.287673,28.279337,-42.326805,-1301.000000,1427.000000,-2896.000000,86.447252,-1.170675,118.330118,0.379489,0.344620,-0.591828,0.622067,1213.584106,87481.109375,0.427769,1729.280151,31.250000,33.749638,1,202
101,335713,335513,0,0,-0.203643,-0.073471,-9.885792,0.406540,2.064671,0.276726,-3.257119,28.347988,-41.464485,-1296.000000,1439.000000,-2837.000000,86.305178,-1.192342,118.367315,0.379824,0.343838,-0.591237,0.622856,1212.793579,87489.539062,-1.213930,1729.280151,31.250000,33.656990,1,202
101,335896,335798,0,0,-0.220850,-0.155882,-9.930493,0.113939,1.755979,0.035350,-3.434335,28.090542,-42.151417,-1325.000000,1394.000000,-2884.000000,86.226869,-1.253241,118.403993,0.380169,0.343054,-0.591117,0.623192,1212.736450,87490.148438,-0.613448,1729.280151,31.250000,33.624561,1,202
101,336083,335878,0,0,-0.212442,-0.082792,-9.898744,0.989484,1.269874,0.340545,-3.678771,28.502459,-41.157555,-1365.000000,1466.000000,-2816.000000,86.147168,-1.148961,118.452009,0.379616,0.343116,-0.590492,0.624086,1213.214600,87485.046875,-0.031166,1729.280151,31.250000,33.661621,1,202
101,336265,336166,0,0,-0.209685,-0.156238,-9.938504,-0.269204,1.114006,-0.553175,-3.440446,28.468132,-42.092957,-1326.000000,1460.000000,-2880.000000,86.289243,-1.248943,118.345704,0.380277,0.343585,-0.591267,0.622690,1213.186890,87485.343750,0.756532,1729.280151,31.375000,33.684784,1,202
101,336469,336247,0,0,-0.215979,-0.071848,-9.899524,-0.048382,1.060444,-0.046631,-3.336561,28.296499,-41.859104,-1309.000000,1430.000000,-2864.000000,86.299208,-1.259815,118.340472,0.380331,0.343586,-0.591341,0.622587,1212.759644,87489.898438,0.101893,1729.280151,31.375000,33.633827,1,202
101,336754,336655,0,0,-0.219589,-0.170947,-9.942031,-0.500288,1.695314,-0.597178,-3.446557,28.262175,-41.566792,-1327.000000,1424.000000,-2844.000000,86.170432,-1.544688,118.182763,0.383020,0.342402,-0.591082,0.621836,1212.863159,87488.796875,-0.819393,1729.280151,31.375000,33.684784,1,202
101,336933,336734,0,0,-0.208613,-0.088550,-9.906509,-1.246769,1.717790,0.125389,-3.409892,28.273615,-41.654488,-1321.000000,1426.000000,-2850.000000,86.190751,-1.714062,118.201560,0.383716,0.341440,-0.591791,0.621262,1212.244263,87495.398438,-0.948627,1729.280151,31.375000,33.559708,1,202
101,337090,336994,0,0,-0.237042,-0.066201,-9.890491,-0.339334,1.621936,-0.337190,-3.556554,28.245010,-41.829876,-1345.000000,1421.000000,-2862.000000,86.233228,-1.710254,118.157560,0.383808,0.341830,-0.591878,0.620907,1212.757935,87489.914062,-0.364094,1729.280151,31.375000,33.680153,1,202
101,337248,337074,0,0,-0.224566,-0.067635,-9.884640,1.635740,1.368171,-0.053785,-3.391559,28.210682,-41.318329,-1335.000000,1431.000000,-2827.000000,86.123897,-1.529080,118.148339,0.383267,0.342510,-0.590677,0.622010,1212.785645,87489.625000,0.482401,1729.280151,31.375000,33.652359,1,202
101,337409,337205,0,0,-0.210646,-0.077766,-9.889063,0.294724,1.471924,0.408151,-3.458779,28.245010,-41.216019,-1329.000000,1421.000000,-2820.000000,86.080034,-1.510443,118.202967,0.383007,0.342185,-0.590542,0.622477,1212.494873,87492.726562,-0.272728,1729.280151,31.375000,33.647724,1,202
101,337567,337468,0,0,-0.225838,-0.158101,-9.940649,0.668396,1.552941,-0.653784,-3.367116,28.330826,-41.756798,-1314.000000,1436.000000,-2857.000000,86.002764,-1.415668,118.169007,0.382942,0.342624,-0.589716,0.623058,1213.058472,87486.710938,1.466333,1729.280151,31.375000,33.694050,1,202
101,337730,337548,0,0,-0.222787,-0.079118,-9.885706,0.978383,1.315528,-0.379977,-3.519888,28.159193,-42.429115,-1339.000000,1406.000000,-2903.000000,85.941327,-1.311683,118.118436,0.382874,0.343252,-0.588896,0.623529,1212.998413,87487.351562,0.726371,1729.280151,31.375000,33.652359,1,202
101,337893,337681,0,0,-0.213752,-0.069947,-9.883190,1.113702,1.946770,-0.589185,-3.562664,28.347988,-41.435253,-1346.000000,1439.000000,-2835.000000,85.796766,-1.235533,118.037075,0.383365,0.343606,-0.587619,0.624237,1212.673706,87490.812500,0.203402,1729.280151,31.375000,33.647724,1,202
101,338115,338015,0,0,-0.241679,-0.175097,-9.928382,0.172621,1.768183,-0.073037,-3.507666,28.365152,-42.136803,-1337.000000,1442.000000,-2883.000000,85.653502,-1.257658,117.961465,0.384318,0.343391,-0.586683,0.624649,1213.113281,87486.125000,0.855635,1729.280151,31.375000,33.694050,1,202
101,338278,338101,0,0,-0.212915,-0.089169,-9.902459,0.388859,1.870582,0.082461,-3.519888,28.416643,-41.274483,-1339.000000,1451.000000,-2824.000000,85.559492,-1.261717,117.972817,0.384558,0.342995,-0.586218,0.625155,1212.340454,87494.375000,-1.245579,1729.280151,31.375000,33.610664,1,202
101,338441,338236,0,0,-0.213971,-0.074383,-9.900238,-0.712906,2.135658,0.447490,-3.397670,28.159193,-41.245251,-1319.000000,1406.000000,-2822.000000,85.520628,-1.404350,118.032895,0.385066,0.341769,-0.586648,0.625111,1212.476196,87492.921875,-0.950246,1729.280151,31.375000,33.629196,1,202
101,338608,338508,0,0,-0.221725,-0.172995,-9.940478,0.438972,1.079590,-0.369573,-3.409892,28.416643,-41.552177,-1321.000000,1451.000000,-2843.000000,85.523592,-1.419425,117.941739,0.385630,0.342162,-0.586441,0.624743,1213.084961,87486.429688,0.849613,1729.280151,31.375000,33.689415,1,202
101,338774,338600,0,0,-0.202693,-0.089614,-9.898088,0.294043,1.652657,-0.672815,-3.562664,28.456692,-41.186790,-1346.000000,1458.000000,-2818.000000,85.457913,-1.418655,117.844792,0.386351,0.342441,-0.585790,0.624755,1212.775513,87489.734375,-0.026839,1729.280151,31.375000,33.666256,1,202
101,338945,338733,0,0,-0.210311,-0.060217,-9.890122,0.848693,1.545510,-0.190466,-3.464890,28.388037,-41.712948,-1330.000000,1446.000000,-2854.000000,85.387740,-1.346061,117.818427,0.386339,0.342741,-0.585093,0.625251,1212.712769,87490.398438,0.981539,1729.280151,31.375000,33.638458,1,202
101,339114,339014,0,0,-0.232056,-0.158903,-9.936951,-0.117924,1.608716,-0.033185,-3.513777,28.302221,-42.779888,-1338.000000,1431.000000,-2927.000000,85.387740,-1.318205,117.802718,0.386285,0.342975,-0.584955,0.625285,1212.894897,87488.460938,0.989991,1729.280151,31.375000,33.698681,1,202
101,339283,339109,0,0,-0.217106,-0.089010,-9.904700,-0.984485,1.764121,0.069931,-3.519888,28.388037,-41.946800,-1339.000000,1446.000000,-2870.000000,85.392985,-1.492553,117.815422,0.387076,0.341964,-0.585589,0.624756,1212.829834,87489.156250,-0.166072,1729.280151,31.375000,33.661621,1,202
101,339511,339428,0,0,-0.167476,-0.073985,-9.886030,0.308454,1.579496,-0.399223,-3.409892,28.353710,-41.669102,-1319.000000,1411.000000,-2851.000000,85.304917,-1.690535,117.831145,0.388247,0.340489,-0.585797,0.624640,1212.342163,87494.351562,-0.576155,1729.280151,31.375000,33.619930,1,202
101,339683,339508,0,0,-0.187689,-0.069833,-9.881969,1.340102,1.850705,0.113817,-3.464890,28.262175,-41.566792,-1330.000000,1424.000000,-2844.000000,85.166913,-1.571147,117.844218,0.387987,0.340617,-0.584696,0.625762,1212.940186,87487.976562,0.344925,1729.280151,31.375000,33.689415,1,202
101,339857,339646,0,0,-0.202925,-0.074926,-9.873472,1.215272,1.906645,-0.185974,-3.489333,28.576834,-41.391407,-1334.000000,1479.000000,-2832.000000,85.034831,-1.471387,117.816597,0.388031,0.340864,-0.583568,0.626653,1212.813965,87489.320312,-0.330932,1729.280151,31.375000,33.656990,1,202
101,340027,339929,0,0,-0.227791,-0.167062,-9.928569,-0.553928,1.770676,0.614670,-3.495445,28.239288,-41.698334,-1335.000000,1420.000000,-2853.000000,85.058436,-1.653806,117.836281,0.388766,0.339831,-0.584348,0.626031,1213.140991,87485.835938,0.643343,1729.280151,31.500000,33.717213,1,202
101,340202,340009,0,0,-0.202521,-0.077916,-9.888790,-0.078632,2.859636,0.998844,-3.513777,28.336548,-41.303711,-1338.000000,1437.000000,-2826.000000,84.903705,-1.761121,117.969047,0.389035,0.338033,-0.584243,0.626935,1212.851318,87488.921875,0.926010,1729.280151,31.500000,33.666256,1,202
101,340377,340279,0,0,-0.210927,-0.067688,-9.883506,-0.224785,1.422258,-0.087702,-3.440446,28.456692,-41.084476,-1326.000000,1458.000000,-2811.000000,84.947568,-1.800020,117.855570,0.389720,0.338544,-0.584274,0.626204,1212.742188,87490.085938,-0.045932,1729.280151,31.500000,33.670887,1,202
101,340557,340358,0,0,-0.198803,-0.071037,-9.878159,-1.025146,1.571345,-0.341272,-3.532109,28.370874,-41.581409,-1341.000000,1443.000000,-2845.000000,84.999778,-1.942880,117.811105,0.390522,0.338154,-0.584891,0.625339,1213.102051,87486.250000,0.487980,1729.280151,31.500000,33.726475,1,202
101,340736,340637,0,0,-0.209625,-0.074022,-9.887691,0.241977,1.599987,-0.237606,-3.458779,28.307941,-41.099091,-1329.000000,1432.000000,-2812.000000,85.106438,-2.012370,117.726083,0.391017,0.338566,-0.585446,0.624286,1212.695190,87490.585938,-0.361129,1729.280151,31.500000,33.675518,1,202
101,340972,340717,0,0,-0.202119,-0.071658,-9.897743,0.353057,1.236374,-0.378556,-3.703216,28.393759,-42.195263,-1369.000000,1447.000000,-2887.000000,85.049823,-1.972457,117.654626,0.391375,0.338959,-0.584797,0.624457,1212.846802,87488.968750,-0.215478,1729.280151,31.500000,33.726475,1,202
101,341152,341052,0,0,-0.204472,-0.153548,-9.939986,-0.703222,1.354744,-0.450063,-3.501556,28.502459,-41.362175,-1336.000000,1466.000000,-2830.000000,85.187936,-1.976367,117.603468,0.391264,0.339670,-0.585410,0.623565,1212.709839,87490.429688,-0.560585,1729.280151,31.500000,33.731110,1,202
101,341332,341138,0,0,-0.209166,-0.079892,-9.901134,-0.925357,1.757006,-0.283749,-3.483223,28.439526,-41.186790,-1333.000000,1455.000000,-2818.000000,85.199104,-2.118312,117.564426,0.392152,0.339120,-0.585815,0.622926,1212.553101,87492.101562,-0.160345,1729.280151,31.375000,33.684784,1,202
101,341514,341277,0,0,-0.205374,-0.069241,-9.889885,0.688822,0.921594,-0.592611,-3.348783,28.290777,-41.815262,-1311.000000,1434.000000,-2809.000000,85.218747,-2.003271,117.485374,0.391949,0.340230,-0.585315,0.622919,1212.590454,87491.703125,-0.134779,1729.280151,31.375000,33.670887,1,202
101,341694,341595,0,0,-0.224958,-0.172571,-9.934480,-0.389766,1.513730,0.591598,-3.617663,28.491018,-41.888336,-1355.000000,1464.000000,-2866.000000,85.250931,-2.055733,117.462506,0.392240,0.340166,-0.585592,0.622510,1212.605713,87491.539062,0.273297,1729.280151,31.375000,33.703316,1,202
101,341910,341821,0,0,-0.206309,-0.069850,-9.883359,0.131773,1.601851,-0.320222,-3.580997,28.376596,-40.850628,-1349.000000,1444.000000,-2795.000000,85.270493,-2.068621,117.533007,0.391863,0.339801,-0.585949,0.622611,1212.479614,87492.882812,0.056367,1729.280151,31.375000,33.670887,1,202
101,342097,341910,0,0,-0.187378,-0.063423,-9.883559,1.089042,2.155416,0.545455,-3.587108,28.307941,-41.128326,-1350.000000,1432.000000,-2814.000000,85.080033,-1.986616,117.610257,0.391598,0.339210,-0.584876,0.624107,1212.927124,87488.117188,0.590181,1729.280151,31.375000,33.740372,1,202
101,342339,342052,0,0,-0.212325,-0.064676,-9.877329,1.180575,2.184954,0.426925,-3.715438,28.273615,-40.967552,-1371.000000,1426.000000,-2803.000000,84.792345,-1.894119,117.683763,0.391586,0.338367,-0.583224,0.626115,1212.773193,87489.750000,0.589572,1729.280151,31.375000,33.684784,1,202
101,342551,342452,0,0,-0.220066,-0.158128,-9.940890,0.427545,1.241059,-0.583757,-3.593219,28.462410,-41.040630,-1351.000000,1459.000000,-2808.000000,84.795549,-1.878868,117.563060,0.392160,0.339076,-0.582835,0.625733,1212.610840,87491.484375,0.191291,1729.280151,31.375000,33.670887,1,202
101,342711,342531,0,0,-0.203515,-0.085312,-9.899408,-0.007263,1.702600,-1.174188,-3.556554,28.450970,-41.610641,-1345.000000,1457.000000,-2847.000000,84.778070,-1.897472,117.405242,0.393166,0.339715,-0.582333,0.625223,1212.363647,87494.125000,-0.269959,1729.280151,31.375000,33.647724,1,202
101,342871,342667,0,0,-0.218322,-0.069550,-9.888285,-0.194934,1.638374,-0.536690,-3.416002,28.422363,-41.508331,-1322.000000,1452.000000,-2840.000000,84.788336,-1.931049,117.336557,0.393677,0.339913,-0.582295,0.624829,1212.617676,87491.414062,-0.473753,1729.280151,31.375000,33.670887,1,202
101,343031,342946,0,0,-0.223006,-0.157400,-9.944457,0.415699,1.252485,-0.318475,-3.733770,28.508181,-40.777550,-1374.000000,1467.000000,-2790.000000,84.771213,-1.837322,117.260333,0.393678,0.340762,-0.581668,0.624950,1212.835449,87489.093750,0.490773,1729.280151,31.375000,33.758904,1,202
101,343191,343026,0,0,-0.223605,-0.084200,-9.897196,0.290969,1.893955,-0.448572,-3.519888,28.382318,-41.332943,-1339.000000,1445.000000,-2828.000000,84.720130,-1.830536,117.200637,0.394122,0.340927,-0.581190,0.625025,1212.880737,87488.609375,0.555412,1729.280151,31.375000,33.698681,1,202
101,343352,343160,0,0,-0.202492,-0.067715,-9.886124,0.916391,1.720641,-0.058454,-3.440446,28.342270,-41.172173,-1326.000000,1438.000000,-2817.000000,84.653522,-1.745563,117.192358,0.393943,0.341212,-0.580523,0.625602,1212.605713,87491.539062,0.505755,1729.280151,31.375000,33.703316,1,202
101,343516,343433,0,0,-0.208826,-0.086372,-9.886527,-0.101515,1.618517,-0.045492,-3.348783,28.142031,-41.142941,-1311.000000,1403.000000,-2815.000000,84.776219,-1.797312,117.202016,0.393782,0.341297,-0.581391,0.624850,1212.777832,87489.710938,0.612385,1729.280151,31.375000,33.698681,1,202
101,343683,343513,0,0,-0.202536,-0.081247,-9.892993,-0.730933,1.637153,-0.295676,-3.464890,28.382318,-41.420639,-1330.000000,1445.000000,-2834.000000,84.809899,-1.899277,117.164928,0.394391,0.341035,-0.581798,0.624230,1213.121826,87486.039062,0.493945,1729.280151,31.375000,33.749638,1,202
101,343903,343665,0,0,-0.222627,-0.066960,-9.889103,-0.513361,1.823065,-0.177417,-3.361004,28.285055,-41.435253,-1313.000000,1428.000000,-2835.000000,84.728230,-2.061918,117.128783,0.395637,0.340034,-0.581779,0.624006,1212.713257,87490.390625,0.013806,1729.280151,31.500000,33.717213,1,202
101,344069,343981,0,0,-0.221979,-0.069789,-9.892036,0.698836,1.955473,-0.688902,-3.269341,28.330826,-41.581409,-1298.000000,1436.000000,-2845.000000,84.797065,-2.064325,117.055741,0.395842,0.340630,-0.581944,0.623396,1212.432617,87493.390625,-0.057264,1729.280151,31.500000,33.698681,1,202
101,344235,344061,0,0,-0.215437,-0.070437,-9.891424,-0.192812,1.238067,-0.295813,-3.342672,28.164915,-40.879860,-1310.000000,1407.000000,-2797.000000,84.847888,-2.071028,117.019186,0.395923,0.340954,-0.582134,0.622991,1212.973511,87487.625000,0.521566,1729.280151,31.500000,33.758904,1,202
101,344404,344197,0,0,-0.204551,-0.074183,-9.881815,0.348990,1.939174,-0.172380,-3.440446,28.222126,-41.040630,-1338.000000,1427.000000,-2808.000000,84.778699,-2.056841,116.994747,0.396191,0.340917,-0.581638,0.623303,1212.662354,87490.937500,-0.439522,1729.280151,31.500000,33.731110,1,202
101,344570,344470,0,0,-0.212786,-0.170192,-9.924916,0.994281,1.244069,-0.961829,-3.642107,28.342270,-40.865246,-1359.000000,1438.000000,-2796.000000,84.820042,-1.934155,116.848254,0.396257,0.342484,-0.581024,0.622976,1213.142212,87485.820312,1.536447,1729.280151,31.500000,33.772800,1,202
101,344743,344550,0,0,-0.204021,-0.078785,-9.890206,0.640559,2.135248,-0.059245,-3.532109,28.302221,-40.616779,-1341.000000,1431.000000,-2779.000000,84.704666,-1.901108,116.837817,0.396495,0.342321,-0.580256,0.623629,1212.848511,87488.953125,0.990769,1729.280151,31.500000,33.731110,1,202
101,344916,344828,0,0,-0.210341,-0.071909,-9.894184,0.431242,2.146319,0.695559,-3.446557,28.370874,-40.733704,-1327.000000,1443.000000,-2787.000000,84.694195,-1.835590,116.944573,0.395620,0.342107,-0.580302,0.624258,1212.713257,87490.390625,0.473990,1729.280151,31.500000,33.717213,1,202
101,345111,344907,0,0,-0.224764,-0.074123,-9.881779,-0.156859,1.790231,0.127321,-3.416002,28.462410,-41.230633,-1322.000000,1459.000000,-2821.000000,84.678554,-1.878699,116.963492,0.395777,0.341718,-0.580415,0.624267,1213.074829,87486.539062,1.150754,1729.280151,31.500000,33.777431,1,202
101,345343,345238,0,0,-0.211563,-0.166623,-9.922662,0.335926,2.165837,-0.775317,-3.458779,28.330826,-40.952938,-1329.000000,1436.000000,-2802.000000,84.589755,-1.886240,116.746962,0.397259,0.342465,-0.579310,0.623943,1212.942993,87487.945312,0.111281,1729.280151,31.500000,33.800594,1,202
101,345517,345343,0,0,-0.202622,-0.081400,-9.897499,0.189751,1.429171,-0.105163,-3.556554,28.285055,-41.259869,-1345.000000,1428.000000,-2823.000000,84.561328,-1.876479,116.730747,0.397384,0.342502,-0.579075,0.624061,1212.520874,87492.445312,-0.179162,1729.280151,31.500000,33.694050,1,202
101,345691,345481,0,0,-0.196565,-0.073049,-9.891376,-0.443404,0.984499,-0.470991,-3.489333,28.290777,-41.552177,-1334.000000,1429.000000,-2843.000000,84.657859,-1.906564,116.670423,0.397572,0.342975,-0.579519,0.623269,1212.364746,87494.109375,-0.456863,1729.280151,31.500000,33.703316,1,202
101,345864,345764,0,0,-0.207112,-0.154259,-9.938630,0.249196,1.326779,-1.031995,-3.189899,28.347988,-40.382927,-1285.000000,1439.000000,-2763.000000,84.809735,-1.839964,116.456966,0.397947,0.344951,-0.579483,0.621971,1213.039185,87486.921875,0.736737,1729.280151,31.500000,33.772800,1,202
101,346041,345844,0,0,-0.213618,-0.084501,-9.893590,0.018669,1.374257,-0.515144,-3.544332,28.273615,-40.850628,-1343.000000,1426.000000,-2795.000000,84.825820,-1.835198,116.388035,0.398249,0.345381,-0.579347,0.621666,1212.775513,87489.734375,0.152853,1729.280151,31.500000,33.740372,1,202
101,346217,346137,0,0,-0.212317,-0.076931,-9.885678,-0.086788,1.691653,-0.195600,-3.574886,28.267897,-41.274483,-1348.000000,1425.000000,-2824.000000,84.806777,-1.779543,116.318408,0.398409,0.345974,-0.578849,0.621697,1212.812866,87489.328125,1.065691,1729.280151,31.500000,33.731110,1,202
101,346397,346217,0,0,-0.210274,-0.063298,-9.881983,0.651196,1.521406,-0.091031,-3.483223,28.370874,-41.522945,-1333.000000,1443.000000,-2841.000000,84.767367,-1.712505,116.305991,0.398264,0.346270,-0.578375,0.622067,1213.048218,87486.820312,0.968840,1729.280151,31.500000,33.758904,1,202
101,346578,346498,0,0,-0.211953,-0.072009,-9.881830,-1.002837,1.628233,-0.522517,-3.538221,28.353710,-41.435253,-1342.000000,1440.000000,-2835.000000,84.898145,-1.784077,116.347929,0.397995,0.346118,-0.579449,0.621324,1212.717285,87490.351562,-0.059629,1729.280151,31.500000,33.731110,1,202
101,346819,346577,0,0,-0.196469,-0.076716,-9.881520,-0.591624,1.414478,-0.271725,-3.446557,28.319386,-41.172173,-1327.000000,1434.000000,-2817.000000,84.888603,-1.919322,116.297276,0.398968,0.345594,-0.579692,0.620764,1212.935059,87488.031250,0.458490,1729.280151,31.500000,33.795963,1,202
101,347001,346917,0,0,-0.214793,-0.066381,-9.892229,1.229826,1.897634,0.319733,-3.623773,28.468132,-41.376789,-1356.000000,1460.000000,-2831.000000,84.912994,-1.870385,116.226829,0.399034,0.346306,-0.579450,0.620552,1212.549805,87492.140625,-0.859018,1729.280151,31.500000,33.721844,1,202
101,347185,346996,0,0,-0.220924,-0.066229,-9.896814,-0.339845,1.958845,-0.301927,-3.403781,28.250731,-41.362175,-1320.000000,1422.000000,-2830.000000,84.872907,-1.948840,116.184072,0.399774,0.345949,-0.579364,0.620354,1213.096924,87486.304688,0.247828,1729.280151,31.500000,33.782066,1,202
101,347370,347281,0,0,-0.209609,-0.066717,-9.883458,0.922376,1.775254,-0.443705,-3.446557,28.382318,-41.420639,-1327.000000,1445.000000,-2834.000000,85.003828,-2.053483,116.108708,0.400303,0.346210,-0.580191,0.619093,1212.897705,87488.429688,-0.077692,1729.280151,31.500000,33.735741,1,202
101,347555,347360,0,0,-0.208348,-0.073259,-9.890213,-0.251952,2.722955,0.349121,-3.568776,28.302221,-40.704475,-1347.000000,1431.000000,-2785.000000,84.860552,-2.160159,116.154347,0.401015,0.344889,-0.579908,0.619634,1212.780640,87489.679688,0.286025,1729.280151,31.500000,33.809860,1,202
101,347742,347642,0,0,-0.186466,-0.070656,-9.893248,-0.911689,1.666794,0.119997,-3.580997,28.153475,-40.850628,-1349.000000,1405.000000,-2795.000000,84.954624,-2.272996,116.128802,0.401427,0.344725,-0.580712,0.618705,1212.717773,87490.343750,-0.533855,1729.280151,31.500000,33.758904,1,202
101,347982,347722,0,0,-0.210642,-0.074145,-9.885091,-0.193018,1.616459,0.054040,-3.519888,28.365152,-40.733704,-1339.000000,1442.000000,-2787.000000,84.874588,-2.344874,116.137572,0.401974,0.344003,-0.580544,0.618910,1213.280273,87484.351562,0.261922,1729.280151,31.500000,33.795963,1,202
101,348159,348062,0,0,-0.210467,-0.060505,-9.887321,0.169484,1.323368,-0.211062,-3.629884,28.559669,-41.099091,-1357.000000,1476.000000,-2812.000000,84.925691,-2.343456,116.082562,0.402111,0.344468,-0.580650,0.618462,1212.506226,87492.601562,-0.498415,1729.280151,31.500000,33.740372,1,202
101,348374,348159,0,0,-0.230906,-0.076479,-9.884737,-0.912639,1.215269,-0.655897,-3.440446,28.525343,-41.011398,-1326.000000,1470.000000,-2806.000000,84.975306,-2.504033,115.956285,0.403433,0.344396,-0.581069,0.617247,1212.895996,87488.445312,0.065941,1729.280151,31.500000,33.805225,1,202
101,348531,348340,0,0,-0.201644,-0.067497,-9.889651,-0.036969,1.973764,-0.130227,-3.690994,28.513901,-41.449867,-1367.000000,1468.000000,-2836.000000,84.928710,-2.517356,115.938308,0.403736,0.344249,-0.580808,0.617377,1212.350586,87494.265625,-0.896373,1729.280151,31.500000,33.726475,1,202
101,348689,348608,0,0,-0.178697,-0.063734,-9.891546,-0.198465,1.804454,-0.568192,-3.507666,28.456692,-40.748318,-1337.000000,1458.000000,-2788.000000,84.996937,-2.509823,115.878257,0.403817,0.344836,-0.580970,0.616844,1212.553711,87492.093750,-0.222942,1729.280151,31.500000,33.763535,1,202
101,348854,348688,0,0,-0.185202,-0.063070,-9.890292,1.088025,2.025539,-0.245595,-3.684883,28.508181,-40.996784,-1366.000000,1467.000000,-2805.000000,84.865701,-2.398134,115.839844,0.403869,0.345184,-0.579777,0.617736,1212.809448,87489.367188,0.067264,1729.280151,31.500000,33.814491,1,202
101,349014,348840,0,0,-0.195735,-0.073342,-9.885079,-0.110700,1.677019,0.223067,-3.684883,28.473852,-40.470623,-1366.000000,1461.000000,-2769.000000,84.835997,-2.418884,115.872834,0.403883,0.344798,-0.579785,0.617935,1212.737061,87490.140625,-0.424072,1729.280151,31.500000,33.777431,1,202
101,349175,348973,0,0,-0.204072,-0.081293,-9.884188,-0.695807,1.798252,0.238340,-3.666550,28.468132,-40.543701,-1363.000000,1460.000000,-2774.000000,84.850122,-2.497279,115.906207,0.404046,0.344246,-0.580221,0.617727,1212.629517,87491.289062,0.242102,1729.280151,31.500000,33.763535,1,202
101,349337,349239,0,0,-0.218075,-0.168902,-9.950212,0.356751,1.726074,-0.165912,-3.776546,28.450970,-40.850628,-1381.000000,1457.000000,-2795.000000,84.856269,-2.402636,115.884377,0.403680,0.344901,-0.579875,0.617926,1212.930542,87488.078125,0.784157,1729.280151,31.500000,33.828388,1,202
101,349532,349318,0,0,-0.209233,-0.085474,-9.904753,-0.489365,1.210713,-0.120454,-3.593219,28.262175,-40.339081,-1351.000000,1424.000000,-2760.000000,84.920725,-2.430116,115.872247,0.403686,0.345038,-0.580277,0.617468,1212.687256,87490.671875,0.056180,1729.280151,31.500000,33.795963,1,202
101,349749,349650,0,0,-0.209188,-0.160655,-9.948200,-0.728182,2.571529,0.124669,-3.605441,28.193521,-40.865246,-1353.000000,1412.000000,-2796.000000,84.763208,-2.631874,115.862848,0.405201,0.343414,-0.580068,0.617577,1212.879639,87488.625000,0.695114,1729.280151,31.500000,33.842285,1,202
101,349914,349730,0,0,-0.219456,-0.082343,-9.901805,-0.335027,2.177167,-0.116789,-3.782657,28.319386,-41.201405,-1382.000000,1434.000000,-2819.000000,84.713969,-2.685434,115.846497,0.405699,0.343026,-0.579931,0.617595,1212.186523,87496.015625,-0.334437,1729.280151,31.500000,33.754269,1,202
101,350077,349995,0,0,-0.219036,-0.071996,-9.883686,-0.437863,2.221052,-0.410318,-3.617663,28.416643,-41.376789,-1355.000000,1451.000000,-2831.000000,84.739575,-2.668945,115.857097,0.405485,0.343155,-0.580046,0.617556,1212.714966,87490.375000,0.569157,1729.280151,31.500000,33.772800,1,202
101,350245,350074,0,0,-0.204579,-0.066289,-9.888581,-0.160987,1.661368,-0.107188,-3.709326,28.342270,-41.303711,-1370.000000,1438.000000,-2826.000000,84.739350,-2.676174,115.843902,0.405592,0.343181,-0.580029,0.617487,1212.851318,87488.921875,0.471358,1729.280151,31.500000,33.842285,1,202
101,350416,350209,0,0,-0.226612,-0.064374,-9.876730,-0.571899,1.856077,-0.615054,-3.758214,28.187799,-41.596024,-1378.000000,1411.000000,-2846.000000,84.741290,-2.742495,115.761980,0.406353,0.343235,-0.580013,0.616971,1212.620483,87491.382812,0.055337,1729.280151,31.500000,33.805225,1,202
101,350586,350488,0,0,-0.216114,-0.053504,-9.884148,0.068117,1.472921,-0.237218,-3.489333,28.347988,-41.596024,-1334.000000,1439.000000,-2846.000000,84.767224,-2.700247,115.670060,0.406563,0.344026,-0.579737,0.616652,1212.840576,87489.039062,1.447013,1729.280151,31.500000,33.851551,1,202
101,352657,352567,0,0,-0.207767,-0.062819,-9.882994,0.104338,2.056476,-0.152692,-3.538221,28.382318,-41.289097,-1342.000000,1445.000000,-2825.000000,85.641543,-1.590002,115.236520,0.400750,0.355393,-0.579407,0.614316,1213.251953,87484.648438,-0.435256,1729.280151,31.625000,33.962723,0,202
101,354731,354604,0,0,-0.201912,-0.073925,-9.887342,-0.306701,1.495042,-0.299515,-3.617663,28.382318,-41.347561,-1355.000000,1445.000000,-2829.000000,86.360598,-1.082981,114.956114,0.397473,0.362066,-0.580668,0.611351,1213.128052,87485.976562,-0.525588,1729.280151,31.500000,34.009048,0,202
101,356873,356775,0,0,-0.200973,-0.061353,-9.884732,-0.644184,1.377774,0.225075,-3.544332,28.307941,-41.289097,-1343.000000,1432.000000,-2825.000000,86.828356,-1.094510,114.181994,0.400154,0.367555,-0.580728,0.606248,1213.487915,87482.132812,-0.149626,1729.280151,31.500000,34.013680,0,202
101,358945,358857,0,0,-0.202568,-0.066748,-9.862234,0.004399,2.120921,-0.303776,-3.501556,28.468132,-41.040630,-1336.000000,1460.000000,-2808.000000,86.437191,-0.869822,113.840122,0.402101,0.369115,-0.576790,0.607770,1213.202148,87485.179688,-0.810357,1729.280151,31.500000,34.027576,0,202
101,361020,360931,0,0,-0.217592,-0.074265,-9.874337,-0.559646,1.641824,0.074133,-3.574886,28.336548,-41.245251,-1348.000000,1437.000000,-2822.000000,86.751920,-0.697694,113.385040,0.402632,0.373429,-0.576388,0.605159,1213.677490,87480.117188,0.371333,1729.280151,31.625000,34.046104,0,202
101,363097,362984,0,0,-0.216071,-0.066525,-9.874167,-0.368775,2.581015,0.152804,-3.733770,28.319386,-41.449867,-1374.000000,1434.000000,-2836.000000,86.927462,-0.945407,113.358860,0.403433,0.372860,-0.578082,0.603357,1213.507202,87481.929688,-0.406344,1729.280151,31.625000,34.078529,0,202
101,365178,365059,0,0,-0.206692,-0.068438,-9.878654,0.480692,1.829499,0.017628,-3.538221,28.262175,-42.326805,-1342.000000,1424.000000,-2896.000000,86.800448,-0.878210,113.090659,0.404925,0.374120,-0.576308,0.603275,1213.516235,87481.835938,0.212910,1729.280151,31.625000,34.106323,0,202
101,367260,367139,0,0,-0.204243,-0.054290,-9.879339,0.240455,1.100690,-0.278212,-3.422114,28.645487,-41.230633,-1323.000000,1491.000000,-2821.000000,86.606013,-0.969781,112.842819,0.407319,0.374189,-0.574792,0.603067,1213.490112,87482.109375,-0.703731,1729.280151,31.625000,34.134113,0,202
101,369342,369192,0,0,-0.217961,-0.063072,-9.876594,0.021517,2.455586,-0.394545,-3.697104,28.439526,-41.844490,-1368.000000,1455.000000,-2863.000000,86.671679,-0.841201,113.065428,0.405294,0.373989,-0.575419,0.603957,1213.788330,87478.929688,0.351410,1729.280151,31.750000,34.138748,0,202
101,371421,371269,0,0,-0.195432,-0.097697,-9.873490,0.843783,2.119140,0.703316,-3.587108,28.290777,-41.800644,-1350.000000,1429.000000,-2860.000000,86.607769,-0.868712,112.830060,0.406879,0.374797,-0.574409,0.603351,1213.646362,87480.445312,0.063826,1729.280151,31.625000,34.171173,0,202
101,373556,373407,0,0,-0.152797,-0.200848,-10.624773,-0.190079,1.841933,5.118042,-3.862099,28.405199,-42.078339,-1395.000000,1449.000000,-2879.000000,86.650703,-0.855452,112.834869,0.406647,0.374995,-0.574604,0.603198,1213.330566,87483.812500,-0.130308,1729.280151,31.750000,34.198963,0,202
101,375634,375483,0,0,-0.185213,-0.106965,-9.877584,-1.666921,1.763351,-3.599265,-3.648217,28.330826,-42.429115,-1360.000000,1436.000000,-2903.000000,86.509523,-1.082544,111.794808,0.413691,0.378486,-0.571238,0.599414,1213.610107,87480.835938,-0.593930,1729.280151,31.625000,34.208229,0,202
101,377713,377561,0,0,-0.163244,-0.086508,-9.882640,-1.216209,1.702723,0.194896,-3.507666,28.210682,-42.166035,-1337.000000,1415.000000,-2885.000000,86.452054,-0.967391,112.754750,0.408273,0.374095,-0.573686,0.603533,1213.374756,87483.343750,-0.650644,1729.280151,31.625000,34.226757,0,202
101,379795,379705,0,0,-0.150001,-0.097922,-9.874932,0.218463,1.671028,-0.452752,-3.477111,28.239288,-42.107571,-1332.000000,1420.000000,-2881.000000,86.516005,-1.036483,112.659797,0.408906,0.374431,-0.573952,0.602642,1213.489624,87482.117188,-0.196480,1729.280151,31.750000,34.263813,0,202
101,381879,381758,0,0,-0.160669,-0.087878,-9.876921,1.032835,1.586675,-0.808686,-3.501556,28.267897,-40.806782,-1336.000000,1425.000000,-2792.000000,86.141055,-0.626711,112.635844,0.408234,0.375394,-0.570466,0.605801,1213.925903,87477.468750,0.105193,1729.280151,31.750000,34.268444,0,202
101,384025,383946,0,0,-0.147683,-0.095059,-9.875642,0.219147,1.591348,0.081570,-3.642107,28.405199,-42.326805,-1359.000000,1449.000000,-2896.000000,86.081912,-0.538141,112.230800,0.410131,0.377667,-0.568510,0.604945,1213.631104,87480.609375,-0.569758,1729.280151,31.750000,34.296238,0,202
101,386081,385932,0,0,-0.149011,-0.095497,-9.879615,1.023049,2.091912,0.070780,-3.800990,28.422363,-42.019878,-1385.000000,1452.000000,-2875.000000,86.171087,-0.813882,111.800375,0.413460,0.378660,-0.568534,0.602028,1213.783325,87478.984375,0.294594,1729.280151,31.750000,34.319397,0,202
101,388140,388058,0,0,-0.152218,-0.095070,-9.882470,0.586554,1.511920,-0.574119,-3.611552,28.685534,-41.610641,-1354.000000,1498.000000,-2847.000000,86.345578,-0.562784,111.570894,0.412851,0.381755,-0.567799,0.601184,1213.573364,87481.226562,-0.609683,1729.280151,31.875000,34.351822,0,202
101,390255,390135,0,0,-0.163500,-0.090394,-9.881577,0.614509,1.826561,-0.712572,-3.409892,28.462410,-41.464485,-1321.000000,1459.000000,-2837.000000,86.320218,-0.399979,111.182297,0.414173,0.384444,-0.565786,0.600459,1213.393433,87483.140625,-0.251401,1729.280151,31.750000,34.393509,0,202
101,392316,392199,0,0,-0.135715,-0.109659,-9.882360,0.052959,2.112930,0.175817,-3.623773,28.462410,-41.990646,-1356.000000,1459.000000,-2873.000000,86.385815,-0.739868,111.055816,0.416283,0.383517,-0.566920,0.598520,1213.792847,87478.882812,0.415856,1729.280151,31.875000,34.412037,0,202
101,394375,394247,0,0,-0.151204,-0.099801,-9.886873,0.442946,2.040524,0.107208,-3.550443,28.628323,-41.683720,-1344.000000,1488.000000,-2852.000000,86.392406,-0.826841,111.203341,0.415917,0.382352,-0.567757,0.598726,1213.748779,87479.351562,0.458764,1729.280151,31.875000,34.444458,0,202
101,396438,396311,0,0,-0.168547,-0.096631,-9.865688,-0.174751,1.792693,0.267124,-3.684883,28.536785,-41.040630,-1366.000000,1472.000000,-2808.000000,86.631087,-0.682826,110.720823,0.416926,0.386366,-0.566869,0.596284,1213.642334,87480.484375,0.449768,1729.280151,31.875000,34.476883,0,202
101,398500,398357,0,0,-0.153052,-0.096107,-9.877636,0.312983,2.155338,0.540338,-3.611552,28.576834,-41.318329,-1354.000000,1479.000000,-2827.000000,86.656652,-0.804390,110.638225,0.417865,0.386230,-0.567159,0.595439,1213.596558,87480.976562,-0.192511,1729.280151,32.000000,34.504673,0,202
101,399702,399589,0,0,-0.141636,-0.106219,-9.874566,0.033062,1.327393,-0.163899,-3.654328,28.645487,-42.341419,-1361.000000,1491.000000,-2897.000000,86.674663,-1.044364,110.604723,0.419153,0.385203,-0.567997,0.594399,1213.378174,87483.304688,-0.093114,1729.280151,31.875000,34.532467,1,202
101,399865,399668,0,0,-0.164058,-0.091956,-9.867421,0.290353,1.443282,0.042310,-3.917097,28.582554,-42.648350,-1404.000000,1480.000000,-2918.000000,86.609722,-1.018241,110.610214,0.419215,0.385075,-0.567585,0.594831,1213.176147,87485.460938,0.033980,1729.280151,31.875000,34.546360,1,202
101,400031,399932,0,0,-0.174401,-0.191710,-9.933429,-0.344777,1.572158,-0.145791,-3.953763,28.536785,-42.180649,-1410.000000,1472.000000,-2886.000000,86.568440,-1.053010,110.656475,0.419283,0.384512,-0.567650,0.595085,1213.117310,87486.085938,-0.260416,1729.280151,31.875000,34.495411,1,202
101,400256,400012,0,0,-0.141185,-0.112353,-9.884363,0.439216,1.922190,0.176657,-3.819323,28.616880,-42.166035,-1388.000000,1486.000000,-2885.000000,86.338229,-1.042366,110.686166,0.419849,0.383579,-0.566515,0.596370,1212.862061,87488.804688,-0.920683,1729.280151,31.875000,34.435196,1,202
101,400421,400328,0,0,-0.150292,-0.113252,-9.872266,1.093790,1.520936,0.350076,-3.666550,28.473852,-41.669102,-1363.000000,1461.000000,-2851.000000,86.138214,-0.962369,110.774829,0.419665,0.382830,-0.565483,0.597957,1212.613647,87491.453125,-0.511477,1729.280151,31.875000,34.393509,1,202
101,400590,400408,0,0,-0.148480,-0.100704,-9.876878,-0.687598,2.020300,0.052664,-3.654328,28.450970,-41.669102,-1361.000000,1457.000000,-2851.000000,86.053369,-1.088722,110.782096,0.420526,0.381816,-0.565517,0.597969,1213.039795,87486.914062,0.350347,1729.280151,31.875000,34.449093,1,202
101,400757,400545,0,0,-0.159542,-0.091339,-9.869040,0.288992,1.878573,-0.030325,-3.745992,28.422363,-42.151417,-1376.000000,1452.000000,-2884.000000,85.950718,-1.082866,110.777438,0.420864,0.381493,-0.564944,0.598479,1212.840576,87489.039062,-0.165093,1729.280151,31.875000,34.412037,1,202
101,400923,400823,0,0,-0.132863,-0.181407,-9.931726,-1.086457,1.625749,0.379782,-3.727659,28.519621,-41.917568,-1373.000000,1469.000000,-2868.000000,85.960465,-1.159218,110.853950,0.420803,0.380747,-0.565523,0.598450,1213.326050,87483.859375,1.956718,1729.280151,31.875000,34.439827,1,202
101,401093,400908,0,0,-0.154687,-0.097091,-9.878284,-0.603827,1.081358,0.217570,-3.819323,28.548229,-41.902954,-1388.000000,1474.000000,-2867.000000,85.993004,-1.227831,110.886543,0.420858,0.380343,-0.566046,0.598173,1212.975220,87487.601562,1.037583,1729.280151,31.875000,34.421299,1,202
101,401266,401184,0,0,-0.130246,-0.121427,-9.882233,1.192115,1.543368,-0.186388,-3.605441,28.582554,-41.727562,-1353.000000,1480.000000,-2855.000000,85.918063,-1.190307,110.891809,0.420897,0.380240,-0.565538,0.598691,1212.829834,87489.156250,0.488414,1729.280151,32.000000,34.398140,1,202
101,401442,401264,0,0,-0.188436,-0.085994,-9.874929,-0.562841,1.630627,0.310876,-3.855988,28.588274,-41.932182,-1394.000000,1481.000000,-2869.000000,85.888782,-1.277303,110.935509,0.421188,0.379456,-0.565841,0.598698,1213.000732,87487.328125,0.962443,1729.280151,32.000000,34.458355,1,202
101,401671,401415,0,0,-0.151147,-0.109084,-9.881606,-0.803235,0.921025,0.680430,-3.684883,28.508181,-41.786026,-1366.000000,1467.000000,-2859.000000,85.919948,-1.419481,111.072789,0.421059,0.378138,-0.566963,0.598561,1212.747192,87490.031250,-0.734775,1729.280151,32.000000,34.421299,1,202
101,401844,401744,0,0,-0.147875,-0.168970,-9.932353,0.219204,1.725477,-0.278466,-3.831545,28.433807,-41.435253,-1390.000000,1454.000000,-2835.000000,85.825726,-1.372515,111.047633,0.421273,0.378165,-0.566221,0.599096,1212.885864,87488.554688,0.311997,1729.280151,32.000000,34.444458,1,202
101,402024,401841,0,0,-0.130110,-0.114781,-9.880163,0.361811,1.903860,-0.575715,-3.623773,28.645487,-42.063725,-1356.000000,1491.000000,-2878.000000,85.666097,-1.358691,110.952462,0.422231,0.378121,-0.565023,0.599581,1212.914673,87488.242188,0.378810,1729.280151,32.000000,34.407406,1,202
101,402202,401986,0,0,-0.154367,-0.094062,-9.878998,-0.617183,1.796353,0.722519,-3.849878,28.502459,-41.552177,-1393.000000,1466.000000,-2843.000000,85.620567,-1.456325,111.052551,0.422330,0.376941,-0.565462,0.599840,1212.623901,87491.343750,-0.289502,1729.280151,32.000000,34.384243,1,202
101,402379,402279,0,0,-0.131802,-0.193023,-9.930773,-0.375087,0.852570,-0.628153,-3.849878,28.376596,-41.932182,-1393.000000,1444.000000,-2869.000000,85.659868,-1.491160,111.020258,0.422538,0.377060,-0.565686,0.599407,1213.016602,87487.156250,0.901709,1729.280151,31.875000,34.444458,1,202
101,402560,402367,0,0,-0.151013,-0.096512,-9.880284,1.024484,1.562557,0.475530,-3.697104,28.325104,-41.566792,-1368.000000,1435.000000,-2844.000000,85.544513,-1.364357,111.089578,0.421941,0.376967,-0.564858,0.600666,1212.949829,87487.875000,0.298508,1729.280151,31.875000,34.407406,1,202
101,402742,402508,0,0,-0.150124,-0.114402,-9.883340,-0.038485,2.003499,-0.108370,-3.788768,28.330826,-41.946800,-1383.000000,1436.000000,-2870.000000,85.446677,-1.397002,111.074094,0.422501,0.376509,-0.564410,0.600979,1212.799805,87489.468750,0.046049,1729.280151,31.875000,34.393509,1,202
101,402922,402822,0,0,-0.173290,-0.182760,-9.944610,-0.698254,1.724242,0.222081,-3.770435,28.405199,-41.552177,-1380.000000,1449.000000,-2843.000000,85.378089,-1.451858,111.078957,0.422966,0.375940,-0.564262,0.601148,1212.998413,87487.351562,0.664230,1729.280151,31.875000,34.430565,1,202
101,403163,402907,0,0,-0.156887,-0.115137,-9.893448,0.253486,1.724570,0.198926,-3.721548,28.548229,-41.552177,-1372.000000,1474.000000,-2843.000000,85.211780,-1.453003,111.115587,0.423324,0.375139,-0.563513,0.602097,1212.927734,87488.109375,-0.076021,1729.280151,31.875000,34.402771,1,202
101,403341,403241,0,0,-0.153828,-0.174513,-9.937562,-0.528346,1.382886,-0.216637,-3.758214,28.433807,-42.370651,-1378.000000,1454.000000,-2899.000000,85.270868,-1.431734,111.024383,0.423507,0.375920,-0.563449,0.601542,1212.871094,87488.710938,0.202343,1729.280151,31.875000,34.462986,1,202
101,403528,403322,0,0,-0.141571,-0.108325,-9.894270,0.907393,1.681928,-0.199052,-3.629884,28.496737,-41.639870,-1357.000000,1465.000000,-2849.000000,85.161777,-1.328137,110.994529,0.423522,0.376216,-0.562407,0.602321,1212.959351,87487.765625,0.154999,1729.280151,31.875000,34.416668,1,202
101,403710,403467,0,0,-0.121118,-0.098634,-9.881660,0.217482,1.773195,0.196760,-3.788768,28.399477,-41.859104,-1383.000000,1448.000000,-2864.000000,85.099554,-1.319995,111.020654,0.423550,0.375901,-0.562136,0.602751,1212.984253,87487.507812,0.059133,1729.280151,31.875000,34.407406,1,202
101,403941,403859,0,0,-0.180184,-0.222201,-9.951057,0.568633,1.615778,-0.146054,-3.568776,28.422363,-41.712948,-1347.000000,1452.000000,-2854.000000,84.790870,-1.224575,111.036862,0.424016,0.375190,-0.560221,0.604646,1213.103149,87486.234375,0.635828,1729.280151,32.000000,34.435196,1,202
101,404097,403939,0,0,-0.174306,-0.126860,-9.892285,1.087698,1.259875,-0.705074,-3.807101,28.485296,-41.727562,-1386.000000,1463.000000,-2855.000000,84.768166,-1.084747,110.946178,0.423897,0.376296,-0.559300,0.604895,1212.626099,87491.320312,-0.417592,1729.280151,32.000000,34.370350,1,202
101,404254,404076,0,0,-0.163091,-0.098755,-9.882764,0.850196,1.959839,-0.511897,-3.660439,28.239288,-42.911427,-1362.000000,1421.000000,-2937.000000,84.666424,-1.013810,110.877282,0.424254,0.376635,-0.558280,0.605376,1213.084473,87486.437500,0.140399,1729.280151,32.000000,34.398140,1,202
101,404413,404206,0,0,-0.116075,-0.118268,-9.884610,0.445369,2.615798,0.061093,-3.544332,28.393759,-42.253727,-1343.000000,1447.000000,-2891.000000,84.506563,-1.022870,110.884795,0.424782,0.375957,-0.557492,0.606152,1212.953735,87487.828125,-0.096371,1729.280151,32.000000,34.421299,1,202
101,404626,404544,0,0,-0.135325,-0.203881,-9.932768,-0.376577,1.548909,0.302681,-3.574886,28.519621,-42.239113,-1348.000000,1469.000000,-2890.000000,84.424779,-1.069287,110.888654,0.425253,0.375387,-0.557240,0.606407,1213.452271,87482.515625,0.416826,1729.280151,32.000000,34.486145,1,202
101,404786,404624,0,0,-0.134062,-0.135710,-9.898099,0.592508,2.340286,-0.106968,-3.623773,28.479574,-41.581409,-1371.000000,1488.000000,-2845.000000,84.296651,-1.043207,110.874836,0.425621,0.375118,-0.556422,0.607066,1212.558228,87492.046875,-0.202357,1729.280151,32.000000,34.393509,1,202
101,404948,404771,0,0,-0.171313,-0.106344,-9.879592,-0.081009,1.873446,0.284191,-3.550443,28.513901,-41.552177,-1344.000000,1468.000000,-2843.000000,84.243581,-1.090225,110.918147,0.425790,0.374458,-0.556453,0.607327,1213.124023,87486.015625,-0.112504,1729.280151,32.000000,34.412037,1,202
101,405111,404905,0,0,-0.145183,-0.101412,-9.881138,-0.960886,2.027283,0.213228,-3.538221,28.502459,-42.399883,-1342.000000,1466.000000,-2901.000000,84.234223,-1.240761,110.948739,0.426378,0.373467,-0.557048,0.606978,1212.786865,87489.609375,-0.421486,1729.280151,32.000000,34.416668,1,202
101,405271,405172,0,0,-0.108102,-0.183578,-9.936013,0.349806,1.756113,-0.166600,-3.690994,28.565392,-42.516808,-1367.000000,1477.000000,-2909.000000,84.304274,-1.177212,110.876920,0.426226,0.374418,-0.556955,0.606585,1213.341309,87483.695312,0.093944,1729.280151,32.000000,34.486145,1,202
101,405434,405258,0,0,-0.131849,-0.110919,-9.892809,0.669326,2.049711,0.313090,-3.715438,28.410921,-42.063725,-1371.000000,1450.000000,-2878.000000,84.203221,-1.129979,110.920114,0.426101,0.374086,-0.556390,0.607396,1212.940796,87487.968750,0.855104,1729.280151,32.000000,34.462986,1,202
101,405600,405389,0,0,-0.172255,-0.106053,-9.890347,-0.167935,1.464216,-0.074606,-3.739881,28.370874,-42.268341,-1375.000000,1443.000000,-2892.000000,84.229169,-1.156383,110.913188,0.426180,0.374074,-0.556600,0.607155,1213.026733,87487.054688,0.214492,1729.280151,32.000000,34.430565,1,202
101,405766,405667,0,0,-0.174083,-0.201328,-9.936874,-1.125807,1.914147,0.342863,-3.617663,28.502459,-42.049110,-1355.000000,1466.000000,-2877.000000,84.206445,-1.222201,111.016385,0.426022,0.373135,-0.557054,0.607427,1213.142700,87485.812500,0.642034,1729.280151,32.000000,34.490780,1,202
101,405993,405747,0,0,-0.138237,-0.115651,-9.880772,0.963894,2.288743,0.215038,-3.849878,28.388037,-42.589886,-1393.000000,1446.000000,-2914.000000,83.946037,-1.144175,111.053535,0.426299,0.372405,-0.555511,0.609092,1213.021118,87487.117188,-0.503646,1729.280151,32.000000,34.435196,1,202
101,406164,406072,0,0,-0.164806,-0.101454,-9.879089,0.334933,1.406430,0.222306,-3.635995,28.433807,-42.341419,-1358.000000,1454.000000,-2897.000000,84.061645,-1.209432,111.131057,0.425823,0.372108,-0.556613,0.608600,1213.005859,87487.273438,0.274472,1729.280151,32.000000,34.412037,1,202
101,406336,406151,0,0,-0.151614,-0.087961,-9.882367,0.066486,1.889952,-0.127238,-3.617663,28.273615,-41.727562,-1355.000000,1426.000000,-2855.000000,84.018410,-1.232890,111.114638,0.426163,0.371901,-0.556415,0.608670,1213.142700,87485.812500,0.649879,1729.280151,32.000000,34.490780,1,202
101,406506,406290,0,0,-0.140320,-0.111606,-9.880382,0.002642,2.528950,-0.197522,-3.825433,28.296499,-42.151417,-1389.000000,1430.000000,-2884.000000,83.899134,-1.290213,111.087501,0.426967,0.371280,-0.555900,0.608956,1213.018311,87487.140625,0.209262,1729.280151,32.000000,34.449093,1,202
101,406677,406578,0,0,-0.113493,-0.174804,-9.925043,0.530561,1.190816,-0.002544,-3.831545,28.559669,-41.771412,-1390.000000,1476.000000,-2858.000000,84.019154,-1.255105,111.122649,0.426224,0.371745,-0.556525,0.608622,1213.133057,87485.921875,1.197785,1729.280151,32.000000,34.481514,1,202
101,406852,406672,0,0,-0.135927,-0.109340,-9.887871,1.397844,1.144956,0.305591,-3.953763,28.508181,-41.391407,-1410.000000,1467.000000,-2832.000000,83.980605,-1.059300,111.170789,0.425157,0.372422,-0.555768,0.609645,1212.991699,87487.429688,0.197661,1729.280151,32.000000,34.449093,1,202
101,407028,406811,0,0,-0.132221,-0.110424,-9.884133,0.165211,1.740655,-0.850389,-3.984317,28.410921,-42.122185,-1415.000000,1442.000000,-2864.000000,83.948045,-1.065506,111.054156,0.425913,0.372833,-0.555238,0.609349,1212.988281,87487.460938,-0.004314,1729.280151,32.000000,34.421299,1,202
101,407203,407105,0,0,-0.138371,-0.091919,-9.885234,-0.886210,1.500573,-0.226336,-3.904876,28.365152,-42.253727,-1402.000000,1442.000000,-2891.000000,84.098439,-1.271913,110.951102,0.426957,0.372783,-0.556449,0.607542,1213.078247,87486.507812,0.745547,1729.280151,32.000000,34.481514,1,202
101,407441,407184,0,0,-0.149788,-0.107161,-9.880692,-1.763735,1.481622,0.688311,-3.898765,28.525343,-40.879860,-1367.000000,1447.000000,-2810.000000,84.155451,-1.606788,111.085650,0.427657,0.370539,-0.558396,0.606635,1212.946411,87487.906250,0.041783,1729.280151,32.000000,34.439827,1,202
101,407614,407515,0,0,-0.130557,-0.186020,-9.941086,0.464868,1.231671,-0.378928,-3.770435,28.204964,-41.581409,-1380.000000,1414.000000,-2845.000000,84.221922,-1.510560,111.090746,0.426956,0.371280,-0.558418,0.606655,1213.293823,87484.203125,1.116749,1729.280151,31.875000,34.467621,1,202
101,407809,407595,0,0,-0.121800,-0.130867,-9.899756,0.938328,1.466928,-0.119486,-3.715438,28.531065,-41.859104,-1371.000000,1471.000000,-2864.000000,84.170170,-1.388417,111.074845,0.426624,0.371822,-0.557652,0.607261,1213.001221,87487.320312,1.034578,1729.280151,31.875000,34.439827,1,202
101,407988,407888,0,0,-0.143216,-0.185103,-9.940210,0.140078,1.754898,-0.921987,-3.697104,28.382318,-41.055248,-1368.000000,1445.000000,-2809.000000,84.217838,-1.303873,110.913878,0.426918,0.373237,-0.557076,0.606715,1213.324341,87483.882812,1.109509,1729.280151,31.875000,34.495411,1,202
101,408170,407969,0,0,-0.132987,-0.117280,-9.890823,-1.272517,1.053914,0.370930,-3.642107,28.388037,-41.055248,-1388.000000,1454.000000,-2817.000000,84.332475,-1.453986,110.972221,0.426954,0.372574,-0.558415,0.605867,1212.929443,87488.093750,0.947438,1729.280151,31.875000,34.449093,1,202
101,408349,408251,0,0,-0.142602,-0.093975,-9.879383,0.859736,1.213987,0.091838,-3.678771,28.250731,-41.596024,-1365.000000,1422.000000,-2846.000000,84.399562,-1.366875,111.027805,0.426025,0.373020,-0.558636,0.606041,1212.927734,87488.109375,0.204632,1729.280151,31.875000,34.444458,1,202
101,408533,408331,0,0,-0.145096,-0.101509,-9.877947,0.916194,1.616629,0.316820,-3.617663,28.473852,-41.932182,-1355.000000,1461.000000,-2869.000000,84.332906,-1.262891,111.073049,0.425504,0.373110,-0.558056,0.606885,1212.975220,87487.601562,0.294717,1729.280151,31.875000,34.504673,1,202
101,408716,408616,0,0,-0.164180,-0.188621,-9.938655,0.683875,1.815944,-0.075713,-3.745992,28.525343,-41.639870,-1376.000000,1470.000000,-2849.000000,84.371380,-1.166673,111.061485,0.424979,0.373826,-0.557875,0.606980,1213.091187,87486.367188,0.422638,1729.280151,32.000000,34.458355,1,202
101,408955,408705,0,0,-0.144680,-0.109900,-9.887060,1.007118,1.668208,0.393938,-3.648217,28.571114,-41.332943,-1360.000000,1478.000000,-2826.000000,84.189629,-1.040081,111.137881,0.424560,0.373460,-0.556702,0.608572,1213.249634,87484.671875,0.800760,1729.280151,32.000000,34.500042,1,202
101,409136,409037,0,0,-0.140208,-0.183682,-9.935536,-0.345852,1.786636,-0.231137,-3.843766,28.450970,-41.128326,-1392.000000,1457.000000,-2814.000000,84.258614,-1.078076,111.085964,0.424793,0.373764,-0.557037,0.607917,1212.724609,87490.273438,-0.506403,1729.280151,32.000000,34.458355,1,202
101,409321,409117,0,0,-0.149694,-0.114494,-9.882490,1.083534,1.531632,0.879912,-3.782657,28.668369,-41.332943,-1382.000000,1495.000000,-2828.000000,84.199717,-0.955448,111.211059,0.423732,0.373596,-0.556688,0.609078,1213.138184,87485.867188,0.030921,1729.280151,32.000000,34.495411,1,202
101,409557,409463,0,0,-0.152525,-0.185578,-9.942106,-0.682610,2.192355,-0.202718,-3.562664,28.439526,-42.092957,-1346.000000,1455.000000,-2880.000000,84.008308,-1.072298,111.238612,0.424769,0.372126,-0.556183,0.609718,1212.932251,87488.062500,-0.615511,1729.280151,32.000000,34.458355,1,202
101,409713,409543,0,0,-0.152388,-0.101871,-9.901764,0.897510,1.782604,0.049725,-3.525999,28.656929,-41.669102,-1340.000000,1493.000000,-2851.000000,83.954254,-0.990059,111.246481,0.424509,0.372330,-0.555623,0.610285,1212.911865,87488.273438,-0.079024,1729.280151,32.000000,34.439827,1,202
101,409869,409688,0,0,-0.163093,-0.097598,-9.886029,0.301287,1.871669,0.222627,-3.843766,28.473852,-41.259869,-1392.000000,1461.000000,-2823.000000,83.897741,-0.989873,111.279949,0.424513,0.371959,-0.555430,0.610683,1212.956055,87487.804688,0.311994,1729.280151,32.000000,34.449093,1,202
101,410028,409818,0,0,-0.141347,-0.096110,-9.874087,-0.050160,1.671774,0.554094,-3.831545,28.422363,-41.537563,-1390.000000,1452.000000,-2842.000000,83.901306,-1.019313,111.355320,0.424241,0.371449,-0.555800,0.610847,1213.029541,87487.023438,-0.163680,1729.280151,32.000000,34.439827,1,202
101,410188,410089,0,0,-0.150321,-0.197740,-9.943221,0.954392,1.896613,-0.457501,-3.917097,28.502459,-40.923706,-1404.000000,1466.000000,-2800.000000,83.912016,-0.940060,111.303766,0.424101,0.372165,-0.555403,0.610868,1213.452759,87482.507812,0.772311,1729.280151,32.000000,34.509308,1,202
101,410408,410168,0,0,-0.148486,-0.107280,-9.898447,-0.842712,1.323465,-0.251077,-3.880432,28.399477,-40.952938,-1398.000000,1448.000000,-2802.000000,83.946713,-1.110875,111.261152,0.425033,0.371580,-0.556068,0.609972,1213.079956,87486.484375,0.398041,1729.280151,32.000000,34.467621,1,202
101,410568,410484,0,0,-0.139229,-0.091238,-9.883108,-0.176931,1.544201,0.368213,-3.813212,28.405199,-41.756798,-1387.000000,1449.000000,-2857.000000,84.074240,-1.112407,111.264868,0.424607,0.372027,-0.556764,0.609361,1212.929443,87488.093750,0.107558,1729.280151,32.000000,34.449093,1,202
101,410727,410563,0,0,-0.138882,-0.090854,-9.876812,0.692274,1.550509,0.397651,-3.855988,28.370874,-41.259869,-1384.000000,1446.000000,-2853.000000,84.051529,-1.045194,111.319024,0.424070,0.372041,-0.556576,0.609897,1213.377563,87483.312500,0.740190,1729.280151,32.000000,34.509308,1,202
101,410890,410696,0,0,-0.136043,-0.094325,-9.890974,0.688610,2.787774,0.465163,-3.697104,28.422363,-41.508331,-1368.000000,1452.000000,-2840.000000,83.879149,-1.038273,111.379922,0.424272,0.371145,-0.555830,0.610982,1213.352661,87483.578125,0.117946,1729.280151,32.000000,34.476883,1,202
101,411054,410961,0,0,-0.151056,-0.107317,-9.882258,0.170132,0.996267,-0.377000,-3.855988,28.365152,-41.654488,-1394.000000,1442.000000,-2850.000000,84.056181,-0.988837,111.346734,0.423638,0.372227,-0.556487,0.610165,1213.178345,87485.437500,0.699627,1729.280151,32.000000,34.472252,1,202
101,411222,411040,0,0,-0.149094,-0.108806,-9.868856,0.099250,1.292191,-0.624441,-3.758214,28.428085,-41.727562,-1378.000000,1453.000000,-2855.000000,84.088576,-0.981925,111.265113,0.423934,0.372781,-0.556369,0.609729,1213.397339,87483.101562,0.738841,1729.280151,32.000000,34.527832,1,202
101,411390,411176,0,0,-0.138663,-0.103332,-9.878195,-0.005907,1.183921,-0.087863,-3.648217,28.450970,-40.952938,-1360.000000,1457.000000,-2802.000000,84.136756,-0.984455,111.256439,0.423835,0.372987,-0.556606,0.609455,1213.151733,87485.718750,-0.300307,1729.280151,32.000000,34.495411,1,202
101,411556,411456,0,0,-0.148437,-0.176530,-9.939468,-0.349396,1.936856,0.144439,-3.580997,28.456692,-41.055248,-1349.000000,1442.000000,-2819.000000,84.176009,-1.057997,111.266336,0.424008,0.372689,-0.557113,0.609054,1213.154663,87485.687500,-0.136143,1729.280151,32.000000,34.546360,1,202
101,411784,411536,0,0,-0.148455,-0.109220,-9.886815,-0.061797,2.238109,0.558852,-3.770435,28.616880,-41.610641,-1380.000000,1486.000000,-2847.000000,83.994449,-1.157087,111.369772,0.424521,0.370981,-0.556841,0.609988,1213.075928,87486.531250,-0.323616,1729.280151,32.000000,34.495411,1,202
101,411954,411858,0,0,-0.166507,-0.110201,-9.879483,0.321877,2.127649,-0.519169,-3.788768,28.325104,-41.669102,-1383.000000,1435.000000,-2851.000000,84.012522,-1.092118,111.317843,0.424428,0.371650,-0.556534,0.609925,1213.064697,87486.648438,-0.255883,1729.280151,32.000000,34.462986,1,202
101,412138,411936,0,0,-0.149415,-0.088719,-9.886875,-0.805501,2.299043,-0.174044,-3.745992,28.325104,-41.259869,-1376.000000,1435.000000,-2823.000000,83.965674,-1.245931,111.295528,0.425434,0.370756,-0.556768,0.609555,1213.342529,87483.687500,0.600222,1729.280151,32.000000,34.527832,1,202
101,412306,412206,0,0,-0.137143,-0.187546,-9.940552,0.177097,1.243469,-0.256146,-3.886542,28.336548,-41.859104,-1399.000000,1437.000000,-2864.000000,84.047219,-1.162785,111.254014,0.424993,0.371708,-0.556767,0.609283,1213.446045,87482.578125,0.869881,1729.280151,32.000000,34.550991,1,202
101,412476,412286,0,0,-0.136965,-0.105172,-9.906946,0.694523,1.626654,0.371586,-3.776546,28.479574,-42.166035,-1381.000000,1462.000000,-2885.000000,84.010883,-1.095057,111.305562,0.424513,0.371688,-0.556496,0.609878,1213.189087,87485.320312,0.569324,1729.280151,32.000000,34.504673,1,202
101,412648,412554,0,0,-0.131683,-0.102649,-9.871675,-0.301747,2.329113,0.143046,-3.739881,28.485296,-41.142941,-1375.000000,1463.000000,-2815.000000,83.968010,-1.218989,111.297605,0.425287,0.370900,-0.556690,0.609641,1213.395142,87483.125000,0.360745,1729.280151,31.875000,34.481514,1,202
101,412845,412633,0,0,-0.125949,-0.110042,-9.887861,-0.502691,1.643290,-0.524114,-3.831545,28.290777,-42.472961,-1390.000000,1429.000000,-2906.000000,83.979450,-1.301287,111.227179,0.426018,0.370841,-0.556819,0.609048,1213.355469,87483.546875,0.862683,1729.280151,31.875000,34.546360,1,202
101,413019,412919,0,0,-0.149521,-0.195615,-9.937954,-0.841463,1.954142,0.253838,-4.051538,28.571114,-41.391407,-1426.000000,1478.000000,-2832.000000,84.061829,-1.474321,111.266903,0.426367,0.370021,-0.558009,0.608214,1213.531494,87481.671875,0.671137,1729.280151,31.875000,34.555626,1,202
101,413253,413000,0,0,-0.150172,-0.109386,-9.888383,-0.140739,1.917464,-1.011916,-3.898765,28.496737,-41.610641,-1401.000000,1465.000000,-2847.000000,83.940006,-1.553746,111.075576,0.428154,0.370069,-0.557031,0.607825,1213.261597,87484.546875,0.076727,1729.280151,31.875000,34.495411,1,202
101,413429,413329,0,0,-0.142666,-0.094757,-9.883977,0.675095,1.305431,0.017018,-3.874321,28.388037,-42.092957,-1397.000000,1446.000000,-2880.000000,84.002256,-1.479455,111.143208,0.427240,0.370374,-0.557312,0.608025,1213.331177,87483.804688,0.474998,1729.280151,31.875000,34.537098,1,202
101,413633,413550,0,0,-0.140035,-0.102925,-9.888288,-0.504691,1.546528,-0.754203,-3.855988,28.376596,-41.800644,-1394.000000,1444.000000,-2860.000000,84.091957,-1.576710,111.136071,0.427452,0.370219,-0.558114,0.607234,1213.065186,87486.640625,-0.425394,1729.280151,31.875000,34.486145,1,202
101,413811,413633,0,0,-0.130735,-0.103779,-9.884919,0.822656,1.936035,-0.103800,-4.014872,28.479574,-42.282955,-1420.000000,1462.000000,-2893.000000,83.991553,-1.494951,111.120607,0.427468,0.370360,-0.557238,0.607941,1213.337891,87483.734375,0.241115,1729.280151,31.875000,34.555626,1,202
101,413992,413772,0,0,-0.123567,-0.087671,-9.886009,-0.021531,2.485001,-0.316172,-3.831545,28.565392,-41.800644,-1390.000000,1477.000000,-2860.000000,83.874286,-1.551911,111.075507,0.428358,0.369834,-0.556675,0.608150,1213.194214,87485.265625,0.593775,1729.280151,32.000000,34.500042,1,202
101,414169,414070,0,0,-0.149218,-0.184169,-9.943621,1.493947,1.949488,-0.585506,-3.855988,28.582554,-41.201405,-1394.000000,1480.000000,-2819.000000,83.722048,-1.334760,110.936622,0.428555,0.371110,-0.554632,0.609101,1213.249634,87484.671875,0.145696,1729.280151,32.000000,34.541729,1,202
101,414353,414157,0,0,-0.146303,-0.112786,-9.888890,0.461369,1.629838,0.152567,-3.898765,28.508181,-41.362175,-1401.000000,1467.000000,-2830.000000,83.681709,-1.289649,110.961204,0.428340,0.371083,-0.554333,0.609539,1213.111084,87486.148438,0.200188,1729.280151,32.000000,34.500042,1,202
101,414535,414299,0,0,-0.161991,-0.111958,-9.876125,-0.736307,1.834802,0.500128,-3.739881,28.388037,-41.873722,-1375.000000,1446.000000,-2865.000000,83.699938,-1.399864,111.032416,0.428427,0.370212,-0.555060,0.609347,1213.154053,87485.695312,-0.116835,1729.280151,32.000000,34.481514,1,202
101,414776,414692,0,0,-0.153917,-0.176781,-9.932689,-1.074010,1.615102,-0.130961,-3.562664,28.416643,-42.078339,-1346.000000,1451.000000,-2879.000000,83.758651,-1.739631,110.979386,0.430132,0.368854,-0.556429,0.607718,1213.268311,87484.476562,0.448548,1729.280151,32.000000,34.513939,1,202
101,414963,414772,0,0,-0.165937,-0.100268,-9.885863,-0.872631,1.987388,-0.231766,-3.758214,28.519621,-42.136803,-1378.000000,1469.000000,-2883.000000,83.750946,-1.874359,110.948302,0.430961,0.368248,-0.556774,0.607183,1212.694092,87490.601562,-0.787654,1729.280151,32.000000,34.449093,1,202
101,415200,415116,0,0,-0.135958,-0.095311,-9.890802,-1.011337,1.619337,-1.373986,-3.758214,28.576834,-42.005260,-1378.000000,1479.000000,-2874.000000,83.688614,-2.015313,110.689144,0.433200,0.368509,-0.556120,0.606029,1212.867798,87488.742188,-0.435475,1729.280151,32.000000,34.453724,1,202
101,415388,415195,0,0,-0.142267,-0.101117,-9.891514,0.275707,1.756638,0.208598,-3.690994,28.576834,-42.692196,-1367.000000,1479.000000,-2921.000000,83.672754,-1.976335,110.718220,0.432913,0.368519,-0.555988,0.606349,1213.326050,87483.859375,0.353543,1729.280151,32.000000,34.541729,1,202
101,415547,415457,0,0,-0.158228,-0.100097,-9.869494,-0.108859,1.919657,-0.357511,-3.849878,28.445248,-41.581409,-1393.000000,1456.000000,-2845.000000,83.763971,-2.032621,110.659166,0.433197,0.368846,-0.556484,0.605491,1213.154053,87485.695312,0.542823,1729.280151,32.000000,34.523201,1,202
101,415706,415537,0,0,-0.150183,-0.092511,-9.879823,-0.140705,1.831580,-0.609899,-3.831545,28.428085,-42.662964,-1390.000000,1453.000000,-2919.000000,83.755912,-2.047546,110.580114,0.433712,0.369119,-0.556241,0.605181,1213.566528,87481.296875,1.027715,1729.280151,32.000000,34.578785,1,202
