index," checksum",uptime mp,uptime nav,"  errorflag mp",errorflag NAV,"  accel x"," accel y"," accel z"," accelworld x"," accelworld y"," accelworld z"," accelhighg x"," accelhighg y"," accelhighg z"," gyro x"," gyro y"," gyro z"," euler x"," euler y"," euler z"," quat w"," quat x"," quat y"," quat z"," altitude"," presusre"," verticalvel",filtered vvel," maxalt"," altitudeagl"," filtered alt"," imutemp"," barotemp",state,battstate,pyros fired," checksum2\r"
0," 101",44660,44633,1,1,2.292144,-9.554067,0.041502,-0.014925,-0.030605,0.024206,-1.805717,-4.066245,-8.334359,-1.087572,0.293618,1.713126,179.904259,164.882898,-13.335477,0.115212,0.130553,0.016096,0.984593,1861.133545,81310.773438,-0.117987,-0.034294,0.969116,0.234009,0.291253,14.625000,19.692179,0,0.000000,0," 202"
1," 101",46696,46670,1,1,2.286268,-9.571919,0.030875,0.002265,0.002205,0.040220,-0.364140,-4.546771,-7.853833,-0.659648,-0.396967,1.458581,179.804525,164.871245,-13.398564,0.115866,0.130544,0.017036,0.984501,1861.319580,81301.445312,-0.221556,-0.148795,0.969116,0.420044,0.295567,14.625000,19.741932,0,0.000000,0," 202"
2," 101",48779,48748,1,1,2.298873,-9.570833,0.025403,-0.037125,-0.019286,0.041995,-0.364140,-6.949400,-8.334359,-0.581739,0.160175,-0.042893,179.900189,164.772645,-13.242118,0.116187,0.131436,0.016779,0.984349,1861.180420,81306.640625,0.015226,-0.019224,0.969116,0.280884,0.269188,14.625000,19.764547,0,0.000000,0," 202"
3," 101",50866,50830,1,1,2.307552,-9.538298,0.010600,-0.000053,0.010834,0.012456,-0.364140,-5.027297,-9.295410,0.065786,0.660749,-4.019181,179.872335,164.185139,-13.582123,0.117277,0.136477,0.017364,0.983524,1861.450317,81304.132812,1.156461,0.206416,0.969116,0.550781,0.322742,14.625000,19.782639,0,0.000000,0," 202"
4," 101",53021,53010,1,1,2.299041,-9.577226,0.012150,0.022713,0.007257,0.048285,-0.364140,-5.027297,-8.334359,0.208975,-0.310405,0.608486,179.921635,164.237144,-13.615939,0.116450,0.136098,0.016743,0.983685,1861.188477,81307.375000,-0.421329,-0.105519,0.969116,0.288940,0.296478,14.625000,19.805254,0,0.000000,0," 202"
5," 101",55101,55092,1,1,2.309934,-9.543071,0.005762,0.019709,0.006166,0.017635,-1.325191,-6.468874,-6.892781,0.141964,0.654153,-1.327170,179.962193,163.915292,-13.716930,0.118288,0.138865,0.017031,0.983074,1861.228516,81303.210938,0.304479,-0.190957,0.969116,0.328979,0.245305,14.750000,19.845961,0,0.000000,0," 202"
6," 101",57183,57174,1,1,2.294326,-9.570494,0.010103,-0.005345,0.014490,0.040654,-0.844666,-5.507823,-7.853833,0.598307,0.791472,-1.505155,179.845315,163.766462,-13.431522,0.116109,0.140147,0.017153,0.983150,1860.940063,81312.460938,-0.959248,-0.081227,0.969116,0.040527,0.235167,14.625000,19.864052,0,0.000000,0," 202"
7," 101",59270,59260,1,1,2.296280,-9.539268,0.001259,-0.008178,0.009424,0.010748,-0.364140,-5.988348,-9.295410,-0.476147,-1.250470,0.833605,179.923001,163.341624,-13.482609,0.116552,0.143838,0.017186,0.982564,1861.399292,81302.250000,0.620825,0.196675,0.969116,0.499756,0.332965,14.750000,19.877621,0,0.000000,0," 202"
8," 101",61365,61353,1,1,2.296494,-9.544691,0.018699,-0.010060,0.006656,0.016088,-0.844666,-5.507823,-8.814884,0.335974,0.303055,-0.123767,179.829988,163.525466,-13.434971,0.116388,0.142161,0.017852,0.982815,1860.852173,81311.937500,-1.277114,-0.397808,0.969116,-0.047363,0.223746,14.750000,19.913803,0,0.000000,0," 202"
9," 101",63459,63444,1,1,2.302176,-9.558944,0.018729,0.007713,-0.024422,0.031249,-0.844666,-4.546771,-6.892781,0.582957,0.222367,-0.371678,0.041750,16.317517,166.443883,0.116588,0.140831,0.017540,0.982988,1861.048340,81311.531250,-0.206292,-0.143998,0.969116,0.148804,0.219049,14.875000,19.927372,0,0.000000,0," 202"
10," 101",65582,65579,1,1,2.274354,-9.568465,0.000244,0.047642,-0.000364,0.033935,-1.325191,-3.585718,-7.853833,-0.523294,-0.233107,0.812732,0.082680,16.467390,166.340337,0.117593,0.142280,0.016322,0.982681,1861.294189,81300.476562,0.567622,0.103281,0.969116,0.394653,0.219244,14.875000,19.936419,0,0.000000,0," 202"
11," 101",67690,67685,1,1,2.294637,-9.561725,0.010860,0.002735,0.002028,0.032211,-1.325191,-3.585718,-8.334359,-0.641530,-0.726688,0.208914,179.926922,164.219522,-13.493408,0.116319,0.136260,0.016680,0.983679,1861.124268,81309.460938,-0.104263,0.011516,0.969116,0.224731,0.254626,14.750000,19.963554,0,0.000000,0," 202"
12," 101",69860,69835,1,1,2.277007,-9.555037,0.010711,0.014175,-0.006004,0.021595,-0.844666,-4.546771,-7.853833,-0.326253,-0.993304,-0.303522,179.993612,164.100090,-13.472017,0.115574,0.137304,0.016637,0.983623,1860.958008,81311.578125,-0.181606,0.051629,0.969116,0.058472,0.156518,14.875000,19.990692,0,0.000000,0," 202"
13," 101",71967,71931,1,1,2.306979,-9.572039,-0.008132,-0.016630,0.006969,0.045107,-0.364140,-5.027297,-7.853833,0.060098,1.306022,0.313580,179.979678,163.211591,-13.463759,0.116694,0.145006,0.016864,0.982381,1860.929077,81311.031250,-0.930598,-0.180336,0.969116,0.029541,0.191037,14.875000,20.008783,0,0.000000,0," 202"
14," 101",74076,74073,1,1,2.292636,-9.554615,0.009986,0.004162,0.001153,0.024830,0.116386,-5.027297,-7.853833,0.103729,-0.077863,-0.023373,179.939776,163.231617,-13.500864,0.116170,0.144741,0.017631,0.982468,1861.054199,81305.992188,-0.430569,-0.170585,0.969116,0.154663,0.203352,14.875000,20.013306,0,0.000000,0," 202"
15," 101",76190,76178,1,1,2.315125,-9.557080,-0.000292,-0.014838,0.007794,0.032479,-0.364140,-4.546771,-9.295410,-0.624544,-0.277711,-0.073549,179.929982,163.035454,-13.527252,0.116575,0.146406,0.017972,0.982167,1861.250732,81304.601562,0.348161,0.141513,0.969116,0.351196,0.259145,14.875000,20.026873,0,0.000000,0," 202"
16," 101",78312,78297,1,1,2.304981,-9.550165,0.023413,0.000349,-0.019819,0.023395,-2.286243,-3.585718,-8.334359,-0.010252,0.264200,0.188365,179.973449,163.031766,-13.529587,0.116539,0.146481,0.017606,0.982167,1861.091309,81308.812500,-0.400428,0.122638,0.969116,0.191772,0.238462,14.875000,20.049486,0,0.000000,0," 202"
17," 101",80436,80409,1,1,2.261830,-9.565226,-0.004625,0.010408,0.018396,0.027987,-1.325191,-5.507823,-9.295410,0.300663,-0.143114,0.156993,179.939107,163.301531,-13.375437,0.114710,0.144246,0.016674,0.982729,1861.059326,81311.070312,0.519318,-0.066423,0.969116,0.159790,0.212075,14.875000,20.072100,0,0.000000,0," 202"
18," 101",82574,82559,1,1,2.280748,-9.558487,0.023261,-0.021929,-0.002766,0.025827,-0.364140,-5.507823,-8.334359,-0.139897,0.708935,0.607499,179.835152,162.980581,-13.245163,0.115275,0.146829,0.018456,0.982248,1860.958008,81312.343750,-0.574374,-0.067252,0.969116,0.058472,0.195851,14.875000,20.094713,0,0.000000,0," 202"
19," 101",0,3565,1,1,1.880082,-9.641812,0.078345,0.000281,0.001366,0.022716,-0.844666,-5.027297,-9.295410,-0.075507,0.736874,0.886494,179.535088,179.751946,-11.033461,0.096131,0.001771,0.004184,0.995358,1861.457886,81305.359375,0.973379,25.678961,0.109619,0.004272,-0.776876,14.375000,19.741932,0,0.000000,0," 202"
20," 101",3828,4207,1,1,1.896621,-9.679687,0.058867,-0.016610,-0.005320,0.062907,-1.805717,-5.027297,-7.853833,-0.171425,-0.905469,0.000793,179.687865,179.355891,-10.985656,0.095735,0.005334,0.003249,0.995387,1861.380737,81303.835938,-0.775674,12.407547,0.118164,-0.072876,0.457885,14.625000,19.760025,0,0.000000,0," 202"
21," 101",6309,6294,1,1,1.878870,-9.655409,0.068858,0.001278,0.003059,0.035758,-0.364140,-5.507823,-7.853833,-0.223317,-0.615818,0.661639,179.581178,179.032249,-11.012387,0.095921,0.008069,0.004309,0.995347,1861.210938,81307.078125,-0.836278,0.126533,0.165771,-0.242676,-0.150953,14.625000,19.782639,0,0.000000,0," 202"
22," 101",8387,8364,1,1,1.894456,-9.661082,0.055686,0.009211,0.024829,0.044195,-1.325191,-5.027297,-9.775936,-0.271747,0.127691,0.808179,179.532533,178.728524,-11.140868,0.097108,0.010647,0.005137,0.995204,1861.213135,81307.375000,-0.538526,-0.017215,0.165771,-0.240479,-0.161531,14.750000,19.805254,0,0.000000,0," 202"
23," 101",10472,10471,1,1,1.899485,-9.636456,0.075179,0.008366,-0.001425,0.021164,-0.364140,-4.546771,-7.373307,0.130825,-0.565462,0.220450,179.570564,178.978045,-11.191869,0.097541,0.008510,0.004599,0.995184,1861.272583,81306.968750,-0.047930,0.101167,0.165771,-0.181030,-0.142960,14.750000,19.818823,0,0.000000,0," 202"
24," 101",12556,12544,1,1,1.888795,-9.633598,0.067209,-0.002723,0.000048,0.016244,-1.325191,-4.546771,-8.334359,-0.988325,0.226728,-0.221690,179.607037,178.779409,-11.068638,0.096472,0.010271,0.004440,0.995273,1861.306519,81305.437500,-0.436173,0.015394,0.165771,-0.147095,-0.116650,14.750000,19.836914,0,0.000000,0," 202"
25," 101",0,3257,1,1,1.887533,-9.660012,0.062757,-0.020722,0.001406,0.041872,-1.325191,-4.546771,-7.853833,-0.018183,0.900409,0.222322,179.629672,-178.428092,-10.945452,0.096262,-0.013955,0.001858,0.995256,1861.254883,81308.921875,-0.024317,57.328842,0.604980,0.423462,-1.293216,14.625000,19.818823,0,0.000000,0," 202"
26," 101",3356,3758,1,1,1.886341,-9.646319,0.054899,-0.001926,-0.001040,0.028180,-1.805717,-4.066245,-7.853833,-0.096068,-0.384913,-0.482805,179.686240,-178.189158,-11.063470,0.096342,-0.015992,0.001202,0.995219,1861.228638,81305.601562,-0.269132,27.678236,0.604980,0.397217,1.552188,14.625000,19.864052,0,0.000000,0," 202"
27," 101",5854,5848,1,1,1.904925,-9.636382,0.056653,-0.034363,-0.004555,0.021963,-1.325191,-5.507823,-8.334359,-0.052884,-1.074242,-0.426709,179.702660,-178.077389,-10.992636,0.097288,-0.016967,0.001210,0.995111,1861.417358,81303.890625,0.619860,1.084887,0.604980,0.585938,0.401116,14.750000,19.823345,0,0.000000,0," 202"
28," 101",7953,7947,1,1,1.825778,-9.655654,0.066890,0.026691,-0.005294,0.025945,-0.844666,-4.066245,-8.334359,0.362129,-0.113789,-0.337736,179.640027,-179.695761,-10.865278,0.093449,-0.002967,0.003114,0.995615,1861.284302,81306.148438,0.123706,-0.016610,0.654663,0.452881,0.467133,14.750000,19.845961,0,0.000000,0," 202"
29," 101",10212,10177,1,1,1.628915,-0.388354,10.288045,-0.118707,-0.083240,0.066514,-2.286243,-2.661117,18.425402,11.787920,-1.716317,10.138435,83.817124,-172.697700,159.643145,0.664472,-0.723496,-0.173112,-0.071149,1861.228027,81308.132812,-0.029239,0.063076,0.654663,0.396606,0.403215,14.750000,19.877621,0,0.000000,0," 202"
30," 101",12333,12309,1,1,1.258520,0.142178,9.926183,0.141395,-0.121195,0.203924,-1.325191,-6.024798,17.944876,-0.235906,-4.867030,-0.114830,89.550856,-173.628381,164.486146,0.702131,-0.697007,-0.134448,-0.055827,1861.166260,81308.000000,-0.282524,-0.006117,0.654663,0.334839,0.418205,14.750000,19.882143,0,0.000000,0," 202"
31," 101",14459,14458,1,1,1.077603,-0.158486,9.962224,0.004856,-0.008624,0.220584,-1.805717,-4.583220,18.905928,0.056219,0.594711,-0.286217,87.428020,-174.363624,163.481930,0.687909,-0.709792,-0.137508,-0.063777,1861.347900,81306.609375,0.458773,0.173821,0.663452,0.516479,0.407058,14.750000,19.895712,0,0.000000,0," 202"
32," 101",16658,16657,1,1,1.267116,-0.102563,9.931539,0.010328,0.041103,0.211480,-1.325191,-5.544272,19.386454,0.548211,-0.910679,0.764499,87.073328,-173.277050,162.921636,0.687660,-0.708329,-0.147617,-0.060022,1861.198975,81305.921875,-0.073984,-0.097959,0.735840,0.367554,0.428578,14.750000,19.918327,0,0.000000,0," 202"
33," 101",18785,18752,1,1,1.119615,-0.133240,9.912083,-0.082074,0.004787,0.174666,-1.325191,-5.544272,17.944876,0.914208,-1.901596,0.428273,87.428744,-173.555885,163.665717,0.688679,-0.709183,-0.138329,-0.060385,1861.266235,81306.085938,0.114653,0.128763,0.735840,0.434814,0.383141,14.875000,19.945463,0,0.000000,0," 202"
34," 101",20907,20894,1,1,-0.172129,-3.100593,9.459870,-0.305907,-0.310580,0.145980,-3.247294,-7.946902,18.425402,6.575130,-8.959210,5.633729,74.810386,175.239295,162.534064,0.581969,-0.797824,-0.086398,-0.131620,1861.096680,81308.203125,-0.782927,0.014766,0.735840,0.265259,0.384163,14.875000,19.972601,0,0.000000,0," 202"
35," 101",23024,22998,1,1,2.013934,1.237523,9.686424,0.038449,-0.035134,0.169531,-0.844666,-4.102695,17.944876,-5.311333,7.957532,-0.461433,96.815896,-168.182070,177.497601,0.745231,-0.658457,-0.091394,0.052079,1861.312988,81303.734375,0.198685,-0.001845,0.735840,0.481567,0.324214,15.000000,19.990692,0,0.000000,0," 202"
36," 101",25173,25147,1,1,1.292740,0.225893,9.964309,0.003978,-0.006489,0.249353,-1.805717,-4.583220,18.905928,-1.273447,0.445740,0.062775,90.511864,-172.534799,173.727364,0.710197,-0.698866,-0.084601,0.006981,1861.357178,81304.875000,0.664817,-0.025228,0.735840,0.525757,0.335924,14.875000,20.017828,0,0.000000,0," 202"
38," 101",29497,29476,1,1,1.316543,0.241774,9.924484,0.039168,-0.083541,0.212921,-1.805717,-5.063746,19.386454,-0.378530,0.117030,-0.127523,90.965846,-172.558131,173.246314,0.712983,-0.695703,-0.087405,0.003510,1861.142578,81309.406250,-0.018091,0.079756,0.735840,0.311157,0.358213,15.000000,20.094713,0,0.000000,0," 202"
39," 101",31687,31677,1,1,1.216945,0.309485,9.979312,-0.027416,0.041064,0.256881,-1.325191,-6.505324,18.425402,-0.935025,0.127427,0.008857,90.609337,-172.721551,172.501400,0.710824,-0.697466,-0.090923,-0.001842,1861.088989,81306.484375,-0.049238,-0.026730,0.735840,0.257568,0.281949,15.125000,20.126373,0,0.000000,0," 202"
40," 101",33829,33799,1,1,1.238735,0.263040,9.903405,0.000568,-0.013581,0.183032,-1.325191,-3.622169,18.425402,0.483214,-0.125611,0.505621,90.640408,-172.737984,172.450447,0.711012,-0.697246,-0.091132,-0.002284,1861.284424,81306.359375,0.453359,-0.071555,0.735840,0.453003,0.369070,15.000000,20.162554,0,0.000000,0," 202"
41," 101",35909,35881,1,1,1.301933,0.348807,9.876803,-0.013100,0.007698,0.167335,-2.286243,-4.583220,16.983824,-0.219479,0.172603,-0.636448,90.943791,-172.216458,172.328678,0.712853,-0.694838,-0.095081,-0.000091,1861.076050,81308.906250,-0.595462,-0.179437,0.735840,0.244629,0.370082,15.125000,20.207779,0,0.000000,0," 202"
42," 101",37998,37958,1,1,1.132614,0.219473,9.980005,-0.021785,-0.019216,0.196782,-2.286243,-5.063746,17.944876,0.080394,-0.909589,-0.409468,90.229271,-173.484305,171.683225,0.707804,-0.700477,-0.090572,-0.011912,1861.202393,81306.390625,-0.258198,-0.125606,0.735840,0.370972,0.346240,15.125000,20.225868,0,0.000000,0," 202"
43," 101",40087,40087,1,1,1.036549,0.178710,9.968039,0.001433,-0.015835,0.222368,-2.766768,-5.063746,17.944876,-0.689097,0.364186,0.846892,90.239264,-173.986379,171.635509,0.708421,-0.700070,-0.088459,-0.014690,1861.225098,81309.078125,-0.021028,0.087182,0.735840,0.393677,0.390602,15.125000,20.266571,0,0.000000,0," 202"
44," 101",42210,42208,1,1,0.934275,0.156429,10.000278,0.009756,0.002780,0.244039,-1.805717,-5.544272,19.386454,-0.416680,0.615153,-0.467064,90.033204,-174.644645,171.015178,0.706955,-0.701372,-0.088251,-0.022418,1860.983032,81311.054688,-0.068558,-0.106829,0.735840,0.151611,0.176660,15.250000,20.298229,0,0.000000,0," 202"
45," 101",44305,44256,1,1,0.882458,0.137587,9.950175,-0.037486,0.032481,0.227457,-2.286243,-4.102695,17.944876,-0.877713,-0.328641,-1.024611,89.893342,-174.789718,170.982229,0.706063,-0.702321,-0.087593,-0.023409,1861.099121,81307.281250,0.601259,-0.218471,0.735840,0.267700,0.121217,15.250000,20.325363,0,0.000000,0," 202"
46," 101",46404,46392,1,1,0.817767,-0.204469,9.989131,-0.075574,0.018848,0.223331,-1.805717,-4.583220,18.425402,-5.580974,2.167940,-3.297787,87.863950,-175.190500,169.146411,0.692944,-0.713552,-0.097029,-0.035476,1860.965820,81311.351562,-0.153614,0.125167,0.735840,0.134399,0.201805,15.250000,20.352499,0,0.000000,0," 202"
47," 101",48501,48480,1,1,0.711972,-0.171684,9.990414,0.018364,-0.027136,0.216169,-2.286243,-5.544272,18.905928,0.242631,-1.038739,0.437264,88.442501,-176.277525,169.428102,0.696243,-0.711141,-0.088543,-0.041041,1861.258545,81306.601562,1.343028,0.108296,0.735840,0.427124,0.237485,15.375000,20.379633,0,0.000000,0," 202"
48," 101",50680,50633,1,1,0.712640,-0.154247,9.949499,-0.033660,-0.052127,0.211202,-1.805717,-5.544272,18.905928,0.523451,-1.050344,0.127866,88.662146,-175.956574,169.579021,0.697774,-0.709676,-0.089471,-0.038291,1861.253540,81307.312500,0.175539,0.078699,0.735840,0.422119,0.350579,15.250000,20.420334,0,0.000000,0," 202"
49," 101",52781,52755,1,1,0.708010,-0.072372,10.002997,-0.018386,0.033643,0.227210,-1.805717,-6.024798,17.464350,1.281817,-0.218258,1.296499,88.642168,-175.995506,169.179742,0.697498,-0.709512,-0.091715,-0.040949,1861.067871,81311.953125,0.083037,-0.075746,0.735840,0.236450,0.286369,15.375000,20.461035,0,0.000000,0," 202"
50," 101",54898,54892,1,1,0.857760,-0.006906,9.918954,0.097190,0.046742,0.154391,-3.247294,-6.024798,18.425402,2.016295,-2.475010,-2.069253,88.746936,-175.715496,168.963840,0.698174,-0.708473,-0.094707,-0.040605,1861.060547,81307.195312,0.093960,-0.152585,0.735840,0.229126,0.232297,15.375000,20.488169,0,0.000000,0," 202"
51," 101",57005,56990,1,1,0.737489,0.186245,10.008735,-0.045126,0.025077,0.236464,-2.766768,-5.063746,18.425402,-0.267191,-2.087366,-0.237048,90.072525,-175.401758,168.674117,0.707032,-0.699245,-0.096458,-0.043091,1860.950806,81307.062500,-1.076643,-0.268340,0.735840,0.119385,0.218999,15.375000,20.524345,0,0.000000,0," 202"
52," 101",59122,59090,1,1,0.881431,0.231838,9.937411,0.049119,0.011619,0.177991,-2.286243,-4.583220,18.425402,0.370619,-1.212113,-0.131658,90.200660,-175.048596,168.192275,0.707065,-0.698321,-0.102973,-0.042463,1861.169922,81308.195312,-0.199351,0.141047,0.735840,0.338501,0.444169,15.500000,20.551479,0,0.000000,0," 202"
53," 101",61249,61224,1,1,0.924318,-0.189516,9.963410,0.114181,-0.084677,0.205979,-0.844666,-3.622169,17.944876,0.716528,-3.019647,-1.087183,88.102439,-175.795764,165.427072,0.692566,-0.709200,-0.116392,-0.061976,1861.322266,81304.132812,-0.071429,0.033387,0.735840,0.490845,0.429255,15.500000,20.587656,0,0.000000,0," 202"
54," 101",63380,63355,1,1,0.767522,-0.117597,9.994224,-0.031406,-0.067639,0.223064,-2.286243,-5.063746,16.983824,0.701734,0.167630,-0.627838,88.629539,-175.739456,165.392402,0.693598,-0.708189,-0.115851,-0.062997,1861.157959,81310.171875,-0.708025,-0.031419,0.735840,0.326538,0.423750,15.500000,20.614790,0,0.000000,0," 202"
55," 101",65515,65493,1,1,0.872491,0.036373,9.987557,-0.030475,0.003909,0.224613,-1.325191,-4.583220,18.425402,-0.516138,0.316099,-0.457556,88.902077,-174.945788,165.167293,0.697828,-0.703203,-0.122672,-0.059094,1861.095093,81305.687500,-0.940441,-0.101121,0.735840,0.263672,0.404893,15.500000,20.632877,0,0.000000,0," 202"
56," 101",67714,67691,1,1,0.880165,0.003379,9.979280,0.054983,-0.012442,0.216862,-1.805717,-4.102695,17.944876,0.302756,-0.052249,0.245957,88.771053,-175.444242,164.814282,0.696555,-0.704150,-0.121912,-0.064196,1861.355225,81307.515625,0.248331,0.060427,0.735840,0.523804,0.472150,15.500000,20.669054,0,0.000000,0," 202"
57," 101",69847,69832,1,1,0.863004,0.029803,9.968977,-0.029509,0.001255,0.205263,-0.844666,-4.102695,18.905928,-0.724173,0.276800,-0.190647,88.843754,-175.015237,164.585170,0.697122,-0.703002,-0.125857,-0.063005,1861.126465,81306.671875,-0.520270,-0.132991,0.735840,0.295044,0.416930,15.625000,20.696186,0,0.000000,0," 202"
58," 101",72033,72020,1,1,0.937504,0.123277,9.968042,0.053318,0.006037,0.211647,-2.766768,-5.544272,18.425402,0.147417,0.915207,0.099257,89.187265,-174.942236,164.240218,0.699419,-0.699947,-0.129878,-0.063394,1861.062500,81311.445312,-1.066232,-0.254207,0.747314,0.231079,0.459893,15.625000,20.732363,0,0.000000,0," 202"
59," 101",74110,74085,1,1,0.935738,0.126217,9.981600,-0.013771,0.009154,0.225146,-2.286243,-6.024798,18.425402,-0.596533,-0.200106,0.187672,89.170374,-174.573502,164.035558,0.699318,-0.699696,-0.131239,-0.064469,1861.262329,81312.429688,-0.179122,0.143108,0.868530,0.430908,0.534107,15.625000,20.764017,0,0.000000,0," 202"
60," 101",76184,76151,1,1,0.944320,0.123802,9.975945,-0.002533,-0.013729,0.220294,-1.805717,-5.544272,18.425402,0.849323,0.280757,0.049347,89.272184,-174.591779,164.015928,0.699232,-0.699725,-0.131611,-0.064331,1861.346924,81306.679688,-0.684676,0.026647,0.868530,0.515503,0.613865,15.750000,20.791149,0,0.000000,0," 202"
61," 101",78275,78264,1,1,0.998006,0.136567,9.946500,0.132745,-0.020721,0.195473,-2.286243,-5.063746,18.425402,1.617329,0.383788,-0.840438,89.260232,-175.041971,163.656674,0.699119,-0.699453,-0.131138,-0.069294,1861.650757,81301.070312,0.351586,0.189043,0.868530,0.819336,0.664968,15.750000,20.813759,0,0.000000,0," 202"
62," 101",80364,80333,1,1,1.057989,0.112834,9.966002,-0.012544,0.039307,0.221553,-1.805717,-6.505324,17.944876,-0.244159,1.987246,0.888340,88.570068,-173.954277,162.484613,0.696072,-0.699792,-0.144720,-0.069498,1861.452881,81303.171875,-0.362249,-0.106718,0.868530,0.621460,0.658338,15.750000,20.840889,0,0.000000,0," 202"
63," 101",82467,82453,1,1,1.036365,0.091436,9.963008,0.007493,-0.031336,0.216130,-2.286243,-5.063746,17.944876,-0.322190,1.751814,-0.012491,88.863821,-174.227771,162.188443,0.695350,-0.700053,-0.145568,-0.072279,1861.529297,81303.312500,0.073566,0.064063,0.868530,0.697876,0.635813,15.750000,20.868021,0,0.000000,0," 202"
64," 101",84645,84634,1,1,1.031290,0.135515,9.966865,-0.015782,-0.003251,0.219981,-1.325191,-4.583220,18.425402,0.732817,0.642999,-0.523870,88.970099,-174.044504,162.360263,0.697033,-0.698668,-0.144728,-0.071145,1861.469971,81304.156250,0.484133,0.008032,0.868530,0.638550,0.608766,15.875000,20.904196,0,0.000000,0," 202"
65," 101",86758,86746,1,1,2.322356,9.558610,0.025281,0.077658,-0.036052,0.035344,-0.844666,4.066245,7.853833,1.120289,-0.241198,1.413983,179.818513,-153.376296,-166.923854,0.966760,-0.027748,-0.228578,0.111166,1861.100098,81309.343750,-0.378962,-0.244054,0.868530,0.268677,0.397792,15.875000,20.926805,0,0.000000,0," 202"
66," 101",88870,88861,1,1,2.336966,9.545328,0.011856,0.010212,-0.011794,0.026237,-0.844666,4.066245,8.814884,0.285286,0.776865,-0.066000,179.961046,-153.100452,-166.344818,0.965668,-0.027979,-0.230904,0.115700,1861.287109,81304.992188,-0.116553,-0.029832,0.868530,0.455688,0.394340,15.875000,20.940371,0,0.000000,0," 202"
67," 101",91006,90987,1,1,2.302586,9.576909,0.003958,0.012092,0.013820,0.048811,-1.325191,4.546771,7.853833,-0.204230,1.705272,-0.854333,179.858716,-153.443533,-166.571061,0.966557,-0.028046,-0.227964,0.114077,1861.332886,81308.218750,0.089208,0.142313,0.868530,0.501465,0.518723,15.875000,20.962978,0,0.000000,0," 202"
68," 101",93159,93152,1,1,2.327372,9.568909,0.012472,-0.008376,-0.002553,0.046881,-0.844666,5.988348,7.373307,-0.283033,-0.468232,0.264903,179.958109,-153.360560,-166.311705,0.966196,-0.028008,-0.228676,0.115704,1861.178223,81307.789062,-0.085166,-0.021941,0.868530,0.346802,0.362702,15.875000,20.976545,0,0.000000,0," 202"
69," 101",95267,95244,1,1,2.323364,9.565581,-0.004587,0.012655,0.003802,0.042689,-0.844666,4.546771,9.295410,-0.555238,-0.657379,-0.152345,179.970908,-153.446593,-166.416917,0.966374,-0.027104,-0.228049,0.115674,1861.260132,81309.890625,0.723391,0.147916,0.868530,0.428711,0.396304,15.875000,21.003675,0,0.000000,0," 202"
70," 101",97386,97372,1,1,2.307123,9.551237,0.004944,-0.002410,-0.005498,0.024932,-0.844666,5.507823,8.814884,-0.095802,-0.876167,-0.471223,0.006858,-26.616808,13.581075,0.966320,-0.027160,-0.228585,0.115051,1860.993408,81305.679688,-0.379663,-0.278435,0.868530,0.161987,0.186172,15.875000,21.012718,0,0.000000,0," 202"
71," 101",99500,99454,1,1,2.319457,9.542390,-0.000715,-0.011854,0.002585,0.009408,-0.364140,4.546771,8.334359,-0.122285,-0.056851,-0.314164,0.007539,-26.677134,13.711050,0.966069,-0.027475,-0.229063,0.116131,1861.070679,81310.171875,-0.278510,0.113823,0.868530,0.239258,0.423082,15.875000,21.026283,0,0.000000,0," 202"
72," 101",101707,101660,1,1,2.311625,9.530128,0.022038,0.005880,-0.012114,0.005491,-0.844666,4.066245,8.334359,-0.080669,-0.347034,-0.236918,179.907620,-152.445547,-166.471613,0.964446,-0.028827,-0.236397,0.114585,1861.114746,81306.101562,-0.711249,-0.037029,0.868530,0.283325,0.379178,15.875000,21.030806,0,0.000000,0," 202"
73," 101",103825,103785,1,1,2.321173,9.555543,0.001503,0.014787,0.007104,0.032411,-0.364140,5.027297,7.373307,-0.409684,-0.598839,-0.572194,179.904328,-152.723863,-166.447967,0.964993,-0.028626,-0.234045,0.114857,1861.201904,81303.710938,-0.189449,-0.078256,0.868530,0.370483,0.366804,15.875000,21.044371,0,0.000000,0," 202"
74," 101",105955,105933,1,1,2.321800,9.553341,-0.004074,0.013295,0.002758,0.030425,-1.325191,5.507823,8.334359,-0.427336,0.519383,-0.131236,179.969693,-152.051322,-166.415046,0.963519,-0.028549,-0.239794,0.115393,1861.074951,81308.343750,-0.336436,0.000812,0.868530,0.243530,0.299585,15.875000,21.053413,0,0.000000,0," 202"
75," 101",108090,108069,1,1,2.316058,9.559134,0.006554,-0.013803,0.000457,0.034701,-0.844666,4.546771,9.775936,-0.477081,0.603774,0.249928,179.996781,-152.050816,-166.309642,0.963485,-0.028810,-0.239767,0.115666,1861.065918,81313.109375,-0.847640,0.003195,0.868530,0.234497,0.487007,15.750000,21.057936,0,0.000000,0," 202"
76," 101",110235,110211,1,1,2.320709,9.559730,0.006682,0.007068,-0.001690,0.036383,-0.364140,4.546771,9.295410,-0.489711,-0.870586,0.092995,179.943451,-151.684404,-166.422627,0.962813,-0.029388,-0.242822,0.114737,1861.112793,81309.179688,-0.097502,-0.187248,0.868530,0.281372,0.287732,15.875000,21.057936,0,0.000000,0," 202"
77," 101",112385,112351,1,1,2.318835,9.540612,0.004881,0.013994,-0.000974,0.017355,-1.325191,3.585718,9.295410,0.497577,1.096747,-0.407092,179.929996,-151.999931,-166.446847,0.963499,-0.029135,-0.240162,0.114640,1861.471680,81300.757812,0.938243,-0.033895,0.868530,0.640259,0.377763,15.875000,21.076021,0,0.000000,0," 202"
78," 101",114581,114550,1,1,2.318613,9.553888,0.002792,0.013197,0.006415,0.030202,-0.364140,3.585718,8.334359,-0.373432,0.329556,-0.101964,179.903412,-152.066362,-166.454415,0.963578,-0.028849,-0.239630,0.115159,1861.148315,81306.796875,-0.156784,-0.159445,0.868530,0.316895,0.321788,15.875000,21.071501,0,0.000000,0," 202"
79," 101",116709,116672,1,1,2.313430,9.569403,0.009231,-0.009169,0.016484,0.033651,-1.325191,4.546771,8.334359,-0.429212,-0.656509,0.079865,179.971086,-152.325677,-166.278128,0.964089,-0.028186,-0.237497,0.115469,1861.197266,81308.335938,0.065943,0.059537,0.868530,0.365845,0.399145,15.875000,21.085066,0,0.000000,0," 202"
80," 101",118899,118884,1,1,2.328604,9.554768,0.008039,0.003861,-0.017280,0.033416,-0.844666,5.507823,8.814884,-0.226439,-0.251630,-0.398164,0.035894,-27.769999,13.646536,0.963913,-0.028209,-0.238310,0.115261,1861.205811,81303.421875,0.076871,0.022138,0.868530,0.374390,0.275592,15.875000,21.085066,0,0.000000,0," 202"
81," 101",120989,120960,1,1,2.308256,9.560639,-0.002635,0.010628,0.010941,0.034326,-0.364140,3.585718,8.334359,-0.035771,0.108609,-0.221912,179.920584,-151.883067,-166.488648,0.963252,-0.028643,-0.241218,0.114627,1861.154541,81307.070312,0.004240,-0.187651,0.868530,0.323120,0.263921,15.875000,21.094109,0,0.000000,0," 202"
82," 101",123076,123072,1,1,2.328267,9.533257,0.001803,0.004348,-0.012084,0.012442,-0.844666,5.988348,8.334359,-0.187546,-0.038242,0.225327,0.044852,-28.409190,13.689892,0.962527,-0.028869,-0.243681,0.115444,1860.999023,81309.039062,-0.409710,-0.164772,0.868530,0.167603,0.265305,15.750000,21.094109,0,0.000000,0," 202"
83," 101",125166,125142,1,1,2.319581,9.567493,-0.004978,-0.022517,0.034855,0.043577,-0.364140,5.027297,7.853833,-0.720895,-0.473500,1.077721,179.902634,-151.085683,-166.206219,0.961469,-0.029520,-0.247904,0.115107,1861.059937,81307.773438,-0.479379,-0.118314,0.868530,0.228516,0.261942,15.875000,21.103151,0,0.000000,0," 202"
84," 101",127262,127223,1,1,2.320684,9.560045,0.006339,0.012116,-0.022852,0.036653,-0.844666,5.507823,8.814884,-0.382934,-1.144825,-0.328069,0.051179,-29.290313,13.542908,0.960680,-0.030247,-0.251016,0.114761,1861.002075,81308.890625,0.224582,-0.001988,0.868530,0.170654,0.165076,15.875000,21.098631,0,0.000000,0," 202"
85," 101",129370,129334,1,1,2.313495,9.552873,-0.004822,0.027043,-0.008879,0.027980,-0.844666,5.507823,7.853833,0.374565,-0.786533,-0.005113,179.996371,-150.956524,-166.551048,0.961392,-0.029392,-0.249019,0.113362,1860.940186,81310.578125,-1.009865,0.309535,0.868530,0.108765,0.339481,15.875000,21.107674,0,0.000000,0," 202"
86," 101",131484,131458,1,1,2.313270,9.554933,-0.013035,0.019600,-0.002707,0.029958,-1.325191,4.066245,8.814884,-0.257296,0.148693,-0.470851,0.038856,-29.262890,13.521194,0.960853,-0.029411,-0.250883,0.113818,1861.176025,81306.648438,0.327420,0.076050,0.868530,0.344604,0.237177,15.875000,21.107674,0,0.000000,0," 202"
87," 101",133594,133585,1,1,2.307068,9.572890,0.006459,-0.003068,0.008991,0.045966,-1.325191,4.546771,8.334359,-0.686700,0.894406,-1.033015,179.914614,-150.697059,-166.450713,0.960733,-0.030194,-0.251130,0.114078,1861.082886,81308.609375,0.118052,0.003271,0.868530,0.251465,0.270315,15.875000,21.107674,0,0.000000,0," 202"
88," 101",135785,135756,1,1,2.305673,-9.564565,-0.011667,-0.009336,0.018656,0.037533,-0.364140,-5.507823,-8.334359,-0.320860,0.356987,0.658230,179.999814,-150.678918,-13.452846,0.113315,-0.251350,-0.029643,0.960783,1861.130859,81307.773438,0.986117,-0.007071,0.868530,0.299438,0.190751,15.750000,21.103151,0,0.000000,0," 202"
89," 101",137897,137886,1,1,2.325440,9.559445,-0.008934,0.002047,-0.007296,0.037226,0.116386,5.027297,9.295410,0.362857,-0.918225,-0.160227,0.095588,-29.696146,13.688213,0.959746,-0.029737,-0.254527,0.114977,1861.160156,81304.960938,0.250274,-0.053300,0.868530,0.328735,0.253590,15.750000,21.098631,0,0.000000,0," 202"
90," 101",140022,140008,1,1,2.301996,9.537700,0.020007,-0.022261,-0.006510,0.010563,0.116386,5.988348,8.814884,0.430288,-0.603219,-0.548745,179.977725,-150.260542,-166.347768,0.959655,-0.030688,-0.254781,0.114926,1860.999146,81310.859375,-0.360282,-0.167603,0.868530,0.167725,0.251775,15.750000,21.098631,0,0.000000,0," 202"
91," 101",142139,142102,1,1,2.349114,9.549949,0.017315,0.043401,-0.011980,0.033538,-1.805717,5.507823,8.814884,-0.255002,0.285544,-0.191445,179.809948,-150.372885,-166.528891,0.959794,-0.031602,-0.253721,0.115855,1861.188599,81305.390625,-0.031894,0.128429,0.868530,0.357178,0.289539,15.750000,21.085066,0,0.000000,0," 202"
92," 101",144271,144243,1,1,2.305398,9.566976,0.012598,0.008329,-0.004022,0.039831,-1.325191,5.988348,7.853833,0.262087,-0.116151,-0.808259,179.912415,-150.866694,-166.547879,0.961172,-0.030192,-0.249688,0.113549,1861.131592,81307.351562,-0.045361,0.026086,0.868530,0.300171,0.286412,15.750000,21.085066,0,0.000000,0," 202"
93," 101",146414,146386,1,1,2.294057,9.549345,0.012964,-0.028969,0.006802,0.019996,-0.844666,4.546771,8.814884,-0.202242,0.018304,1.032933,179.966496,-151.343045,-166.340446,0.962009,-0.029712,-0.245691,0.115293,1860.952881,81309.320312,-0.322997,-0.020091,0.868530,0.121460,0.127998,15.750000,21.085066,0,0.000000,0," 202"
94," 101",148554,148546,1,1,2.293725,-9.574124,0.007007,2.276175,-1.251042,-0.304737,-1.325191,-2.624667,-8.814884,0.117292,0.241853,-0.137421,179.921226,-151.108141,-28.807621,0.126510,-0.247494,-0.032215,0.960054,1861.308350,81304.687500,1.348606,0.283127,0.868530,0.476929,0.240024,15.750000,21.076021,0,0.000000,0," 202"
95," 101",150733,150716,1,1,2.284305,-9.570049,-0.005176,0.001954,0.020145,0.037877,-0.844666,-4.546771,-8.814884,0.612629,0.161785,-0.803666,179.910775,-151.892615,-13.421714,0.113173,-0.241256,-0.027627,0.963444,1860.876953,81316.195312,-0.280151,-0.011391,0.868530,0.045532,0.223323,15.750000,21.085066,0,0.000000,0," 202"
96," 101",153111,153101,1,1,2.458052,9.520462,0.118428,0.140368,-0.166509,0.029962,-1.325191,5.507823,8.334359,-1.479117,-3.219643,-10.266759,179.751591,-151.916671,-166.818587,0.963646,-0.029937,-0.240782,0.111869,1861.004883,81311.140625,-0.717480,-0.059718,0.868530,0.173462,0.290137,15.750000,21.089586,0,0.000000,0," 202"
97," 101",155311,155273,1,1,2.276520,-9.567302,-0.007085,-0.013055,0.000174,0.033413,-0.844666,-4.546771,-9.775936,-0.735988,-0.177901,0.130584,0.080699,-25.349468,166.719208,0.112973,-0.217865,-0.026055,0.969068,1861.063599,81308.757812,0.072625,0.030725,0.868530,0.232178,0.247230,15.750000,21.071501,0,0.000000,0," 202"
98," 101",157440,157434,1,1,2.229279,9.568609,0.010413,0.004303,-0.008512,0.023866,-1.325191,5.507823,8.334359,-0.630265,0.560468,0.514811,179.969201,-153.434640,-166.943689,0.966899,-0.026713,-0.228198,0.110991,1861.154053,81305.671875,0.790500,0.000854,0.868530,0.322632,0.179541,15.750000,21.076021,0,0.000000,0," 202"
99," 101",159523,159492,1,1,2.225838,-9.573712,0.004593,-0.001302,0.005841,0.028054,-1.325191,-5.988348,-8.814884,-0.123270,1.963860,0.622678,179.939913,-154.492185,-13.092813,0.111196,-0.219355,-0.024907,0.968968,1861.117188,81308.335938,0.109287,0.054055,0.868530,0.285767,0.233330,15.875000,21.085066,0,0.000000,0," 202"
100," 101",161604,161596,1,1,2.105476,-9.590818,0.030134,-0.020376,-0.003851,0.018231,-1.325191,-5.027297,-8.334359,-0.314418,-1.316481,1.122229,179.884670,-154.170361,-12.334771,0.104492,-0.222314,-0.023036,0.969086,1861.108887,81308.195312,0.236575,0.089188,0.868530,0.277466,0.214088,16.000000,21.089586,0,0.000000,0," 202"
101," 101",163689,163674,1,1,2.152987,-9.590569,-0.001838,0.002471,-0.000268,0.028261,-1.325191,-5.507823,-8.334359,-0.429464,-0.393180,-0.072202,0.006568,-25.475325,167.336575,0.107583,-0.219136,-0.024372,0.969439,1860.976196,81306.085938,-0.104130,-0.070525,0.868530,0.144775,0.123060,15.875000,21.094109,0,0.000000,0," 202"
102," 101",165787,165760,1,1,2.147138,-9.594643,0.012818,-0.008834,0.004232,0.030960,-0.844666,-6.468874,-8.334359,0.423245,-1.138000,-0.320237,179.917168,-154.413993,-12.592801,0.106790,-0.220171,-0.023584,0.969311,1861.091797,81305.523438,-0.512829,0.050436,0.868530,0.260376,0.231579,15.875000,21.112194,0,0.000000,0," 202"
103," 101",167887,167849,1,1,2.183669,-9.577939,0.010456,-0.060204,0.015757,0.022521,-1.805717,-3.585718,-9.295410,-0.343149,-0.308530,3.855566,0.007023,-25.357272,167.516359,0.106087,-0.218175,-0.023923,0.969831,1860.941284,81312.398438,-0.728130,0.205055,0.868530,0.109863,0.252864,15.875000,21.112194,0,0.000000,0," 202"
104," 101",170069,170063,1,1,2.221391,-9.582548,-0.009727,0.013317,0.013621,0.035643,-1.805717,-6.468874,-8.334359,0.294596,0.461053,-0.079491,179.947904,-155.792175,-13.111138,0.111534,-0.208365,-0.023498,0.971387,1860.931641,81310.007812,0.023257,-0.099824,0.868530,0.100220,0.126859,15.875000,21.125759,0,0.000000,0," 202"
105," 101",172192,172172,1,1,2.007151,-9.617424,0.054235,0.029184,-0.071721,0.023482,-1.325191,-5.988348,-7.373307,-0.199447,0.854243,-0.816051,179.993817,-155.609645,-12.118677,0.103165,-0.210068,-0.022246,0.971974,1860.790527,81312.531250,-0.446118,-0.188044,0.868530,-0.040894,0.121696,16.000000,21.139324,0,0.000000,0," 202"
106," 101",174299,174256,1,1,2.091714,-9.604433,0.022640,0.008796,0.008522,0.028586,-1.325191,-4.546771,-8.334359,-0.027112,0.973484,-0.453269,179.782969,-155.965771,-12.401371,0.105252,-0.207186,-0.020647,0.972404,1860.993408,81308.601562,-0.056042,-0.029403,0.868530,0.161987,0.133945,15.875000,21.139324,0,0.000000,0," 202"
107," 101",176407,176358,1,1,2.105920,-9.599889,0.037962,-0.004590,-0.006890,0.027877,-0.364140,-5.507823,-8.814884,-0.232712,-1.288617,0.848807,179.847910,-156.047843,-12.454860,0.105980,-0.206457,-0.020868,0.972475,1861.189697,81306.351562,0.104995,0.066934,0.868530,0.358276,0.253936,16.000000,21.148367,0,0.000000,0," 202"
108," 101",178516,178511,1,1,2.106795,-9.611501,0.033246,-0.010379,0.014859,0.038731,-1.325191,-5.027297,-9.295410,0.581908,0.119464,0.024554,179.728368,-155.736113,-12.384398,0.105563,-0.209125,-0.020926,0.971949,1861.079102,81304.109375,0.112019,-0.041637,0.868530,0.247681,0.164510,16.000000,21.157412,0,0.000000,0," 202"
109," 101",180632,180618,1,1,2.123220,-9.614033,0.026173,-0.014567,0.014705,0.044707,-0.364140,-6.949400,-8.814884,0.416164,-0.372390,0.537909,179.785865,-155.059036,-12.430985,0.106103,-0.214808,-0.022075,0.970625,1860.870605,81315.617188,0.208618,0.021143,0.868530,0.039185,0.124821,16.000000,21.166454,0,0.000000,0," 202"
110," 101",182760,182721,1,1,2.093956,-9.595965,0.010791,0.012765,0.010563,0.020764,-0.844666,-6.468874,-8.814884,0.928453,-0.554772,-0.109538,179.835111,-155.426214,-12.420339,0.105393,-0.211710,-0.021623,0.971393,1860.862915,81310.703125,-0.246340,-0.121719,0.868530,0.031494,0.060449,16.000000,21.166454,0,0.000000,0," 202"
111," 101",184892,184879,1,1,2.129222,-9.605587,0.029371,-0.019546,-0.006682,0.037766,-0.844666,-5.027297,-7.853833,-0.945671,-0.305368,0.429254,179.902607,-155.741495,-12.450609,0.105840,-0.208969,-0.021959,0.971930,1861.061279,81308.453125,0.584603,0.161266,0.868530,0.229858,0.168291,16.000000,21.175497,0,0.000000,0," 202"
112," 101",187090,187053,1,1,2.116999,-9.595306,0.026452,-0.014885,0.017789,0.025075,-1.325191,-4.546771,-7.853833,0.112698,0.446297,0.473129,179.766180,-155.809565,-12.415906,0.106144,-0.208452,-0.021325,0.972022,1861.088257,81307.187500,-0.041567,-0.025758,0.868530,0.256836,0.165064,16.000000,21.184540,0,0.000000,0," 202"
113," 101",189220,189220,1,1,2.126376,-9.607172,0.037304,-0.011166,-0.014188,0.038730,-1.325191,-5.507823,-8.814884,0.280358,-0.679932,0.399413,179.873892,-156.229103,-12.504832,0.106712,-0.204928,-0.020624,0.972724,1861.357666,81303.539062,0.406185,0.243010,0.868530,0.526245,0.371189,15.875000,21.175497,0,0.000000,0," 202"
114," 101",191344,191335,1,1,2.124715,-9.597056,0.036980,-0.018119,-0.011071,0.028487,-0.844666,-4.546771,-8.334359,-0.537158,1.150196,0.252202,179.875381,-156.576158,-12.461774,0.106056,-0.201907,-0.020973,0.973420,1860.872070,81310.132812,-0.283902,0.078965,0.868530,0.040649,0.160147,16.000000,21.184540,0,0.000000,0," 202"
115," 101",193481,193456,1,1,2.107498,-9.606993,0.022867,-0.020480,-0.008733,0.034440,-0.844666,-4.546771,-8.334359,-0.525864,-0.078213,0.631654,179.958327,-155.889396,-12.301959,0.104710,-0.207691,-0.022025,0.972324,1860.907471,81308.171875,-0.760115,0.070551,0.868530,0.076050,0.180954,16.000000,21.184540,0,0.000000,0," 202"
116," 101",195673,195672,1,1,2.084818,-9.583818,0.021298,-0.001533,-0.001038,0.006981,-0.844666,-4.546771,-7.853833,-0.109372,-0.686215,-0.053270,179.873715,-155.846639,-12.318627,0.104690,-0.208128,-0.021377,0.972248,1860.917236,81308.171875,-0.493635,-0.107803,0.868530,0.085815,0.117669,16.000000,21.184540,0,0.000000,0," 202"
117," 101",197749,197727,1,1,2.098834,-9.634532,0.026277,0.008454,-0.002133,0.059524,-1.325191,-4.546771,-8.334359,-0.065158,-0.353168,0.568527,179.824401,-156.438489,-12.409770,0.105496,-0.203133,-0.020576,0.973234,1861.086548,81306.632812,-0.323980,-0.109400,0.868530,0.255127,0.190308,15.875000,21.170975,0,0.000000,0," 202"
118," 101",199830,199829,1,1,2.092716,-9.614698,0.024755,0.018953,-0.001066,0.038824,-0.844666,-5.507823,-7.853833,0.509561,0.774917,-0.430825,179.801725,-156.697503,-12.461617,0.105950,-0.200945,-0.020234,0.973646,1861.150635,81306.914062,0.124916,0.132831,0.868530,0.319214,0.257327,15.875000,21.161932,0,0.000000,0," 202"
119," 101",201917,201884,1,1,2.118452,-9.596759,0.007998,0.013372,0.019200,0.026774,-0.364140,-5.507823,-7.853833,-0.058860,0.491343,-0.538661,179.804061,-156.870266,-12.552907,0.106344,-0.199352,-0.021230,0.973909,1861.055420,81310.000000,0.204410,0.107353,0.868530,0.223999,0.172322,15.875000,21.157412,0,0.000000,0," 202"
120," 101",204138,204123,1,1,2.120256,-9.614266,0.024138,-0.022326,0.002491,0.044287,-1.805717,-5.507823,-8.334359,-0.679247,-0.738392,0.141626,179.888441,-156.744918,-12.355450,0.106226,-0.200490,-0.020647,0.973701,1860.966797,81311.117188,0.206759,-0.026633,0.868530,0.135376,0.146487,16.000000,21.184540,0,0.000000,0," 202"
121," 101",206229,206213,1,1,2.116705,-9.599022,0.039432,-0.010711,0.005312,0.028704,-1.805717,-5.507823,-7.853833,0.467287,0.145625,-1.142346,179.745417,-156.268841,-12.468272,0.105817,-0.204636,-0.020167,0.972893,1860.777832,81312.390625,-0.280572,-0.164630,0.868530,-0.053589,0.092896,15.875000,21.143847,0,0.000000,0," 202"
122," 101",208319,208310,1,1,2.098655,-9.605669,0.005219,0.022561,0.006319,0.031228,-1.325191,-5.027297,-7.373307,-0.208007,-0.633635,0.346491,179.872199,-156.279646,-12.481330,0.106156,-0.204425,-0.021256,0.972877,1860.974121,81306.640625,0.330916,-0.093426,0.868530,0.142700,0.060483,15.875000,21.139324,0,0.000000,0," 202"
123," 101",210422,210407,1,1,2.070865,-9.619732,0.017849,0.020813,-0.007160,0.039100,-0.364140,-5.027297,-8.814884,-0.097471,0.676564,-0.032454,179.875832,-156.550203,-12.325990,0.104898,-0.202152,-0.020762,0.973499,1860.969238,81308.460938,-0.310681,-0.120850,0.868530,0.137817,0.140898,15.875000,21.143847,0,0.000000,0," 202"
124," 101",212520,212512,1,1,6.164312,-2.168985,-6.768574,-2.271456,3.677484,-1.444360,3.960593,1.700066,-16.503298,-59.898833,-111.963050,98.654665,53.260575,-28.186724,-178.913814,0.236055,-0.246847,-0.555287,0.758289,1861.135132,81309.585938,1.080587,0.380886,0.868530,0.303711,0.184826,15.875000,21.139324,0,0.000000,0," 202"
125," 101",214626,214594,1,1,4.091798,-7.607629,4.957397,0.585138,-0.161316,0.140137,1.077438,-10.830057,12.659092,-18.537519,-25.227379,28.625273,38.706726,138.628333,127.195321,0.129489,-0.842654,-0.287645,-0.436380,1861.206055,81306.500000,0.671441,0.076406,0.868530,0.374634,0.260112,16.000000,21.143847,0,0.000000,0," 202"
126," 101",216739,216717,1,1,1.493356,-2.334493,9.721966,0.282377,-0.660943,0.282650,-0.844666,-4.583220,17.464350,16.340391,19.779864,14.170816,82.447589,167.091685,103.009081,0.447022,-0.639141,-0.428905,-0.455752,1861.052246,81305.234375,-0.548424,-0.154300,0.868530,0.220825,0.233225,16.000000,21.152889,0,0.000000,0," 202"
127," 101",218859,218845,1,1,3.724110,-6.386140,5.545969,-0.803117,0.253933,-0.597735,0.116386,-12.271634,12.659092,-76.316518,0.692109,-54.669739,53.015973,143.401953,105.929083,0.169036,-0.762624,-0.399869,-0.479517,1860.980713,81311.125000,0.308185,0.051656,0.868530,0.149292,0.178133,16.000000,21.152889,0,0.000000,0," 202"
128," 101",221064,221031,1,1,5.074036,-6.909390,5.074500,-0.174624,0.366652,0.152448,2.519016,-12.271634,12.178566,-47.643879,-15.299098,-4.177116,43.224722,137.147548,108.470972,0.088888,-0.782560,-0.382523,-0.483089,1861.046631,81306.203125,-0.227472,-0.114827,0.868530,0.215210,0.166888,16.000000,21.184540,0,0.000000,0," 202"
129," 101",223179,223162,1,1,3.299132,-5.841297,7.408359,0.853364,-0.757998,0.128049,-0.844666,-8.907953,15.061721,86.657233,63.912901,8.298816,72.216615,137.826920,94.572479,0.206835,-0.697682,-0.355550,-0.586552,1861.371582,81305.921875,0.843199,0.123883,0.868530,0.540161,0.283441,16.000000,21.193583,0,0.000000,0," 202"
130," 101",225308,225290,1,1,1.672640,0.587919,9.812383,-0.583209,-0.238222,0.150349,-1.805717,-4.102695,17.944876,-16.243474,-5.227935,75.802512,87.233462,-167.257959,136.735169,0.666901,-0.640604,-0.336400,-0.178058,1860.950562,81310.835938,-0.348445,-0.054770,0.868530,0.119141,0.320313,16.125000,21.193583,0,0.000000,0," 202"
131," 101",227463,227440,1,1,0.377756,0.074016,10.032430,0.070019,-0.026696,0.238532,-3.247294,-5.063746,16.983824,-0.757430,0.985351,0.325794,90.149775,-178.202258,168.846989,0.705007,-0.702264,-0.081940,-0.055458,1860.996826,81309.000000,0.644926,0.043147,0.868530,0.165405,0.128803,16.125000,21.220713,0,0.000000,0," 202"
132," 101",229625,229620,1,1,1.022318,2.363289,9.506642,1.081852,0.337220,-0.017218,-2.286243,-5.063746,18.905928,5.928577,-17.605608,-120.009689,89.993650,-171.278400,120.893378,0.639816,-0.586846,-0.394547,-0.300966,1861.085938,81307.453125,0.221197,-0.074404,0.868530,0.254517,0.188952,16.125000,21.238798,0,0.000000,0," 202"
133," 101",231786,231768,1,1,2.556897,0.805859,9.040669,0.087632,-0.173036,-0.373210,-0.364140,-4.583220,17.944876,-16.518066,0.490795,3.430473,75.053179,-176.389690,86.719715,0.436171,-0.530284,-0.589495,-0.425499,1860.925903,81310.101562,-0.999888,0.043909,0.868530,0.094482,0.283884,16.250000,21.279491,0,0.000000,0," 202"
134," 101",233946,233918,1,1,1.908626,-0.081462,9.888291,-0.271079,-0.429678,0.257314,-0.844666,-6.985850,18.425402,-22.463481,-11.434971,30.961948,81.566003,-177.293952,98.332314,0.489821,-0.578358,-0.507626,-0.409748,1860.959717,81309.523438,-0.126889,0.041855,0.868530,0.128296,0.159839,16.250000,21.329227,0,0.000000,0," 202"
135," 101",236105,236099,1,1,1.369679,-1.584160,10.218969,0.676501,-0.796088,0.577897,-1.325191,-6.985850,17.944876,-5.253410,-15.758090,25.266070,86.807121,167.452415,90.117687,0.423282,-0.564993,-0.491530,-0.509915,1861.025513,81308.796875,-0.081182,-0.108794,0.868530,0.194092,0.224746,16.250000,21.383484,0,0.000000,0," 202"
136," 101",238368,238348,1,1,0.661568,-1.052299,10.367138,0.134966,0.164137,0.638224,-1.805717,-4.583220,17.464350,-6.958206,-49.938013,-77.874600,84.226724,174.454397,103.358917,0.503254,-0.601431,-0.433983,-0.443480,1861.311401,81303.593750,-0.287632,0.255085,0.868530,0.479980,0.419644,16.250000,21.392527,0,0.000000,0," 202"
137," 101",240441,240409,1,1,0.927668,0.119673,9.946237,-0.258280,-0.030972,0.185733,-1.805717,-6.024798,18.425402,-9.589282,-5.175884,0.429269,85.115181,-176.707512,102.230692,0.533965,-0.567210,-0.471346,-0.413506,1861.092529,81307.937500,0.125915,-0.121536,0.868530,0.261108,0.228669,16.250000,21.410612,0,0.000000,0," 202"
138," 101",242572,242567,1,1,0.837603,-0.203870,9.995636,0.045181,0.121909,0.230898,-2.766768,-5.544272,17.944876,-0.576689,0.950933,0.285029,84.378757,179.536946,101.312681,0.521473,-0.570932,-0.466441,-0.429577,1861.072998,81308.351562,0.124228,0.042467,0.868530,0.241577,0.272613,16.250000,21.428696,0,0.000000,0," 202"
139," 101",244660,244645,1,1,0.897325,-0.297965,9.962580,0.035082,-0.048199,0.206168,-2.286243,-3.622169,18.425402,-0.216132,0.131712,-0.478761,84.897264,179.117517,101.177211,0.517270,-0.573764,-0.466282,-0.431054,1860.851562,81312.695312,-0.212562,-0.195676,0.868530,0.020142,0.163721,16.375000,21.446781,0,0.000000,0," 202"
140," 101",246748,246699,1,1,0.850606,-0.319759,9.960704,0.019301,-0.028019,0.215586,-2.286243,-4.583220,17.464350,-0.553181,-0.323968,0.284029,85.055833,179.173006,101.157301,0.518778,-0.572373,-0.464195,-0.433338,1861.279297,81304.257812,0.230789,0.248412,0.868530,0.447876,0.322682,16.375000,21.464867,0,0.000000,0," 202"
141," 101",248842,248822,1,1,0.859620,-0.313313,10.002240,0.021505,-0.026956,0.242940,-1.805717,-5.544272,18.905928,-0.879301,-0.259685,-0.604886,84.998480,179.015857,100.569946,0.515613,-0.570831,-0.466623,-0.436530,1860.809692,81310.859375,-0.711200,-0.260949,0.868530,-0.021729,0.144498,16.375000,21.473909,0,0.000000,0," 202"
142," 101",250976,250956,1,1,0.743253,-0.329183,9.982036,-0.023443,0.028969,0.214010,-2.766768,-4.583220,18.905928,-0.768666,0.452345,-0.284678,85.314541,179.016745,100.025518,0.515103,-0.567185,-0.468121,-0.440263,1861.165649,81307.046875,0.816719,-0.059157,0.868530,0.334229,0.176908,16.500000,21.501036,0,0.000000,0," 202"
143," 101",253137,253129,1,1,0.785597,-0.322799,9.973288,0.013378,0.059199,0.208203,-2.286243,-5.063746,19.386454,-0.336061,0.005014,-0.210117,84.911505,178.856782,99.712320,0.513010,-0.566662,-0.469661,-0.441740,1861.085083,81307.890625,0.131339,-0.077506,0.868530,0.253662,0.228153,16.500000,21.505558,0,0.000000,0," 202"
144," 101",255322,255301,1,1,0.804021,-0.307389,9.967855,0.012437,-0.015027,0.203934,-2.286243,-5.063746,18.425402,0.436137,0.114030,-0.245333,85.250699,178.937870,99.371616,0.511803,-0.565171,-0.471854,-0.442711,1861.044678,81308.156250,-0.086139,0.029277,0.868530,0.213257,0.233015,16.500000,21.528164,0,0.000000,0," 202"
145," 101",257458,257431,1,1,0.831464,-0.343090,9.961383,-0.059226,-0.008965,0.200730,-3.727820,-5.544272,18.425402,0.052087,0.095208,-0.584420,85.031607,179.145712,99.067236,0.509145,-0.565492,-0.473201,-0.443927,1861.179443,81306.335938,0.689964,0.000862,0.868530,0.348022,0.226173,16.500000,21.523642,0,0.000000,0," 202"
146," 101",259614,259599,1,1,1.512547,6.847432,5.939911,0.571387,-0.685219,-0.654326,-1.325191,1.183090,12.178566,163.698652,-36.237524,28.669412,92.561344,-133.854250,100.202352,0.683847,-0.306123,-0.625146,-0.218710,1861.109741,81306.195312,0.332898,-0.390308,0.868530,0.278320,0.221568,16.500000,21.528164,0,0.000000,0," 202"
147," 101",261759,261738,1,1,1.852420,9.639551,0.591756,0.012215,-0.045937,0.032632,-2.286243,4.546771,9.295410,0.327426,-1.687507,-0.292185,162.739311,-101.761650,173.681766,0.770899,-0.083137,-0.629194,0.054016,1861.124512,81307.460938,0.050700,0.159812,0.868530,0.293091,0.281254,16.500000,21.519121,0,0.000000,0," 202"
148," 101",263904,263901,1,1,1.677853,9.676937,0.553404,0.026616,0.005936,0.035860,-1.805717,5.507823,9.295410,-0.457108,0.248463,-0.487614,168.706847,-107.539758,179.042945,0.803150,-0.073518,-0.588909,0.052264,1861.266602,81302.976562,0.609382,0.044304,0.868530,0.435181,0.281629,16.500000,21.505558,0,0.000000,0," 202"
149," 101",266062,266037,1,1,1.711637,9.686760,0.564785,-0.010428,-0.009669,0.052010,-2.286243,5.027297,9.295410,0.195882,-1.075577,0.638123,169.480913,-107.868898,179.963122,0.804958,-0.073910,-0.586256,0.053707,1861.048828,81307.351562,0.322616,-0.032404,0.868530,0.217407,0.084327,16.500000,21.460346,0,0.000000,0," 202"
150," 101",268222,268216,1,1,1.823734,9.642632,0.590304,0.010703,-0.012377,0.030305,-0.844666,5.507823,9.295410,-0.280692,-0.747670,-0.068461,168.584409,-107.859786,179.743340,0.804346,-0.079245,-0.586041,0.057481,1861.046753,81311.710938,0.414813,0.167543,0.868530,0.215332,0.238565,16.625000,21.446781,0,0.000000,0," 202"
151," 101",270388,270363,1,1,1.803289,9.660043,0.589187,-0.015252,0.057044,0.043386,-2.286243,6.949400,9.295410,-0.466736,1.138767,1.129647,168.986639,-108.358964,-179.547737,0.807132,-0.078411,-0.582332,0.057266,1861.092773,81309.062500,0.051433,0.057913,0.868530,0.261353,0.270166,16.500000,21.406090,0,0.000000,0," 202"
152," 101",272600,272556,1,1,1.769329,9.646049,0.583114,-0.013699,0.008150,0.023284,-2.286243,5.507823,8.814884,0.130086,-0.702207,-0.763570,169.502277,-108.660059,-179.492863,0.808739,-0.076888,-0.580336,0.056924,1861.053345,81310.062500,-0.505959,0.152711,0.868530,0.221924,0.379128,16.500000,21.374441,0,0.000000,0," 202"
153," 101",274733,274712,1,1,1.752981,9.660498,0.585674,-0.023801,0.006446,0.034678,-1.805717,5.027297,8.334359,0.691576,0.243647,-0.191720,169.804158,-108.944085,-179.289283,0.810360,-0.076295,-0.578276,0.055609,1860.950195,81310.078125,-1.040438,-0.093967,0.868530,0.118774,0.291838,16.500000,21.342791,0,0.000000,0," 202"
154," 101",276885,276850,1,1,1.767131,9.643872,0.573095,0.015547,0.015509,0.009976,-2.286243,5.027297,9.295410,-0.458622,-0.438101,0.080401,169.526852,-109.160336,-179.541358,0.811322,-0.075698,-0.576936,0.056312,1860.886719,81314.578125,-0.284594,-0.121693,0.868530,0.055298,0.282867,16.500000,21.324705,0,0.000000,0," 202"
155," 101",279076,279037,1,1,1.753188,9.650920,0.579937,0.010792,-0.004679,0.024992,-2.286243,4.066245,9.775936,-0.710065,1.941802,0.041865,169.584677,-109.350611,-179.589101,0.812283,-0.076009,-0.575579,0.055920,1860.984863,81309.679688,-0.375324,-0.025964,0.868530,0.153442,0.239456,16.500000,21.293056,0,0.000000,0," 202"
156," 101",281209,281201,1,1,1.766493,9.646490,0.588917,-0.020187,-0.010918,0.023539,-0.364140,5.027297,9.775936,0.382629,-0.159106,-0.402094,170.211265,-109.817305,-178.862738,0.814741,-0.076428,-0.571966,0.056669,1861.325684,81307.726562,0.710907,0.160254,0.868530,0.494263,0.351935,16.375000,21.261406,0,0.000000,0," 202"
157," 101",283296,283273,1,1,1.746756,9.626402,0.582400,-0.037616,0.064349,-0.000367,-2.286243,5.027297,10.256462,0.024431,-1.185553,4.737144,170.075535,-109.660477,-178.643147,0.813738,-0.077498,-0.572965,0.059463,1861.090576,81307.164062,-0.171161,-0.172971,0.868530,0.259155,0.204658,16.375000,21.247841,0,0.000000,0," 202"
158," 101",285382,285344,1,1,1.674055,9.657094,0.576967,-0.026630,0.135639,0.016113,-2.286243,6.468874,8.334359,-0.144544,0.269568,1.151444,169.564842,-109.605992,-179.208031,0.813949,-0.073919,-0.573728,0.053479,1860.919312,81310.679688,-0.514717,-0.211056,0.868530,0.087891,0.212899,16.375000,21.229755,0,0.000000,0," 202"
159," 101",287488,287456,1,1,1.706417,9.676206,0.569675,-0.000169,0.019250,0.041000,-0.844666,6.468874,9.775936,-0.203119,-0.039220,0.583092,169.694452,-109.085252,-179.642294,0.811155,-0.074250,-0.577569,0.054117,1860.858643,81314.484375,-0.133226,-0.083234,0.868530,0.027222,0.132172,16.375000,21.202627,0,0.000000,0," 202"
160," 101",289650,289624,1,1,1.699159,9.655655,0.572645,-0.007051,0.005287,0.019726,-1.325191,5.988348,8.814884,0.446545,-0.253251,1.710156,169.606711,-108.686430,-179.833649,0.809142,-0.074428,-0.580414,0.053571,1861.187988,81308.453125,0.592448,0.108510,0.868530,0.356567,0.269827,16.375000,21.175497,0,0.000000,0," 202"
161," 101",291745,291702,1,1,1.605543,9.674166,0.543948,0.043179,-0.016720,0.020455,-0.364140,5.507823,8.814884,-0.763201,-0.113580,-1.953449,169.163869,-108.300606,178.952076,0.807407,-0.071200,-0.583720,0.047918,1861.030884,81305.234375,0.326586,-0.109717,0.868530,0.199463,0.088409,16.375000,21.152889,0,0.000000,0," 202"
162," 101",293847,293832,1,1,1.631411,9.650797,0.552258,0.012849,-0.014052,0.002265,-2.766768,6.468874,8.334359,-0.606671,-0.071235,0.134264,169.546810,-108.355193,179.561042,0.807662,-0.071630,-0.583120,0.050222,1860.774170,81313.382812,-0.695678,0.048737,0.868530,-0.057251,0.147252,16.375000,21.112194,0,0.000000,0," 202"
163," 101",296076,296053,1,1,1.630641,9.693829,0.568061,0.001951,-0.011555,0.045414,-2.286243,5.988348,8.814884,-0.130490,0.674719,-0.058410,169.516594,-108.427498,179.524132,0.808027,-0.071691,-0.582620,0.050067,1860.778320,81312.125000,-0.555400,-0.086054,0.868530,-0.053101,0.035790,16.375000,21.089586,0,0.000000,0," 202"
164," 101",298239,298226,1,1,1.623776,9.673118,0.553002,0.013576,0.011622,0.023019,-1.325191,5.507823,9.775936,-0.106898,-1.224106,-0.301713,169.601274,-108.734706,179.709544,0.809563,-0.071392,-0.580446,0.050937,1860.935791,81307.500000,0.034010,-0.075040,0.868530,0.104370,0.130842,16.250000,21.048891,0,0.000000,0," 202"
165," 101",300401,300396,1,1,1.584347,9.697475,0.567439,-0.018980,-0.001270,0.041399,-3.247294,5.027297,10.736988,-0.299591,-0.735859,-0.525817,169.811822,-108.382938,179.627855,0.807976,-0.070668,-0.582934,0.048659,1860.845947,81309.609375,-0.064733,-0.063979,0.868530,0.014526,0.055609,16.250000,21.012718,0,0.000000,0," 202"
166," 101",302553,302533,1,1,1.599230,9.687126,0.564673,-0.012710,-0.001116,0.033462,-2.286243,5.507823,9.295410,-0.581204,0.324809,-0.167115,169.543545,-108.023683,179.436842,0.806026,-0.070855,-0.585529,0.049585,1860.910278,81310.742188,-0.348492,0.072062,0.868530,0.078857,0.072140,16.250000,20.976545,0,0.000000,0," 202"
167," 101",304711,304704,1,1,1.596120,9.688376,0.559631,-0.007024,-0.018191,0.033889,-2.286243,5.027297,7.853833,0.089991,-0.111002,-0.284407,169.916952,-108.532567,179.697154,0.808690,-0.070656,-0.581882,0.049410,1860.902100,81308.640625,0.004570,0.077097,0.868530,0.070679,0.140847,16.125000,20.949413,0,0.000000,0," 202"
168," 101",306905,306886,1,1,1.616382,9.678254,0.563459,0.010388,-0.008175,0.027459,-0.844666,5.988348,8.334359,0.041421,0.835079,0.306390,169.407994,-108.417403,179.356465,0.807980,-0.071599,-0.582749,0.049444,1860.995850,81308.921875,-0.170432,0.194029,0.868530,0.164429,0.224889,16.250000,20.908718,0,0.000000,0," 202"
169," 101",309041,309011,1,1,1.617277,9.685405,0.565679,-0.002503,0.001629,0.034783,-1.805717,5.027297,9.295410,-0.074339,0.676499,-1.143088,169.290828,-107.966842,179.295157,0.805640,-0.071878,-0.585907,0.049919,1861.130615,81308.359375,0.425544,-0.015355,0.868530,0.299194,0.169375,16.250000,20.863499,0,0.000000,0," 202"
170," 101",311197,311161,1,1,0.901322,9.770782,0.222320,-0.005932,0.094170,0.013331,-3.247294,3.585718,8.814884,0.584786,-0.635781,1.519037,166.643529,-95.709016,172.528516,0.739932,-0.042618,-0.670664,0.029888,1860.973267,81305.554688,-0.270018,-0.299640,0.868530,0.141846,0.224365,16.125000,20.827324,0,0.000000,0," 202"
171," 101",313362,313350,1,1,0.431293,9.795085,0.257650,-0.018721,-0.037766,0.006870,-3.247294,4.066245,8.814884,0.775553,-0.092183,-0.436515,166.297990,-95.813231,168.678147,0.741049,-0.022435,-0.671040,0.006899,1860.977783,81310.046875,-0.701376,0.094863,0.868530,0.146362,0.296148,16.125000,20.809237,0,0.000000,0," 202"
172," 101",315540,315502,1,1,0.449159,9.827169,0.270984,-0.014764,-0.032710,0.040095,-4.208346,5.027297,9.295410,-0.288363,1.034424,-1.654487,164.778232,-95.623605,167.283531,0.739748,-0.023813,-0.672425,0.007066,1861.013306,81309.484375,-0.468678,0.020854,0.868530,0.181885,0.294528,16.125000,20.795671,0,0.000000,0," 202"
173," 101",317691,317680,1,1,0.501838,9.815220,0.233182,-0.003223,0.308284,0.024971,-3.247294,5.988348,7.853833,-0.033987,-0.552607,7.514143,161.788016,-94.748357,166.566758,0.734068,-0.037441,-0.677703,0.021467,1861.071533,81309.625000,0.086369,0.161561,0.868530,0.240112,0.280884,16.125000,20.759495,0,0.000000,0," 202"
174," 101",319887,319873,1,1,0.175332,9.811328,0.264221,-0.021520,0.035697,0.015362,-2.766768,2.624667,9.295410,-0.410284,0.805466,3.189934,162.002306,-94.643076,163.298854,0.733821,-0.016535,-0.679141,-0.000547,1861.174561,81304.015625,0.056864,0.048608,0.868530,0.343140,0.242212,16.125000,20.750450,0,0.000000,0," 202"
175," 101",322009,321994,1,1,0.298540,9.884500,0.073244,-0.016444,-0.005157,0.088263,-3.727820,5.988348,8.814884,-0.520611,0.177779,0.295898,175.038692,-93.787609,176.755897,0.729949,-0.012262,-0.683333,0.008918,1860.958618,81309.625000,0.048350,-0.094443,0.868530,0.127197,0.118831,16.000000,20.727840,0,0.000000,0," 202"
176," 101",324171,324136,1,1,0.469810,-9.805854,-0.242092,0.068050,-0.414009,0.010119,-2.286243,-4.546771,-7.853833,-0.401682,0.494399,-10.393349,9.201990,-81.334166,-176.093533,0.011748,-0.651520,-0.026321,0.758083,1861.121826,81306.953125,0.689216,0.198860,0.868530,0.290405,0.104651,16.125000,20.718798,0,0.000000,0," 202"
177," 101",326255,326235,1,1,-0.033797,9.872828,0.230130,0.011509,-0.056543,0.074399,-3.247294,4.546771,8.814884,2.993866,-0.466239,-8.147487,169.683619,-97.608936,169.242348,0.751670,-0.005863,-0.659417,-0.011297,1860.911621,81307.093750,0.506176,0.026934,0.868530,0.080200,-0.052528,16.000000,20.682621,0,0.000000,0," 202"
178," 101",328335,328295,1,1,0.167162,9.821055,0.082108,-0.001644,-0.007883,0.021818,-3.727820,5.507823,9.295410,-0.823407,-0.567980,-0.416435,176.675274,-98.010141,177.638563,0.754682,-0.008379,-0.656028,0.003480,1860.837158,81311.859375,0.162673,-0.069921,0.868530,0.005737,-0.000063,16.000000,20.687143,0,0.000000,0," 202"
179," 101",330427,330415,1,1,0.052896,9.808104,0.066699,0.022880,-0.002022,0.007446,-2.766768,6.468874,7.853833,-0.689786,0.021188,-0.966741,175.901222,-97.304596,176.214701,0.750605,-0.005027,-0.660731,-0.001166,1860.937012,81309.476562,0.326522,0.121012,0.868530,0.105591,0.054295,16.000000,20.669054,0,0.000000,0," 202"
180," 101",332516,332511,1,1,0.417955,-9.819755,-0.098094,0.050116,0.036518,0.027939,-3.247294,-5.027297,-7.373307,-0.709965,-0.036690,1.404968,179.289529,-38.111865,-2.514447,0.001305,-0.944999,-0.018714,0.326535,1860.765137,81313.679688,0.068307,0.053178,0.868530,-0.066284,0.030815,16.000000,20.660009,0,0.000000,0," 202"
181," 101",334616,334568,1,1,0.073044,9.822288,0.145994,-0.010606,-0.010245,0.022633,-2.286243,5.507823,8.814884,0.266784,0.149622,-0.485163,0.968624,-155.295361,0.749752,0.213964,-0.004583,-0.976807,-0.006857,1860.810059,81307.789062,0.056784,-0.132138,0.868530,-0.021362,-0.071818,16.000000,20.660009,0,0.000000,0," 202"
182," 101",336882,336878,1,1,-0.423835,9.725550,-0.373583,-0.137212,-0.234629,-0.062846,-3.247294,6.468874,6.892781,1.110269,3.846168,-18.897317,178.459633,-28.036137,175.418341,0.242921,0.026748,-0.969599,0.012320,1860.831055,81309.617188,-0.005328,-0.208295,0.868530,-0.000366,0.038282,16.000000,20.664532,0,0.000000,0," 202"
183," 101",338989,338980,1,1,0.623492,-9.797507,-0.089891,-0.007760,0.000989,0.016735,-3.247294,-5.027297,-7.853833,-0.133390,-1.175715,0.805989,177.029542,-78.929010,-6.559569,-0.016374,0.771438,0.027706,-0.635491,1860.836670,81311.437500,-0.370980,-0.014448,0.868530,0.005249,0.056344,16.000000,20.637400,0,0.000000,0," 202"
184," 101",341157,341145,1,1,0.380233,-9.754717,0.619664,0.038154,0.037063,-0.019373,-2.766768,-4.546771,-6.892781,-1.734810,-0.784470,2.088233,13.161901,-106.852518,-169.345101,-0.036683,0.800693,-0.006079,-0.597919,1860.819824,81310.453125,-0.094510,0.041386,0.868530,-0.011597,0.003257,16.000000,20.637400,0,0.000000,0," 202"
185," 101",343261,343213,1,1,1.006628,-9.779780,-0.084369,0.002950,-0.000778,0.026774,-1.325191,-5.027297,-9.775936,0.142277,-1.124129,-0.097107,178.550543,-73.743934,-7.238447,-0.027776,0.798798,0.042920,-0.599423,1860.885620,81304.281250,-0.394735,-0.078348,0.868530,0.054199,0.009407,15.875000,20.614790,0,0.000000,0," 202"
186," 101",345376,345348,1,1,1.015020,-9.774589,-0.080168,-0.003459,-0.004767,0.026474,-2.766768,-4.066245,-8.814884,0.073930,1.054606,-0.225074,178.713512,-68.289809,-7.157041,-0.025758,0.826348,0.045365,-0.560738,1860.802246,81310.304688,-0.039863,-0.069853,0.868530,-0.029175,-0.014055,16.000000,20.610268,0,0.000000,0," 202"
187," 101",347501,347464,1,1,0.937721,9.769671,0.092747,-0.073909,-0.082009,0.013388,-2.286243,5.027297,7.373307,-0.291385,0.597787,-1.484845,0.817472,-137.363191,5.394635,-0.363451,0.041248,0.930641,-0.010470,1860.639648,81314.796875,-0.904525,0.090632,0.868530,-0.191772,0.087367,15.875000,20.623833,0,0.000000,0," 202"
188," 101",349623,349579,1,1,0.581920,9.810209,0.116204,-0.005178,-0.006026,0.027137,-2.286243,5.507823,8.814884,0.381739,0.423306,0.288451,0.959524,-135.225328,4.024350,-0.380883,0.029601,0.924131,-0.005800,1860.740479,81314.234375,0.191708,-0.043464,0.868530,-0.090942,-0.089958,16.000000,20.610268,0,0.000000,0," 202"
189," 101",351753,351739,1,1,0.392765,9.811615,0.125799,0.192835,0.140752,0.016377,-2.766768,6.468874,8.334359,-0.489959,1.993537,9.453787,1.347663,-134.912055,4.622975,-0.383492,0.032742,0.922952,-0.004609,1860.689453,81312.687500,-0.262095,0.130302,0.868530,-0.141968,0.020206,15.875000,20.596701,0,0.000000,0," 202"
190," 101",353879,353834,1,1,1.014745,-9.827392,0.364770,-1.812653,-2.037208,-0.298134,-1.805717,-5.507823,-6.412255,-19.506199,3.979541,1.178900,176.832928,-61.369038,-24.272394,-0.046315,0.858544,0.048114,-0.508372,1860.897461,81308.898438,-0.331015,-0.073500,0.868530,0.066040,0.071518,15.875000,20.592178,0,0.000000,0," 202"
191," 101",356014,356003,1,1,0.518752,10.071392,-0.150905,1.258282,2.717257,-0.169902,-2.286243,5.988348,7.853833,5.696732,0.513208,-1.484624,6.210081,-106.390366,25.983568,-0.600140,0.029347,0.798846,-0.028561,1860.896484,81311.843750,0.857351,0.166874,0.868530,0.065063,0.019843,15.875000,20.592178,0,0.000000,0," 202"
192," 101",358217,358211,1,1,0.997420,-9.763684,-0.115524,0.021049,0.008589,0.014152,-1.805717,-5.988348,-8.814884,-0.111793,0.239085,0.442194,178.550653,-66.322940,-7.065008,-0.022935,0.835849,0.045692,-0.546574,1860.981934,81305.671875,0.758797,-0.077051,0.868530,0.150513,-0.041277,15.875000,20.569569,0,0.000000,0," 202"
193," 101",360395,360360,1,1,1.067275,-9.640150,0.327541,-0.024840,0.000790,-0.096453,-1.805717,-5.988348,-8.814884,-7.938042,0.752404,-0.831234,4.932857,-111.373495,178.228568,-0.044925,0.824770,0.036083,-0.562525,1860.730591,81315.210938,0.568876,0.153167,0.868530,-0.100830,-0.065026,15.875000,20.578611,0,0.000000,0," 202"
194," 101",362471,362442,1,1,0.823325,9.672044,-0.650283,0.008467,-0.073751,-0.072503,-1.325191,5.988348,7.853833,-5.647489,-0.399736,-2.145039,169.129185,-70.318771,174.221761,-0.576370,0.015102,0.815427,-0.051456,1860.822632,81311.281250,0.643687,-0.043240,0.868530,-0.008789,-0.041870,15.875000,20.578611,0,0.000000,0," 202"
195," 101",364572,364558,1,1,1.148116,9.746648,0.081729,0.002352,0.040245,0.013294,-2.286243,5.988348,8.334359,-0.041289,-0.309641,1.157879,1.715621,-104.564732,8.609637,-0.610865,0.050237,0.789403,-0.034107,1860.595093,81313.109375,-0.948503,-0.020960,0.868530,-0.236328,-0.057476,15.875000,20.583134,0,0.000000,0," 202"
196," 101",366665,366650,1,1,1.068012,9.756406,0.085698,-0.035077,-0.174531,0.012448,-2.286243,5.988348,7.853833,0.647902,-0.212802,-7.385344,2.251875,-104.165999,7.392568,-0.614122,0.038799,0.787887,-0.024139,1860.724854,81313.242188,-0.326412,0.056336,0.868530,-0.106567,-0.031529,15.875000,20.578611,0,0.000000,0," 202"
197," 101",368785,368774,1,1,0.592195,9.796797,0.130133,0.024397,0.055960,0.014352,-2.766768,5.027297,8.814884,-0.679147,0.548461,2.882758,3.422061,-103.868135,7.133005,-0.616562,0.030580,0.786572,-0.014875,1860.701050,81309.460938,-0.755214,-0.172247,0.868530,-0.130371,-0.036862,15.875000,20.574089,0,0.000000,0," 202"
198," 101",370874,370867,1,1,-0.110826,9.788080,0.142809,0.016784,0.051758,-0.011402,-5.169398,4.546771,8.814884,-0.897263,1.129700,2.125230,3.626629,-103.719489,3.192314,-0.617733,0.002362,0.786347,0.007684,1860.723877,81313.101562,-0.219190,-0.081085,0.868530,-0.107544,-0.059225,15.875000,20.551479,0,0.000000,0," 202"
199," 101",372966,372959,1,1,-0.312800,9.829543,0.325703,-0.092960,0.052625,0.038331,-2.766768,6.468874,8.814884,0.775676,0.929400,0.878725,5.500614,-103.676042,3.693386,-0.618070,-0.004324,0.785909,0.017820,1860.618408,81313.375000,-0.095916,-0.148645,0.868530,-0.213013,-0.152087,15.875000,20.542435,0,0.000000,0," 202"
200," 101",375135,375104,1,1,-0.245982,9.794823,-0.013138,0.003257,0.012609,-0.003089,-2.766768,5.988348,9.295410,-0.235299,-0.931896,-0.295403,179.685010,-76.004153,178.331923,-0.615654,-0.009778,0.787927,0.006796,1860.368164,81316.742188,-0.176684,-0.171259,0.868530,-0.463257,-0.327576,15.875000,20.528868,0,0.000000,0," 202"
201," 101",377235,377227,1,1,-0.194714,-9.824435,-0.004989,0.020335,0.004082,0.025344,-3.727820,-6.468874,-8.334359,1.020172,-0.165124,0.631966,0.572957,-98.497468,-178.256859,-0.006608,-0.757512,0.007432,0.652746,1860.407959,81314.070312,-0.256404,-0.226560,0.868530,-0.423462,-0.334827,15.750000,20.519823,0,0.000000,0," 202"
202," 101",379332,379283,1,1,-0.000049,-9.800513,-0.042265,-0.008931,0.007360,-0.000402,-3.247294,-5.988348,-8.814884,-0.174552,-1.300469,-0.173345,177.938394,-81.487845,-2.003798,-0.002217,-0.757601,-0.001506,0.652712,1860.645874,81313.648438,0.476936,0.100558,0.868530,-0.185547,-0.261897,15.875000,20.501734,0,0.000000,0," 202"
203," 101",381436,381436,1,1,0.078541,9.817389,0.005425,-0.009290,-0.006280,0.016699,-3.247294,3.585718,7.373307,-0.265160,0.745791,-0.662900,0.041007,-149.000508,0.414139,0.267234,-0.003387,-0.963626,0.000621,1860.698730,81309.296875,-0.031399,-0.056952,0.868530,-0.132690,-0.231409,15.875000,20.483646,0,0.000000,0," 202"
204," 101",383540,383532,1,1,-0.011490,9.770565,0.000031,0.023938,0.007080,-0.030460,-2.766768,5.988348,8.814884,0.098525,-0.910969,0.865721,0.044090,-148.686730,0.097044,0.269872,-0.000712,-0.962896,-0.000142,1860.656738,81312.234375,0.539113,-0.124700,0.868530,-0.174683,-0.278318,15.750000,20.451990,0,0.000000,0," 202"
205," 101",385691,385691,1,1,0.053701,9.846992,0.024594,-0.013278,0.006217,0.046158,-4.208346,5.027297,7.853833,-0.900607,-0.334302,-0.281916,0.084334,-148.802843,0.308793,0.268897,-0.002398,-0.963166,0.000016,1860.450195,81315.304688,-0.915639,0.057607,0.868530,-0.381226,-0.208540,15.875000,20.415812,0,0.000000,0," 202"
206," 101",387987,387982,1,1,0.053209,-9.824216,0.007805,-2.580715,-1.536802,-0.447056,-4.688872,-6.468874,-8.814884,0.132343,-0.253338,0.007378,0.373919,-150.087437,162.075908,0.005323,-0.966090,-0.017458,0.257560,1860.513306,81314.312500,0.316402,0.111012,0.868530,-0.318115,-0.354310,15.750000,20.384155,0,0.000000,0," 202"
207," 101",390107,390070,1,1,0.066178,-9.838879,-0.003235,0.025075,0.009192,0.038065,-3.247294,-4.546771,-9.775936,-0.227843,-0.182492,0.856642,0.008586,-150.138759,179.772191,0.000585,-0.966237,-0.001940,0.257649,1860.676025,81308.968750,0.429113,-0.024574,0.868530,-0.155396,-0.327230,15.750000,20.334408,0,0.000000,0," 202"
208," 101",392304,392301,1,1,0.827376,9.763808,-0.064319,0.022895,-0.057949,-0.002186,-1.805717,6.949400,8.814884,1.906616,1.491797,-0.666653,179.986509,-24.595689,-175.181293,0.212800,-0.041099,-0.976189,0.009069,1860.395020,81316.109375,-0.237606,-0.191194,0.868530,-0.436401,-0.382081,15.750000,20.325363,0,0.000000,0," 202"
209," 101",394424,394418,1,1,0.952461,-9.769539,0.062439,-0.028274,0.001275,0.015016,-1.805717,-5.507823,-8.334359,-0.837219,-1.276807,-1.233017,0.317984,-155.884356,174.414003,0.012890,-0.976744,-0.048231,0.208518,1860.558838,81311.757812,0.072034,-0.017049,0.868530,-0.272583,-0.400905,15.625000,20.307274,0,0.000000,0," 202"
210," 101",396549,396499,1,1,0.992664,-9.807532,0.095159,0.285936,0.104296,-0.007085,-1.805717,-5.507823,-7.853833,0.736096,1.990724,3.222509,0.491318,-156.203776,176.318410,0.010816,-0.977973,-0.032315,0.205929,1860.624268,81311.601562,-0.119297,0.341260,0.868530,-0.207153,-0.240429,15.625000,20.280140,0,0.000000,0," 202"
211," 101",398689,398674,1,1,0.981143,-9.788504,-0.064707,-0.012710,0.011095,0.036751,-2.286243,-5.507823,-7.853833,0.690259,0.711951,0.792324,179.493779,-23.167981,-5.965675,0.006127,-0.978341,-0.050091,0.200755,1860.756348,81311.726562,0.580137,0.038181,0.868530,-0.075073,-0.208276,15.625000,20.243959,0,0.000000,0," 202"
212," 101",400818,400807,1,1,0.597075,9.772971,0.025233,0.147481,0.067544,-0.011118,-1.325191,5.507823,8.334359,0.022974,1.227814,9.285886,0.150176,-156.024292,4.506351,0.207594,-0.038186,-0.977445,0.006885,1860.723877,81310.867188,0.054111,0.133323,0.868530,-0.107544,-0.128743,15.625000,20.207779,0,0.000000,0," 202"
213," 101",403008,402985,1,1,1.488946,-9.767050,0.361680,0.220646,0.175237,0.081492,-3.247294,-5.507823,-6.892781,2.182781,10.047039,-0.755395,1.435187,-166.898200,173.134476,0.019251,-0.991525,-0.060908,0.113127,1860.430664,81311.695312,-0.922163,-0.328578,0.868530,-0.400757,-0.246258,15.625000,20.180643,0,0.000000,0," 202"
214," 101",405087,405086,1,1,1.192251,-9.753179,0.310148,0.011072,-0.017475,0.029652,-2.766768,-5.507823,-7.373307,-0.814072,-1.793035,0.372316,2.009974,-163.193519,173.644309,0.025424,-0.987449,-0.057391,0.144930,1860.641602,81315.031250,0.005475,0.095964,0.868530,-0.189819,-0.158606,15.625000,20.135418,0,0.000000,0," 202"
215," 101",407181,407178,1,1,1.568910,-9.733178,-0.197838,-0.292154,0.142285,0.054444,-0.844666,-5.507823,-8.334359,-0.488523,-1.162090,-1.994815,177.344209,-19.669273,-11.371480,-0.005804,-0.980586,-0.093651,0.172181,1860.716797,81309.953125,0.276551,-0.002751,0.868530,-0.114624,-0.166942,15.500000,20.076624,0,0.000000,0," 202"
216," 101",409329,409278,1,1,2.535048,-9.515546,0.314254,-0.049354,0.005299,0.051328,-0.844666,-3.585718,-7.853833,0.116187,0.690408,-2.511610,1.775959,-168.573085,165.158865,0.028604,-0.986665,-0.127824,0.096621,1860.674561,81313.851562,0.299998,-0.079968,0.868530,-0.156860,-0.217204,15.500000,20.044964,0,0.000000,0," 202"
217," 101",411413,411386,1,1,1.258331,-9.711604,0.413862,-0.017776,-0.005374,0.000509,-2.286243,-5.988348,-8.334359,0.213045,-0.811385,-1.257374,2.491733,-166.920999,173.073114,0.028440,-0.991295,-0.062476,0.112348,1860.586426,81316.640625,-0.143224,0.019960,0.868530,-0.244995,-0.163027,15.375000,20.017828,0,0.000000,0," 202"
218," 101",413504,413485,1,1,0.584227,-9.791119,0.329610,-0.017017,0.063496,0.012850,-2.766768,-5.988348,-8.334359,-0.462771,-0.464751,1.682580,1.586105,-166.302566,176.952224,0.016908,-0.992374,-0.028051,0.118829,1860.686523,81313.265625,0.291961,0.124134,0.868530,-0.144897,-0.244147,15.500000,19.999737,0,0.000000,0," 202"
219," 101",415594,415548,1,1,1.150909,-9.786290,-0.017551,0.064160,-0.039152,-0.008097,-2.286243,-5.027297,-8.814884,-2.871147,1.055397,0.876914,0.122335,-165.351025,173.425866,0.006211,-0.990041,-0.059697,0.127344,1860.572998,81314.085938,0.199511,-0.047047,0.868530,-0.258423,-0.283280,15.375000,19.972601,0,0.000000,0," 202"
220," 101",417691,417665,1,1,0.093077,-9.736718,0.112302,0.304392,0.071607,-0.068211,-2.286243,-6.468874,-7.373307,-8.592419,-0.761871,23.208534,0.748267,-164.859170,-178.512936,0.006188,-0.991240,-0.002379,0.131908,1860.783936,81310.710938,0.312154,0.107646,0.868530,-0.047485,-0.152911,15.375000,19.954510,0,0.000000,0," 202"
221," 101",419813,419770,1,1,-0.075849,-9.771447,0.085819,-0.070971,-0.004064,-0.029140,-3.727820,-5.027297,-8.334359,0.177819,0.270895,-3.057041,0.429194,-164.232978,-179.845588,0.003525,-0.990542,0.000821,0.137163,1860.562256,81314.765625,-0.000162,0.031225,0.868530,-0.269165,-0.185209,15.375000,19.949986,0,0.000000,0," 202"
222," 101",421964,421954,1,1,-0.040509,9.797508,-0.039858,-2.783552,-1.240679,-0.489343,-3.727820,5.988348,8.334359,-0.448909,-0.011414,-1.874604,176.717184,-31.786707,160.083679,-0.274375,-0.158524,0.948251,0.020203,1860.602539,81310.828125,-0.422816,-0.888017,0.868530,-0.228882,-0.208331,15.375000,19.918327,0,0.000000,0," 202"
223," 101",424070,424056,1,1,0.136193,-9.819422,0.039181,-0.021186,0.001644,0.019421,-2.766768,-5.027297,-8.814884,0.050094,-0.872091,-0.253559,0.232956,174.115141,179.057548,-0.001608,0.998647,0.008109,0.051347,1860.748291,81310.390625,0.358550,0.012827,0.868530,-0.083130,-0.217818,15.375000,19.900234,0,0.000000,0," 202"
224," 101",426269,426237,1,1,0.162799,-9.803629,-0.000308,0.129597,-0.018130,0.003107,-2.286243,-4.546771,-8.814884,-0.149948,0.976710,-0.590918,0.023542,173.925289,179.810440,0.000398,0.998566,0.007625,0.052984,1860.681396,81308.976562,-0.572757,-0.145660,0.868530,-0.150024,-0.146581,15.250000,19.882143,0,0.000000,0," 202"
225," 101",428388,428369,1,1,0.178396,-9.778872,0.023736,0.013375,0.001644,-0.020482,-3.247294,-5.507823,-8.334359,-0.192434,-1.168811,0.734127,0.122515,174.497441,179.020187,-0.000657,0.998811,0.008489,0.048008,1860.792480,81311.210938,0.055872,-0.026141,0.868530,-0.038940,-0.139435,15.250000,19.873098,0,0.000000,0," 202"
226," 101",430499,430485,1,1,0.207540,-9.836756,0.040296,-0.015387,0.003284,0.038015,-2.766768,-5.027297,-8.814884,-0.496614,0.454778,-0.139842,0.225560,174.343078,178.678036,-0.001397,0.998714,0.011425,0.049365,1860.833984,81312.734375,0.669374,0.029562,0.868530,0.002563,-0.137574,15.250000,19.855007,0,0.000000,0," 202"
227," 101",432641,432618,1,1,0.251751,-9.816065,0.047042,-0.003377,-0.010765,0.018399,-2.766768,-4.546771,-8.814884,0.349167,1.030298,0.134969,0.340910,173.966913,178.482036,-0.001773,0.998527,0.012943,0.052653,1860.837891,81307.125000,0.184605,0.072486,0.868530,0.006470,-0.140920,15.250000,19.845961,0,0.000000,0," 202"
228," 101",434809,434777,1,1,0.785608,9.781583,0.169100,-0.014013,-0.012395,0.013519,-2.766768,4.546771,8.334359,1.065013,-0.088174,-0.012647,1.095981,168.596745,4.309248,0.098915,0.038358,0.994268,0.013245,1860.751953,81307.398438,-0.319609,-0.093705,0.868530,-0.079468,-0.168465,15.250000,19.836914,0,0.000000,0," 202"
229," 101",436973,436942,1,1,0.787590,9.769502,0.179856,-0.009386,-0.007095,0.001840,-3.247294,5.988348,8.814884,0.106706,-1.118270,-0.294059,1.123879,168.832577,4.345563,0.096855,0.038685,0.994456,0.013443,1860.617065,81312.296875,-0.303891,-0.071215,0.868530,-0.214355,-0.149770,15.250000,19.836914,0,0.000000,0," 202"
230," 101",439129,439128,1,1,0.773049,9.769375,0.174516,0.015573,-0.006500,0.000452,-2.286243,4.546771,8.814884,0.160888,0.299570,0.406164,1.059336,169.146589,4.421462,0.094143,0.039274,0.994701,0.012844,1860.602295,81312.296875,-0.702501,-0.126095,0.868530,-0.229126,-0.181953,15.250000,19.836914,0,0.000000,0," 202"
231," 101",441295,441293,1,1,0.793814,9.781776,0.179649,0.013686,-0.015165,0.014556,-1.325191,4.546771,9.775936,-0.384755,-0.696773,-0.236510,1.140287,169.499136,4.526379,0.091042,0.040232,0.994942,0.013515,1860.602417,81316.625000,-0.565712,0.106756,0.868530,-0.229004,-0.022195,15.125000,19.823345,0,0.000000,0," 202"
232," 101",443556,443518,1,1,0.805849,9.799117,0.184950,0.018526,0.005465,0.032917,-1.805717,6.468874,7.853833,0.988528,-0.901963,-1.940265,1.044831,169.094939,4.603542,0.094576,0.040845,0.994596,0.012885,1860.780273,81309.062500,0.353727,-0.048237,0.868530,-0.051147,-0.184789,15.125000,19.814301,0,0.000000,0," 202"
233," 101",445648,445601,1,1,0.769404,9.804888,0.185674,0.041418,0.008268,0.035691,-1.805717,5.988348,8.814884,0.044998,-0.143115,1.118218,1.006929,169.268617,4.527473,0.093051,0.038296,0.994840,0.012988,1860.905518,81308.492188,0.472398,0.045544,0.868530,0.074097,-0.060074,15.125000,19.800732,0,0.000000,0," 202"
234," 101",447775,447749,1,1,0.792100,9.789070,0.175092,-0.020597,-0.003624,0.021603,-1.325191,3.585718,9.775936,0.154473,0.715908,0.764818,1.077318,170.404832,4.331558,0.083237,0.039368,0.995676,0.012278,1860.635620,81313.796875,0.011284,-0.007755,0.868530,-0.195801,-0.130320,15.250000,19.787163,0,0.000000,0," 202"
235," 101",449861,449819,1,1,0.778800,9.780315,0.176915,-0.006440,-0.003248,0.011866,-2.766768,5.027297,8.334359,-0.441668,-0.146846,0.031195,1.072367,170.579193,4.343270,0.081703,0.038531,0.995834,0.012431,1860.676514,81308.898438,-1.092538,-0.140007,0.868530,-0.154907,-0.135650,15.250000,19.787163,0,0.000000,0," 202"
236," 101",451952,451912,1,1,0.761590,9.787551,0.185757,0.017480,-0.013473,0.017869,-2.766768,6.468874,7.853833,-1.035842,-0.429202,0.371388,1.160637,170.493830,4.371240,0.082412,0.038843,0.995753,0.013246,1860.661255,81312.679688,-0.207536,0.101884,0.868530,-0.170166,-0.107605,15.125000,19.791685,0,0.000000,0," 202"
237," 101",454051,454008,1,1,0.735809,9.794502,0.173100,0.004155,-0.010421,0.022621,-1.805717,5.027297,9.295410,0.166206,-0.075494,0.042634,1.081040,170.258735,4.147501,0.084507,0.036854,0.995663,0.012466,1860.765625,81311.976562,-0.495805,0.226335,0.868530,-0.065796,-0.006833,15.125000,19.782639,0,0.000000,0," 202"
238," 101",456152,456106,1,1,0.723687,9.797272,0.191923,-0.002570,-0.003453,0.015144,-2.766768,5.027297,6.892781,0.311617,0.413659,-0.073882,1.106275,169.963506,4.087541,0.087078,0.036472,0.995454,0.012562,1860.864746,81310.289062,0.286902,0.070385,0.868530,0.033325,-0.055623,15.125000,19.773594,0,0.000000,0," 202"
239," 101",458256,458215,1,1,0.611271,-0.236679,9.866546,-3.038002,-0.625527,-0.411769,-2.766768,4.102695,-0.165419,-10.110441,-2.007642,0.001137,94.552037,-158.370995,-148.141585,-0.677484,0.683632,-0.154192,-0.223353,1860.900391,81306.937500,0.560120,0.062903,0.868530,0.068970,-0.123580,15.125000,19.787163,0,0.000000,0," 202"
240," 101",460428,460427,1,1,0.543011,-0.203650,9.844506,-0.000076,0.002134,0.060574,-3.727820,6.505324,0.315107,0.896825,-0.010632,0.186715,90.558480,-176.676776,-149.687680,-0.680274,0.684211,-0.163989,-0.205402,1860.660889,81312.679688,-0.221149,-0.028585,0.868530,-0.170532,-0.060750,15.000000,19.791685,0,0.000000,0," 202"
241," 101",462522,462497,1,1,0.503552,-0.257843,9.838806,-0.024305,-0.012970,0.054019,-1.805717,3.622169,0.315107,0.210290,0.303901,0.322080,90.255848,-176.572780,-149.740396,-0.678306,0.686297,-0.163607,-0.205255,1860.910645,81307.921875,0.347882,-0.089738,0.868530,0.079224,-0.085899,15.125000,19.787163,0,0.000000,0," 202"
242," 101",464630,464611,1,1,0.524771,-0.302646,9.813372,-0.008267,0.000270,0.031048,-2.286243,4.102695,1.276159,-0.923970,0.370286,1.161208,90.010241,-176.419415,-149.835376,-0.676729,0.688104,-0.162555,-0.205249,1860.952637,81309.742188,0.999145,0.125219,0.868530,0.121216,-0.045518,15.125000,19.791685,0,0.000000,0," 202"
243," 101",466736,466729,1,1,0.537750,-0.367904,9.846380,0.019368,-0.008574,0.066892,-2.286243,3.141643,0.315107,-1.353306,-0.201710,0.154310,89.788383,-176.335595,-149.583943,-0.674340,0.689581,-0.163435,-0.207442,1860.602661,81313.250000,-0.482837,-0.091265,0.868530,-0.228760,-0.132975,15.125000,19.805254,0,0.000000,0," 202"
244," 101",468847,468806,1,1,0.589645,-9.809255,-0.223584,0.087025,0.047015,0.028006,-3.247294,-4.546771,-7.853833,0.613747,0.732857,0.897841,178.525039,-21.776561,-3.414370,0.005648,0.981451,0.031140,-0.189084,1860.640503,81310.585938,-0.285707,-0.065753,0.868530,-0.190918,-0.184584,15.125000,19.796207,0,0.000000,0," 202"
245," 101",470968,470965,1,1,0.658664,9.794600,0.218395,-0.041037,-0.013032,0.018056,-2.286243,5.027297,7.853833,0.428860,0.168583,-0.985546,1.353092,-158.159601,4.100060,-0.189693,0.034845,0.981214,0.004581,1860.764282,81309.875000,0.210673,0.146174,0.868530,-0.067139,-0.132148,15.125000,19.787163,0,0.000000,0," 202"
246," 101",473085,473049,1,1,0.466198,-1.630957,9.684054,0.028936,0.049480,0.030327,-3.247294,3.622169,0.315107,4.430846,-8.128118,-2.735075,98.953206,-176.507483,-37.391724,-0.224790,0.230121,-0.607762,-0.726043,1860.826416,81308.054688,-0.189192,-0.025489,0.868530,-0.005005,-0.094042,15.125000,19.782639,0,0.000000,0," 202"
247," 101",475222,475193,1,1,-0.337982,-5.321812,8.144880,0.232010,1.418499,-0.172448,-2.766768,-1.183090,-1.126471,-123.379827,-15.784576,105.827409,111.196306,-165.704255,-22.094504,-0.087875,0.208186,-0.530541,-0.816984,1860.827026,81310.562500,0.957039,-0.045027,0.868530,-0.004395,-0.162753,15.125000,19.764547,0,0.000000,0," 202"
248," 101",477419,477383,1,1,1.166449,-9.765907,-0.108730,0.003975,-0.011776,0.026772,-2.766768,-4.546771,-8.814884,-0.495930,-0.178324,-0.792880,0.753973,-16.338972,173.270452,-0.058773,0.141501,0.014335,-0.988088,1860.690186,81313.500000,-0.228226,-0.038615,0.868530,-0.141235,-0.084511,15.000000,19.764547,0,0.000000,0," 202"
249," 101",479575,479541,1,1,1.491541,9.624433,-0.245176,0.549698,-0.147676,-0.035989,-2.286243,3.585718,7.373307,0.604516,0.275444,0.032496,179.223139,-162.831805,-175.528253,-0.987983,0.012521,0.148882,-0.039587,1860.791992,81307.351562,0.323300,0.089362,0.868530,-0.039429,-0.203743,15.000000,19.773594,0,0.000000,0," 202"
250," 101",481758,481739,1,1,0.626388,-1.279036,9.896845,-0.044895,0.131785,0.196822,-2.286243,-6.505324,18.425402,1.262225,-1.935294,-2.310698,81.675587,-176.606494,176.271186,-0.654016,0.755202,0.043956,-0.001124,1860.666992,81314.781250,-0.056513,-0.153424,0.868530,-0.164429,-0.050200,15.000000,19.787163,0,0.000000,0," 202"
251," 101",483950,483939,1,1,2.886470,9.707405,3.072559,-2.617939,0.508917,0.440750,-0.844666,5.988348,11.698040,102.563056,-16.437906,8.783557,160.280716,-177.854069,-149.121785,-0.948657,0.169938,-0.027794,-0.265327,1860.723755,81309.875000,0.011455,-0.083720,0.868530,-0.107666,-0.129303,15.000000,19.787163,0,0.000000,0," 202"
252," 101",486075,486040,1,1,1.379706,9.720928,-0.006239,-0.008111,0.004512,0.017947,-2.286243,4.066245,7.853833,-0.165048,-0.031672,-0.528975,179.958751,171.277539,-171.860182,-0.994617,-0.005273,-0.075862,-0.070387,1860.663574,81314.093750,-0.268762,0.009435,0.868530,-0.167847,-0.136314,15.000000,19.809776,0,0.000000,0," 202"
253," 101",488159,488128,1,1,1.425722,9.727921,-0.009536,0.008043,0.014413,0.030833,-1.805717,6.468874,9.295410,0.281371,-0.509776,-0.495084,179.979432,171.262868,-171.718059,-0.994493,-0.005322,-0.075986,-0.071987,1860.738770,81312.140625,0.066758,0.066494,0.868530,-0.092651,-0.079792,15.000000,19.809776,0,0.000000,0," 202"
254," 101",490245,490204,1,1,1.426265,9.703032,-0.003725,0.007457,0.017500,0.006278,-1.325191,5.988348,7.853833,-0.243649,-0.010298,0.345681,179.926594,171.110391,-171.685370,-0.994373,-0.004981,-0.077341,-0.072228,1860.680176,81312.734375,0.687461,0.146777,0.868530,-0.151245,-0.151424,15.125000,19.855007,0,0.000000,0," 202"
255," 101",492343,492295,1,1,1.398497,9.719962,0.002773,-0.015980,-0.015521,0.019029,-1.325191,5.507823,7.853833,0.500734,-0.187077,-0.606919,0.060083,8.605209,8.284209,-0.994574,-0.005940,-0.074790,-0.072066,1860.681396,81309.359375,0.412646,0.021329,0.868530,-0.150024,-0.167499,15.125000,19.836914,0,0.000000,0," 202"
256," 101",494505,494490,1,1,1.405886,9.715174,0.001766,-0.019612,-0.011483,0.015344,-1.805717,5.507823,8.334359,-0.149159,0.929747,0.133061,0.039221,8.630706,8.351478,-0.994516,-0.005819,-0.075021,-0.072635,1860.618042,81314.125000,0.429833,0.032924,0.868530,-0.213379,-0.212082,15.125000,19.841438,0,0.000000,0," 202"
257," 101",496593,496588,1,1,1.412589,9.725388,-0.000569,-0.009986,0.011297,0.026428,-1.325191,4.546771,8.334359,0.021619,1.647586,-0.751236,179.928657,171.376222,-171.677338,-0.994544,-0.004837,-0.075032,-0.072313,1860.713623,81309.085938,0.053786,-0.012194,0.868530,-0.117798,-0.177039,15.125000,19.845961,0,0.000000,0," 202"
258," 101",498691,498660,1,1,1.416862,-9.723642,-0.019954,0.005249,0.008426,0.025343,-2.766768,-5.507823,-7.853833,-0.439838,0.438512,-0.094980,0.072226,7.465575,171.663486,-0.072226,-0.065004,-0.003736,-0.995261,1860.604004,81310.773438,-0.162652,-0.100997,0.868530,-0.227417,-0.250784,15.125000,19.855007,0,0.000000,0," 202"
259," 101",500792,500766,1,1,1.408478,-9.739483,-0.011638,-0.001813,-0.002893,0.039806,-1.805717,-3.585718,-9.295410,-0.920605,-0.707253,0.635702,0.083793,7.546979,171.772878,-0.071530,-0.065695,-0.003993,-0.995265,1860.679199,81312.875000,0.519086,0.167586,0.868530,-0.152222,-0.231750,15.125000,19.850483,0,0.000000,0," 202"
260," 101",502913,502912,1,1,1.404804,9.725666,0.000782,-0.005225,0.009268,0.025594,-1.325191,6.468874,9.295410,-0.039014,0.144885,-0.038418,179.937618,172.970566,-171.749615,-0.995535,-0.003868,-0.061185,-0.071767,1860.468750,81314.148438,-0.296155,0.018587,0.868530,-0.362671,-0.304111,15.125000,19.873098,0,0.000000,0," 202"
261," 101",505014,504979,1,1,1.415907,-9.724542,-0.007921,-0.004506,-0.000234,0.026082,-1.325191,-5.027297,-8.814884,-0.327703,-0.782854,0.612160,0.044616,7.134058,171.736569,-0.072092,-0.062083,-0.004093,-0.995456,1860.717651,81309.109375,0.619991,0.131071,0.868530,-0.113770,-0.269760,15.125000,19.877621,0,0.000000,0," 202"
262," 101",507132,507085,1,1,1.427266,9.714260,-0.009784,-0.010733,0.011728,0.023266,-1.325191,5.507823,8.814884,-0.053998,-0.117979,0.197198,179.953683,173.532431,-171.590922,-0.995722,-0.003733,-0.056288,-0.073178,1860.714233,81309.687500,0.779123,-0.075925,0.868530,-0.117188,-0.330354,15.250000,19.891190,0,0.000000,0," 202"
263," 101",509249,509240,1,1,1.438984,9.716682,0.003653,0.020128,-0.001695,0.021637,-2.286243,5.988348,8.334359,-0.159214,-1.429043,-0.809039,0.002161,6.669598,8.308228,-0.995617,-0.004102,-0.058026,-0.073231,1860.572510,81310.257812,-0.086569,-0.057151,0.868530,-0.258911,-0.248848,15.125000,19.904758,0,0.000000,0," 202"
264," 101",511441,511433,1,1,1.436983,-9.714417,0.002061,0.005604,0.021260,0.019098,-0.364140,-4.546771,-8.814884,0.866672,0.743155,-0.045618,179.867185,174.216775,-8.445975,-0.073298,-0.050295,-0.003912,-0.996033,1860.784424,81310.390625,0.080472,0.104595,0.868530,-0.046997,-0.180194,15.125000,19.900234,0,0.000000,0," 202"
265," 101",513559,513554,1,1,1.428769,-9.722154,-0.013858,-0.013226,0.006348,0.025578,-0.364140,-5.988348,-8.334359,-0.502568,0.153501,0.170527,0.036803,5.446349,171.709412,-0.072779,-0.047432,-0.002796,-0.996216,1860.559570,81315.453125,0.753229,0.124422,0.868530,-0.271851,-0.367620,15.125000,19.927372,0,0.000000,0," 202"
266," 101",515679,515634,1,1,1.421846,9.727211,-0.011516,0.004434,0.013349,0.038261,-0.844666,5.507823,8.334359,-0.171142,1.511848,0.677435,179.886815,174.762315,-171.669647,-0.996304,-0.002934,-0.045599,-0.072741,1860.651123,81313.218750,0.255815,0.054521,0.868530,-0.180298,-0.232199,15.125000,19.936419,0,0.000000,0," 202"
267," 101",517801,517777,1,1,1.419969,9.723873,0.017148,-0.013630,-0.026219,0.025975,-1.805717,5.507823,8.814884,-0.099748,1.259449,0.057547,0.045023,5.339143,8.397292,-0.996232,-0.003801,-0.046422,-0.073153,1860.461792,81314.765625,-0.775555,-0.213239,0.868530,-0.369629,-0.290871,15.000000,19.949986,0,0.000000,0," 202"
268," 101",0,4695,1,1,-3.201890,-1.101401,9.366425,0.024479,-0.011930,0.158636,-6.610975,-6.024798,18.425402,-2.814445,-0.343813,4.392948,70.236877,178.507431,-112.700362,0.484739,-0.676697,0.459446,0.309870,1857.868652,81340.609375,0.106259,1.817299,0.000000,-0.229370,-0.146581,11.000000,15.909260,0,0.000000,0," 202"
269," 101",4829,6414,1,1,-3.381696,-1.370921,9.277067,-0.026180,0.011306,0.167874,-6.610975,-5.544272,17.464350,-0.145044,3.166267,0.634171,68.465140,-179.558392,-111.355689,0.462802,-0.684023,0.464371,0.319822,1857.863770,81345.132812,-0.454134,0.127668,0.046265,-0.234253,-0.115400,11.250000,15.995272,0,0.000000,0," 202"
270," 101",0,4648,1,1,0.089149,9.818809,0.178715,-0.003656,-0.000371,0.019839,-11.532620,13.454724,4.805259,-0.511842,0.185924,-0.336570,178.950314,-171.186643,-179.619905,0.996995,-0.009418,-0.076800,0.003845,1858.206177,81338.640625,0.312708,1.805530,0.429932,0.248169,0.190007,18.375000,23.173567,0,0.000000,0," 202"
271," 101",4868,6445,1,1,0.083781,9.814950,0.170475,-0.005331,0.020338,0.015765,-11.052094,12.974198,5.766310,-0.137653,0.327816,0.084352,178.879130,-171.151795,-179.634358,0.996965,-0.009998,-0.077103,0.003936,1858.395264,81331.046875,-0.498903,0.140922,0.578491,0.437256,0.339484,18.500000,23.164528,0,0.000000,0," 202"
272," 101",8548,8531,1,1,0.081401,9.790936,0.162011,-0.009608,0.011342,-0.008397,-11.532620,13.935250,4.805259,0.554708,0.198646,-0.179041,178.982553,-170.865365,-179.619154,0.996784,-0.008631,-0.079595,0.003538,1858.149902,81334.906250,-1.050181,-0.197415,0.578491,0.191895,0.235106,18.375000,23.137411,0,0.000000,0," 202"
273," 101",10622,10599,1,1,0.084411,9.798890,0.173913,0.000278,-0.005398,-0.000205,-11.052094,13.454724,4.805259,-0.305055,-0.451748,-0.167745,179.000065,-170.394218,-179.680188,0.996445,-0.008929,-0.083700,0.003512,1858.221191,81336.937500,-0.296599,-0.060833,0.578491,0.263184,0.256396,18.500000,23.105774,0,0.000000,0," 202"
274," 101",12727,12700,1,1,0.058917,9.816375,0.166092,-0.000586,-0.021709,0.016933,-12.974198,13.935250,4.805259,0.369387,-0.851402,-0.198391,179.143595,-170.198164,-179.820125,0.996314,-0.007580,-0.085419,0.002202,1858.319336,81338.367188,0.429530,0.211999,0.578491,0.361328,0.337755,18.500000,23.092215,0,0.000000,0," 202"
275," 101",14889,14876,1,1,0.274373,9.859465,0.531925,0.290960,-0.363507,0.065634,-10.571568,13.935250,4.324733,-5.039746,4.217666,-10.385038,178.673801,-169.951868,179.329403,0.995737,-0.026352,-0.087840,0.009845,1858.462402,81330.679688,-0.049670,0.071335,0.578491,0.504395,0.391610,18.500000,23.056059,0,0.000000,0," 202"
276," 101",16986,16985,1,1,0.167049,9.814575,0.219594,0.009376,0.009922,0.017443,-12.013146,12.493672,5.766310,-0.471055,0.168894,-0.342520,178.619077,-167.797271,-179.358077,0.994243,-0.012080,-0.106220,0.007229,1858.235352,81336.898438,0.147741,-0.036402,0.578491,0.277344,0.257084,18.375000,23.047020,0,0.000000,0," 202"
277," 101",19086,19050,1,1,0.152998,9.815037,0.212538,-0.050289,-0.026616,0.017365,-12.013146,13.454724,6.246836,-0.022971,-1.750668,-0.049882,178.950164,-166.599939,-179.100729,0.993090,-0.010014,-0.116591,0.008862,1858.055908,81341.382812,-0.049282,-0.134693,0.578491,0.097900,0.225703,18.500000,23.060577,0,0.000000,0," 202"
278," 101",21188,21159,1,1,-0.730549,9.058228,0.283480,-0.957669,-0.110500,-0.760192,-12.974198,13.454724,6.727362,-4.137528,43.040372,27.084400,177.557338,167.873810,-178.036804,0.994073,-0.019383,0.105947,0.014781,1858.001221,81342.820312,-0.512434,0.030361,0.578491,0.043213,0.218514,18.500000,23.047020,0,0.000000,0," 202"
279," 101",23307,23271,1,1,-1.742541,9.873880,-0.087620,-1.841830,0.067725,0.054999,-9.610518,13.935250,2.883155,-1.994722,-1.626875,-1.873822,178.029755,168.927053,-179.319882,0.992142,-0.005425,0.097592,-0.078109,1858.172119,81339.265625,0.136993,0.098773,0.578491,0.214111,0.280417,18.500000,23.065098,0,0.000000,0," 202"
280," 101",25434,25399,1,1,0.839394,9.711789,0.390469,1.003809,0.224099,-0.099555,-12.013146,12.974198,5.285784,0.556328,-8.093645,-0.120563,177.998527,163.793059,179.454259,0.989841,-0.017962,0.140856,-0.007176,1858.337158,81337.828125,0.473496,0.036117,0.578491,0.379150,0.313925,18.625000,23.078657,0,0.000000,0," 202"
281," 101",27562,27527,1,1,0.161178,9.786274,0.516924,0.087901,-0.146808,-0.001252,-12.493672,12.974198,5.766310,0.462769,2.727741,-0.546444,177.841406,161.408380,-178.581443,0.986655,-0.016588,0.161721,0.009172,1858.246338,81338.812500,-0.202155,0.165654,0.578491,0.288330,0.350909,18.625000,23.078657,0,0.000000,0," 202"
282," 101",29697,29656,1,1,0.131604,9.820900,0.327811,-0.000936,-0.028215,0.026210,-12.013146,13.454724,6.246836,-0.075229,-0.081869,0.189218,178.180989,164.683511,-178.702856,0.990916,-0.014222,0.133417,0.009102,1858.124512,81335.648438,0.543171,-0.117202,0.578491,0.166504,0.070092,18.625000,23.114813,0,0.000000,0," 202"
283," 101",31888,31882,1,1,0.148863,9.806995,0.326920,-0.008567,-0.002985,0.012568,-12.013146,14.415775,5.285784,-0.543453,1.722038,0.468905,177.995549,162.139429,-178.462379,0.987676,-0.015269,0.155434,0.010129,1858.010254,81340.429688,-0.430275,-0.121599,0.578491,0.052246,0.148180,18.625000,23.119333,0,0.000000,0," 202"
284," 101",34010,34007,1,1,0.136056,9.794157,0.347902,0.016058,-0.004514,0.000264,-12.493672,13.454724,4.324733,0.146375,-0.148643,0.005511,177.932548,163.491711,-178.698963,0.989446,-0.016223,0.143734,0.008644,1858.133789,81338.757812,-0.095684,0.137819,0.578491,0.175781,0.212598,18.625000,23.110294,0,0.000000,0," 202"
285," 101",36145,36140,1,1,0.133686,9.810049,0.327688,-0.003840,0.010787,0.015424,-12.493672,13.454724,5.766310,0.063132,-0.600019,-0.264521,177.938135,163.773934,-178.638967,0.989801,-0.015621,0.141303,0.009113,1858.223145,81337.140625,-0.401269,0.044855,0.578491,0.265137,0.236620,18.500000,23.069616,0,0.000000,0," 202"
286," 101",38282,38280,1,1,0.143409,9.828270,0.347361,-0.001714,0.000639,0.034452,-11.052094,13.454724,6.246836,0.009857,-0.626682,0.034298,177.882059,163.468748,-178.552620,0.989398,-0.016473,0.143957,0.009840,1858.187744,81334.625000,-0.496794,-0.155701,0.578491,0.229736,0.291357,18.375000,23.056059,0,0.000000,0," 202"
287," 101",40425,40376,1,1,0.142972,9.815672,0.348286,0.003512,0.013634,0.021879,-10.571568,12.974198,5.285784,-1.193384,0.328073,-0.517014,177.807651,163.533184,-178.586019,0.989470,-0.017165,0.143403,0.009470,1858.337402,81336.210938,-0.102053,0.007381,0.583740,0.379395,0.371027,18.500000,23.037979,0,0.000000,0," 202"
288," 101",42559,42541,1,1,0.136329,9.808392,0.345907,-0.003432,0.001429,0.014435,-11.052094,12.493672,6.246836,-0.684151,-0.303311,0.498733,177.883671,163.888231,-178.599188,0.989921,-0.016571,0.140328,0.009514,1857.995239,81342.578125,-0.664715,-0.036856,0.583740,0.037231,0.302915,18.500000,23.024422,0,0.000000,0," 202"
289," 101",44696,44693,1,1,0.126726,9.814775,0.329367,-0.019704,0.009195,0.020093,-11.052094,13.935250,5.766310,0.457626,0.441415,0.112866,177.909325,163.617933,-178.575159,0.989590,-0.016285,0.142664,0.009706,1858.240723,81335.429688,0.021713,-0.146472,0.583740,0.282715,0.272846,18.375000,23.001823,0,0.000000,0," 202"
290," 101",46895,46876,1,1,0.136525,9.805290,0.339692,-0.003172,0.000455,0.011122,-11.052094,12.493672,5.766310,0.489291,-0.288516,-0.169873,177.923327,163.560641,-178.597330,0.989522,-0.016184,0.143154,0.009522,1858.179443,81337.992188,0.474505,-0.033009,0.583740,0.221436,0.172791,18.375000,22.983744,0,0.000000,0," 202"
291," 101",49058,49042,1,1,0.137917,9.806063,0.339523,-0.003059,0.003977,0.011907,-12.013146,13.935250,5.285784,0.087740,-0.031579,0.437125,177.903711,163.521668,-178.588806,0.989474,-0.016137,0.143494,0.009452,1858.166016,81337.601562,0.270253,0.005826,0.583740,0.208008,0.191810,18.375000,22.965666,0,0.000000,0," 202"
292," 101",51135,51088,1,1,0.132019,9.806147,0.343088,0.010208,-0.007043,0.021552,-12.013146,12.013146,5.766310,0.187026,-1.012318,0.656838,177.914134,163.618029,-178.607357,0.989593,-0.016283,0.142658,0.009434,1858.177002,81341.250000,0.181747,-0.223156,0.583740,0.218994,0.281952,18.375000,22.974705,0,0.000000,0," 202"
293," 101",53229,53203,1,1,0.143653,9.820381,0.336978,-0.001675,0.008954,0.026207,-12.493672,13.935250,4.324733,-0.126472,-0.975416,0.426682,177.901238,164.053002,-178.590035,0.990123,-0.016429,0.138904,0.009643,1858.119873,81336.375000,-0.588223,-0.043235,0.583740,0.161865,0.255622,18.250000,22.943068,0,0.000000,0," 202"
294," 101",55327,55321,1,1,0.129904,9.797242,0.332963,-0.006098,-0.000825,0.002757,-11.532620,12.013146,5.285784,0.421582,0.872771,-0.298153,177.976766,164.656204,-178.669102,0.990855,-0.015946,0.133674,0.009151,1858.615723,81330.210938,1.019451,0.237913,0.657715,0.657715,0.347825,18.250000,22.920467,0,0.000000,0," 202"
295," 101",57420,57385,1,1,0.128904,9.811322,0.349183,-0.004549,-0.006360,0.017377,-12.013146,15.376827,6.246836,0.270143,-0.552519,-0.528889,177.923108,165.307189,-178.685166,0.991587,-0.016769,0.128051,0.008816,1858.227051,81335.148438,-0.409076,-0.105191,0.657715,0.269043,0.276269,18.250000,22.920467,0,0.000000,0," 202"
296," 101",59531,59495,1,1,0.146461,9.807193,0.342839,0.000872,0.008308,0.013273,-12.493672,13.935250,5.285784,0.058910,0.381498,0.032409,177.881799,165.154971,-178.618845,0.991408,-0.016771,0.129375,0.009562,1858.182007,81337.562500,-0.404137,-0.037823,0.657715,0.223999,0.269474,18.250000,22.906908,0,0.000000,0," 202"
297," 101",61642,61622,1,1,0.165463,9.775245,0.379543,0.028081,-0.009526,-0.017036,-11.052094,13.454724,5.766310,-0.013970,-0.891411,-0.009724,177.800916,165.356216,-178.619146,0.991600,-0.018096,0.127622,0.010729,1858.135986,81336.726562,-0.585275,0.025266,0.657715,0.177979,0.237703,18.250000,22.902390,0,0.000000,0," 202"
298," 101",63744,63721,1,1,0.151576,9.828904,0.341906,0.007242,0.030315,0.034968,-11.532620,13.454724,6.246836,-0.576072,1.263128,-0.229502,177.772243,164.984094,-178.625607,0.991199,-0.017705,0.130861,0.009349,1858.262939,81338.546875,0.067220,0.028344,0.657715,0.304932,0.319374,18.250000,22.906908,0,0.000000,0," 202"
299," 101",0,4683,1,1,0.000000,0.000000,0.000000,0.000000,0.000000,-9.801000,-12.493672,12.493672,6.246836,-0.461225,0.432313,-0.032756,43.178516,-125.124353,74.907279,-0.538718,0.367256,0.758224,-0.001316,1858.697998,81331.281250,0.010929,1.578406,0.323730,0.219238,0.169582,17.875000,22.495590,0,0.000000,0," 202"
300," 101",4822,6412,1,1,0.000000,0.000000,0.000000,0.000000,0.000000,-9.801000,-10.091043,11.052094,5.766310,0.234110,0.172059,-0.670949,76.527577,63.630452,130.968167,0.020190,-0.594969,0.307038,-0.742517,1858.344116,81333.539062,-1.444446,-0.652047,0.331787,-0.134644,-0.013597,17.875000,22.486551,0,0.000000,0," 202"
301," 101",8539,8522,1,1,0.000000,0.000000,0.000000,0.000000,0.000000,-9.801000,-10.571568,13.454724,4.324733,-0.020877,-0.247947,-0.417751,137.402738,38.412017,-83.675049,-0.459998,-0.575816,-0.675898,0.000444,1858.464600,81333.984375,0.030223,-0.546576,0.331787,-0.014160,-0.016320,17.875000,22.472990,0,0.000000,0," 202"
302," 101",10650,10612,1,1,0.000000,0.000000,0.000000,0.000000,0.000000,-9.801000,-12.013146,12.493672,5.766310,0.292681,0.133243,0.002799,100.831672,-23.912499,91.167104,0.550330,0.433391,-0.630928,0.333527,1858.350586,81335.156250,-0.156405,-0.078380,0.331787,-0.128174,-0.048186,17.750000,22.436829,0,0.000000,0," 202"
303," 101",12783,12747,1,1,0.000000,0.000000,0.000000,0.000000,0.000000,-9.801000,-12.013146,12.974198,6.246836,0.615435,0.513154,0.107621,125.049726,-130.919673,-19.475656,-0.321774,-0.296142,0.804790,0.401342,1858.391602,81335.554688,0.048094,-0.045556,0.331787,-0.087158,-0.088093,17.750000,22.454908,0,0.000000,0," 202"
304," 101",14922,14882,1,1,0.000000,0.000000,0.000000,0.000000,0.000000,-9.801000,-12.493672,13.454724,4.805259,-0.372222,0.603185,-0.295803,76.964067,104.882110,-90.654266,0.686279,-0.174608,0.706030,0.007473,1858.562988,81330.523438,0.253042,-1.135157,0.331787,0.084229,-0.116112,17.875000,22.427788,0,0.000000,0," 202"
305," 101",17117,17075,1,1,0.000000,0.000000,0.000000,0.000000,0.000000,-9.801000,-12.974198,14.415775,5.285784,0.681506,0.138184,0.024541,31.475206,77.564270,154.761554,-0.001864,0.634510,-0.074615,0.769303,1858.444580,81334.609375,-0.606236,-0.588914,0.331787,-0.034180,0.028767,17.750000,22.423267,0,0.000000,0," 202"
306," 101",19246,19210,1,1,0.000000,0.000000,0.000000,0.000000,0.000000,-9.801000,-11.532620,12.974198,5.766310,0.570486,-0.146977,0.429051,53.106367,40.624562,51.592544,0.687765,0.512582,0.097139,0.504779,1858.556763,81335.593750,0.374362,-0.856008,0.331787,0.078003,0.007338,17.750000,22.423267,0,0.000000,0," 202"
307," 101",21394,21383,1,1,0.000000,0.000000,0.000000,0.000000,0.000000,-9.801000,-12.013146,12.974198,6.246836,-0.152880,-0.188515,0.552856,54.371536,148.261987,39.192770,0.081751,0.404663,0.764170,0.495589,1858.470459,81334.898438,-0.628169,-0.546857,0.331787,-0.008301,0.074458,17.750000,22.414227,0,0.000000,0," 202"
308," 101",23524,23476,1,1,0.000000,0.000000,0.000000,0.000000,0.000000,-9.801000,-12.013146,12.013146,5.766310,0.133114,-0.060381,-0.084046,70.918066,-137.297936,-38.926498,0.099578,0.451918,-0.644900,-0.608243,1858.537842,81332.640625,-0.049099,0.027568,0.331787,0.059082,-0.043649,17.750000,22.423267,0,0.000000,0," 202"
309," 101",25714,25667,1,1,0.000000,0.000000,0.000000,0.000000,0.000000,-9.801000,-12.013146,13.454724,6.246836,-0.091834,-1.322545,-0.180139,157.755923,-21.223527,6.377793,-0.199358,-0.960968,0.089118,0.169868,1858.495239,81334.898438,-0.275885,-0.017638,0.331787,0.016479,0.027885,17.750000,22.414227,0,0.000000,0," 202"
310," 101",27796,27773,1,1,0.000000,0.000000,0.000000,0.000000,0.000000,-9.801000,-11.052094,12.013146,5.285784,0.168817,1.727017,-0.374309,11.821324,-64.626697,-36.171890,0.782021,0.247795,-0.478419,-0.313299,1858.529785,81335.742188,-0.075923,-0.499568,0.331787,0.051025,0.083566,17.625000,22.418747,0,0.000000,0," 202"
311," 101",29877,29836,1,1,0.000000,0.000000,0.000000,0.000000,0.000000,-9.801000,-11.532620,12.013146,4.805259,-0.554342,0.590191,0.379330,174.543189,-79.965560,-110.914404,-0.684493,0.019243,0.722066,0.098591,1858.513428,81329.539062,-0.399928,-0.032906,0.331787,0.034668,0.054744,17.750000,22.427788,0,0.000000,0," 202"
312," 101",0,3954,1,1,0.072438,9.886251,0.264869,0.007037,0.003192,0.089061,-11.052094,13.454724,6.246836,-0.279748,-1.061201,0.013159,178.446861,-179.995989,-179.621080,0.999903,-0.013553,0.000010,0.003307,1858.651855,81330.960938,0.379051,7.986868,0.327026,0.141724,0.202210,17.750000,22.414227,0,0.000000,0," 202"
313," 101",4153,5731,1,1,0.064998,9.878084,0.257750,-0.013001,-0.004185,0.080651,-12.493672,14.415775,5.285784,-0.298807,-0.078041,0.267017,178.529506,179.928671,-179.545729,0.999909,-0.013020,0.000682,0.003364,1858.755859,81331.257812,0.457496,0.461349,0.327026,0.245728,0.190085,17.750000,22.405186,0,0.000000,0," 202"
314," 101",7845,7820,1,1,0.073284,9.896847,0.252437,0.003807,-0.006732,0.099334,-11.532620,13.454724,6.727362,0.619195,-0.225745,0.246571,178.578042,178.943006,-179.570823,0.999869,-0.012681,0.009269,0.003801,1858.695068,81330.890625,0.099207,-0.107514,0.331421,0.184937,0.085511,17.750000,22.355463,0,0.000000,0," 202"
315," 101",9961,9923,1,1,0.076328,9.878916,0.249649,0.000385,-0.001571,0.081364,-12.013146,14.415775,5.766310,-0.244454,0.991243,0.329966,178.561403,179.102668,-179.536877,0.999882,-0.012593,0.007881,0.003960,1858.567871,81333.992188,-0.120999,-0.072291,0.331421,0.057739,0.021576,17.625000,22.350943,0,0.000000,0," 202"
316," 101",12068,12020,1,1,0.076212,9.880552,0.264205,-0.000910,-0.014319,0.085109,-12.013146,13.454724,4.805259,0.301910,0.803958,0.578076,178.539055,179.178361,-179.583787,0.999878,-0.013374,0.007219,0.003494,1858.511719,81331.773438,-0.348913,-0.130483,0.419434,0.001587,0.058465,17.750000,22.328341,0,0.000000,0," 202"
317," 101",14174,14138,1,1,0.068500,9.896770,0.252043,0.003071,-0.002319,0.099216,-11.532620,13.454724,5.766310,0.017771,-0.058604,-0.391207,178.554723,179.235748,-179.601750,0.999892,-0.012589,0.006713,0.003391,1858.478760,81333.046875,-0.239074,0.148984,0.419434,-0.031372,0.024623,17.625000,22.319300,0,0.000000,0," 202"
318," 101",16344,16301,1,1,0.058615,9.901470,0.260637,0.003463,-0.006404,0.105084,-12.493672,13.454724,5.285784,1.089652,2.407047,-0.430323,178.501762,179.539418,-179.595412,0.999900,-0.013060,0.004065,0.003478,1858.699951,81332.351562,0.477897,-0.041771,0.419434,0.189819,0.004087,17.625000,22.310259,0,0.000000,0," 202"
319," 101",18465,18462,1,1,0.073089,9.885957,0.255516,0.010524,-0.007131,0.088520,-12.013146,13.454724,4.805259,0.782674,-0.233362,0.063911,178.561280,179.488834,-179.624194,0.999900,-0.012867,0.004497,0.003701,1858.656494,81333.046875,0.112365,0.057599,0.419434,0.146362,0.134487,17.625000,22.319300,0,0.000000,0," 202"
320," 101",20570,20560,1,1,0.070880,9.904897,0.255405,0.005947,0.004737,0.107440,-11.532620,11.532620,6.246836,0.156182,0.495314,-0.318374,178.495902,179.174071,-179.603103,0.999882,-0.013100,0.007252,0.003369,1858.653320,81331.625000,0.410470,-0.013829,0.419434,0.143188,0.107631,17.625000,22.332861,0,0.000000,0," 202"
321," 101",22695,22668,1,1,0.077382,9.874490,0.262597,0.007455,0.004372,0.077280,-11.052094,12.974198,6.246836,-0.490371,0.322316,0.269560,178.451943,178.668282,-179.558857,0.999834,-0.013463,0.011672,0.003692,1858.362549,81338.265625,-0.231770,-0.059773,0.419434,-0.147583,-0.019104,17.625000,22.310259,0,0.000000,0," 202"
322," 101",24817,24799,1,1,0.063484,9.896852,0.272797,-0.007199,-0.011082,0.099806,-11.052094,12.974198,5.766310,0.560413,0.019973,0.467617,178.484236,178.956489,-179.562026,0.999859,-0.013692,0.009162,0.003369,1858.597168,81333.781250,-0.044538,-0.063564,0.419434,0.087036,0.051123,17.625000,22.296698,0,0.000000,0," 202"
323," 101",26960,26917,1,1,0.066197,9.866339,0.269109,0.004873,0.000057,0.069229,-12.013146,13.454724,4.805259,0.173846,0.076358,-0.559443,178.437545,179.349033,-179.626134,0.999885,-0.013614,0.005722,0.003407,1858.689941,81330.242188,-0.452286,0.194945,0.419434,0.179810,0.151018,17.625000,22.314779,0,0.000000,0," 202"
324," 101",29106,29096,1,1,0.071386,9.893745,0.254236,0.024709,0.030422,0.096191,-12.493672,13.454724,5.285784,-0.962386,0.384004,-0.620181,178.354162,179.022072,-179.704586,0.999873,-0.012966,0.008551,0.003590,1858.570312,81332.937500,-0.461656,-0.068237,0.419434,0.060181,0.072516,17.625000,22.292177,0,0.000000,0," 202"
325," 101",31240,31201,1,1,0.078213,9.864485,0.260463,0.011764,-0.011891,0.067219,-12.493672,13.935250,6.727362,0.799825,-0.668778,-0.033962,178.557961,178.288783,-179.568883,0.999794,-0.013076,0.014974,0.004102,1858.539062,81331.406250,-0.623453,-0.023083,0.419434,0.028931,0.070208,17.625000,22.278616,0,0.000000,0," 202"
326," 101",33440,33437,1,1,0.068109,9.883408,0.250558,0.008055,0.008585,0.085811,-11.052094,12.013146,6.727362,0.278102,-1.605736,-0.050484,178.498798,177.880720,-179.598144,0.999738,-0.013033,0.018537,0.003264,1858.598145,81330.023438,-0.047754,-0.006169,0.419434,0.088013,-0.005603,17.625000,22.260534,0,0.000000,0," 202"
327," 101",35563,35562,1,1,0.060998,9.885612,0.267375,0.000150,-0.008159,0.088411,-12.493672,13.454724,6.727362,-0.411928,0.445142,-0.514353,178.497104,178.006478,-179.593390,0.999757,-0.013051,0.017441,0.003319,1858.327271,81337.312500,-0.324885,-0.162519,0.419434,-0.182861,-0.025231,17.625000,22.278616,0,0.000000,0," 202"
328," 101",37737,37735,1,1,0.072120,9.888794,0.269919,0.014575,0.009733,0.091724,-11.532620,13.454724,5.766310,-0.292607,0.790919,-0.499987,178.381974,178.298017,-179.620151,0.999785,-0.014069,0.014897,0.003104,1858.470581,81331.296875,-0.036743,-0.219074,0.419434,-0.039551,-0.115909,17.500000,22.251493,0,0.000000,0," 202"
329," 101",39807,39782,1,1,0.076048,9.890279,0.265587,0.015967,-0.009330,0.093119,-12.493672,13.935250,4.324733,0.488876,0.003976,0.252954,178.518332,177.698832,-179.590194,0.999701,-0.013294,0.020117,0.004033,1858.395508,81337.500000,0.264657,0.005802,0.419434,-0.114624,-0.089115,17.500000,22.242453,0,0.000000,0," 202"
330," 101",41885,41858,1,1,0.069179,9.898183,0.269692,-0.001044,-0.011828,0.101091,-12.493672,13.454724,5.766310,0.372049,-0.046165,-0.323510,178.506338,177.772694,-179.532793,0.999712,-0.013489,0.019490,0.003765,1858.679077,81331.585938,0.307981,0.289974,0.419434,0.168945,0.045534,17.500000,22.242453,0,0.000000,0," 202"
331," 101",43968,43958,1,1,0.056655,9.897430,0.261717,-0.012723,0.010490,0.100038,-11.532620,12.493672,5.766310,-0.078633,-1.415732,-0.319038,178.421671,178.262801,-179.552395,0.999792,-0.013227,0.015218,0.003126,1858.556763,81329.914062,0.121633,0.067149,0.419434,0.046631,-0.070472,17.500000,22.233412,0,0.000000,0," 202"
332," 101",46054,46010,1,1,0.071615,9.895001,0.266958,-0.002652,-0.005061,0.104254,-12.013146,12.493672,4.805259,0.240745,0.408684,0.315718,178.534219,178.162356,-179.546412,0.999783,-0.012726,0.016085,0.003752,1858.398438,81334.140625,-0.547929,-0.083644,0.419434,-0.111694,-0.071377,17.500000,22.224371,0,0.000000,0," 202"
333," 101",48165,48119,1,1,0.068795,9.889160,0.264941,0.005059,0.004935,0.084584,-12.013146,12.974198,5.766310,0.099882,3.183417,-0.417146,178.513756,178.011245,-179.617856,0.999763,-0.012689,0.017392,0.003343,1858.533691,81334.726562,0.401419,-0.047339,0.419434,0.023560,-0.116778,17.500000,22.206289,0,0.000000,0," 202"
334," 101",50341,50319,1,1,0.074177,9.878161,0.263354,0.021539,-0.001973,0.080926,-12.013146,12.974198,5.285784,-0.209593,-0.313698,-0.090581,178.487801,177.961754,-179.640409,0.999751,-0.013138,0.017826,0.002903,1858.238770,81340.921875,-0.039642,-0.206694,0.419434,-0.271362,-0.145378,17.500000,22.197248,0,0.000000,0," 202"
335," 101",52428,52400,1,1,0.068687,9.892482,0.275310,0.000119,-0.014200,0.095540,-12.013146,13.935250,4.805259,-0.216162,0.392161,0.003655,178.486995,177.841474,-179.542765,0.999729,-0.013125,0.018886,0.003740,1858.464966,81333.335938,0.190052,0.088893,0.419434,-0.045166,-0.095564,17.500000,22.188208,0,0.000000,0," 202"
336," 101",54539,54506,1,1,0.080765,9.887065,0.259998,0.018702,0.008858,0.089791,-10.571568,13.454724,5.766310,-0.810741,0.121103,-0.339568,178.445358,177.883835,-179.584757,0.999732,-0.013497,0.018513,0.003372,1858.184082,81337.679688,-0.852469,-0.117662,0.419434,-0.326050,-0.197080,17.625000,22.206289,0,0.000000,0," 202"
337," 101",56657,56618,1,1,0.070232,9.886884,0.263234,-0.005318,-0.005094,0.089634,-12.013146,12.974198,5.285784,0.290202,-0.505724,0.536176,178.502336,177.937684,-179.507234,0.999742,-0.013217,0.018055,0.003818,1858.487793,81335.710938,0.201825,0.197122,0.419434,-0.022339,-0.044635,17.500000,22.206289,0,0.000000,0," 202"
338," 101",58780,58733,1,1,0.067028,9.885291,0.261396,-0.008939,-0.014450,0.099959,-12.493672,12.974198,5.285784,0.182029,-0.640479,-0.606085,178.526569,177.780822,-179.455653,0.999713,-0.013412,0.019432,0.004081,1858.324097,81333.882812,-0.168672,-0.058831,0.419434,-0.186035,-0.168410,17.500000,22.201769,0,0.000000,0," 202"
339," 101",60903,60899,1,1,0.070783,9.872627,0.263282,0.007978,-0.007448,0.075385,-12.493672,13.454724,5.285784,-0.027274,-0.696903,-0.064558,178.516351,178.115515,-179.585276,0.999769,-0.013231,0.016486,0.003763,1858.134399,81338.953125,-0.539122,-0.201321,0.419434,-0.375732,-0.262951,17.500000,22.197248,0,0.000000,0," 202"
340," 101",63016,62994,1,1,0.076970,9.878478,0.261637,0.023211,0.003957,0.081214,-12.013146,13.454724,5.766310,-0.497381,0.807587,-1.066388,178.463322,178.269262,-179.642417,0.999791,-0.013197,0.015129,0.003977,1858.335693,81335.164062,-0.286965,-0.054387,0.419434,-0.174438,-0.168998,17.625000,22.192728,0,0.000000,0," 202"
341," 101",65137,65099,1,1,0.068906,9.894430,0.257838,0.016355,0.000184,0.097015,-11.052094,12.974198,5.766310,0.002807,0.114196,-0.410146,178.508128,178.573943,-179.658550,0.999834,-0.012980,0.012482,0.002817,1858.393921,81335.710938,0.388627,0.009740,0.419434,-0.116211,-0.151732,17.500000,22.206289,0,0.000000,0," 202"
342," 101",67325,67310,1,1,0.063770,9.895411,0.247271,0.009640,0.006618,0.097699,-12.013146,13.454724,5.285784,-0.485231,-0.098970,-0.632448,178.531050,178.992470,-179.661419,0.999878,-0.012495,0.008823,0.003282,1858.427368,81335.164062,0.099403,-0.036724,0.419434,-0.082764,-0.120211,17.500000,22.192728,0,0.000000,0," 202"
343," 101",69443,69424,1,1,0.052261,9.870558,0.240403,0.085952,-0.005122,0.072248,-11.532620,12.493672,5.766310,0.112017,-0.107495,-0.111898,178.639336,179.436842,179.818131,0.999916,-0.011881,0.004895,-0.001645,1858.376221,81332.242188,0.219818,-0.041851,0.419434,-0.133911,-0.238047,17.500000,22.161083,0,0.000000,0," 202"
344," 101",71564,71515,1,1,0.049067,9.901071,0.248891,0.002275,0.000945,0.103320,-12.493672,13.454724,5.766310,-0.072947,0.168317,0.306841,178.554614,179.718615,-179.722153,0.999915,-0.012607,0.002486,0.002394,1858.426758,81335.304688,-0.080768,-0.054500,0.419434,-0.083374,-0.099060,17.500000,22.188208,0,0.000000,0," 202"
345," 101",73689,73682,1,1,0.033599,9.900748,0.248812,-0.001406,0.008977,0.102927,-11.532620,14.415775,5.766310,-0.907942,-0.377068,-0.097801,178.508442,179.739338,-179.790878,0.999916,-0.012604,0.002298,0.001732,1858.350342,81336.320312,-0.011731,-0.065647,0.419434,-0.159790,-0.157123,17.500000,22.156563,0,0.000000,0," 202"
346," 101",75815,75785,1,1,0.050802,9.893748,0.253428,0.001998,-0.011882,0.096117,-12.013146,12.013146,5.285784,-0.106406,0.757445,-0.326083,178.601524,179.895722,-179.714708,0.999922,-0.012201,0.000940,0.002478,1858.295654,81333.226562,-0.228485,-0.166287,0.419434,-0.214478,-0.246711,17.500000,22.161083,0,0.000000,0," 202"
347," 101",77953,77902,1,1,0.048560,9.877716,0.243176,0.008436,0.004025,0.086506,-12.013146,13.454724,5.766310,-0.381068,0.815558,0.298597,178.568794,-179.452224,-179.740390,0.999909,-0.012315,-0.004757,0.002708,1858.358643,81337.453125,0.583551,0.157215,0.419434,-0.151489,-0.128221,17.500000,22.152042,0,0.000000,0," 202"
348," 101",80140,80133,1,1,0.057372,9.888185,0.249193,0.012542,-0.002560,0.090482,-11.532620,13.454724,6.246836,-0.109885,0.523039,-0.067860,178.571567,179.725759,-179.733327,0.999914,-0.012577,0.002415,0.002867,1858.516357,81333.804688,-0.303426,0.076676,0.419434,0.006226,-0.011940,17.500000,22.143002,0,0.000000,0," 202"
349," 101",82236,82199,1,1,0.045572,9.892075,0.236964,-0.005702,0.001527,0.094016,-11.532620,12.013146,5.766310,-0.387874,-0.550255,-0.446363,178.619036,-179.776467,-179.708370,0.999924,-0.011987,-0.001917,0.002309,1858.409180,81337.304688,0.219977,0.051718,0.419434,-0.100952,-0.101532,17.500000,22.156563,0,0.000000,0," 202"
350," 101",84393,84346,1,1,0.045351,9.909853,0.253332,0.019798,0.002028,0.112174,-12.013146,12.013146,5.766310,-0.504863,0.255616,-1.261282,178.523960,179.980553,-179.851763,0.999916,-0.012788,0.000175,0.002190,1858.579102,81329.460938,-0.493910,0.013426,0.419434,0.068970,0.050706,17.500000,22.124920,0,0.000000,0," 202"
351," 101",86479,86435,1,1,0.054731,9.888992,0.257713,-0.028154,0.000604,0.091461,-11.532620,13.454724,5.285784,0.005927,-0.905276,0.923629,178.503579,179.960786,-179.518764,0.999911,-0.013029,0.000414,0.002914,1858.390259,81334.390625,0.031306,-0.042961,0.419434,-0.119873,-0.136600,17.500000,22.124920,0,0.000000,0," 202"
352," 101",88574,88529,1,1,0.058372,9.876198,0.264451,-0.021442,-0.012598,0.078879,-12.493672,12.974198,5.285784,0.284731,-0.122171,0.455490,178.538263,179.559758,-179.525184,0.999899,-0.013310,0.003909,0.003115,1858.588623,81333.000000,0.273044,0.104261,0.419434,0.078491,-0.002200,17.500000,22.106838,0,0.000000,0," 202"
353," 101",90668,90626,1,1,0.081789,9.911706,0.216543,0.010407,0.030494,0.113356,-11.532620,13.935250,5.766310,-0.362503,0.729443,-0.584662,178.573383,178.535107,-179.555387,0.999848,-0.011021,0.012819,0.004210,1858.432251,81335.546875,0.134192,-0.111495,0.419434,-0.077881,-0.009732,17.500000,22.088755,0,0.000000,0," 202"
354," 101",92766,92757,1,1,0.056779,9.873829,0.261329,0.005110,0.005900,0.076447,-11.532620,13.935250,5.285784,-0.201910,-1.213830,-0.407379,178.449743,179.941115,-179.698616,0.999908,-0.013258,0.000546,0.002856,1858.576172,81334.562500,0.289291,0.207404,0.419434,0.066040,0.010502,17.375000,22.088755,0,0.000000,0," 202"
355," 101",94864,94855,1,1,0.061791,9.890555,0.255322,0.019710,0.011300,0.093017,-12.493672,12.974198,4.805259,-0.312248,0.575971,-0.801931,178.455535,-179.846339,-179.760197,0.999911,-0.012965,-0.001326,0.003006,1858.423340,81334.851562,-0.644653,-0.048632,0.419434,-0.086792,-0.056474,17.500000,22.079714,0,0.000000,0," 202"
356," 101",96963,96952,1,1,0.062781,9.875332,0.256739,0.008568,0.006284,0.077862,-11.052094,12.974198,6.246836,-0.352356,-0.486041,-0.019025,178.473936,-179.578241,-179.696430,0.999904,-0.013039,-0.003651,0.003087,1858.472168,81337.515625,0.001751,-0.021565,0.419434,-0.037964,-0.013076,17.375000,22.088755,0,0.000000,0," 202"
357," 101",99068,99054,1,1,0.066312,9.891355,0.256463,0.001742,0.003865,0.093900,-12.493672,12.974198,5.766310,0.381001,0.229986,0.173763,178.492309,-179.582380,-179.636817,0.999904,-0.012992,-0.003604,0.003296,1858.542725,81333.031250,0.207185,0.079853,0.419434,0.032593,-0.050026,17.500000,22.075193,0,0.000000,0," 202"
358," 101",101250,101205,1,1,0.061108,9.863057,0.238919,-0.017700,0.015922,0.065111,-12.493672,13.935250,5.285784,-0.685018,-0.356097,-0.056793,178.520258,-179.808596,-179.546836,0.999907,-0.012919,-0.001619,0.003976,1858.253174,81336.820312,-1.167989,-0.089511,0.419434,-0.256958,-0.015223,17.500000,22.079714,0,0.000000,0," 202"
359," 101",103361,103345,1,1,0.066570,9.895254,0.271718,-0.015923,-0.001613,0.098195,-12.013146,14.896301,4.805259,-0.401713,0.946048,0.116342,178.436985,-179.653865,-179.531864,0.999896,-0.013727,-0.002954,0.003403,1858.495239,81334.562500,-0.062725,0.014087,0.419434,-0.014893,-0.019169,17.375000,22.088755,0,0.000000,0," 202"
360," 101",105468,105442,1,1,0.051095,9.892805,0.253210,0.009132,0.009933,0.095168,-12.013146,11.532620,5.285784,-0.581822,-0.678401,-0.539684,178.476122,-179.790018,-179.762342,0.999908,-0.013302,-0.001805,0.002098,1858.560059,81332.335938,0.187416,0.060413,0.419434,0.049927,-0.003843,17.375000,22.066153,0,0.000000,0," 202"
361," 101",107582,107549,1,1,0.057246,9.878062,0.246539,-0.005449,0.008997,0.080299,-11.532620,13.935250,6.246836,-0.534010,-0.983087,-0.457183,178.518209,-179.888550,-179.639139,0.999911,-0.012934,-0.000932,0.003161,1858.219116,81341.054688,-0.535370,-0.026071,0.419434,-0.291016,-0.006781,17.375000,22.070673,0,0.000000,0," 202"
362," 101",109706,109659,1,1,0.052227,9.891390,0.265910,-0.003779,-0.005896,0.094099,-12.013146,12.493672,5.285784,-0.385597,-1.081116,0.056194,178.494276,-179.925529,-179.677593,0.999909,-0.013141,-0.000613,0.002822,1858.381348,81334.710938,-0.507293,-0.068177,0.419434,-0.128784,-0.056369,17.500000,22.084234,0,0.000000,0," 202"
363," 101",111831,111825,1,1,0.055604,9.884506,0.262965,0.002420,-0.017992,0.087143,-12.974198,12.974198,4.805259,0.582270,-1.268336,-0.751586,178.580309,-179.826341,-179.696348,0.999919,-0.012393,-0.001482,0.002668,1858.524414,81332.882812,0.186277,0.003203,0.419434,0.014282,-0.025411,17.500000,22.079714,0,0.000000,0," 202"
364," 101",113964,113923,1,1,0.063260,9.885788,0.250725,-0.025257,0.021188,0.088114,-12.974198,13.935250,4.324733,-0.016376,-0.523073,-0.352884,178.427791,-178.485411,-179.525348,0.999826,-0.012824,-0.013147,0.003161,1858.416504,81335.984375,-0.752413,-0.132241,0.419434,-0.093628,0.011315,17.375000,22.075193,0,0.000000,0," 202"
365," 101",116098,116091,1,1,0.076713,9.893958,0.263715,0.015483,-0.009185,0.096753,-11.532620,13.454724,5.285784,0.723285,-0.861853,0.236832,178.523865,-178.649977,-179.681431,0.999836,-0.013322,-0.011752,0.003640,1858.588745,81331.898438,0.413253,0.024000,0.419434,0.078613,0.055628,17.375000,22.079714,0,0.000000,0," 202"
366," 101",118307,118264,1,1,0.069963,9.874023,0.261604,0.007086,0.008702,0.076730,-12.493672,13.454724,5.285784,-0.794420,-0.407137,-0.734264,178.429581,-178.014264,-179.687811,0.999756,-0.013347,-0.017295,0.003277,1858.492188,81335.000000,-0.388793,-0.078678,0.419434,-0.017944,0.042453,17.375000,22.075193,0,0.000000,0," 202"
367," 101",120492,120486,1,1,0.073094,9.868651,0.251207,-0.006541,0.004208,0.071116,-12.013146,13.454724,5.766310,-0.258245,0.305396,0.676697,178.517936,-178.217066,-179.583036,0.999792,-0.012801,-0.015507,0.003538,1858.588379,81333.867188,0.287323,0.065444,0.419434,0.078247,0.041054,17.375000,22.079714,0,0.000000,0," 202"
368," 101",122576,122559,1,1,0.071770,9.902122,0.250711,0.019469,0.003540,0.104535,-11.052094,12.493672,6.246836,0.376123,0.187574,0.008158,178.523824,-177.805370,-179.753053,0.999730,-0.012743,-0.019133,0.003282,1858.616821,81331.210938,-0.278127,-0.109660,0.419434,0.106689,0.061679,17.375000,22.070673,0,0.000000,0," 202"
