index, checksum,uptime mp,uptime nav,  errorflag mp,errorflag NAV,  accel x, accel y, accel z, accelworld x, accelworld y, accelworld z, accelhighg x, accelhighg y, accelhighg z, gyro x, gyro y, gyro z, euler x, euler y, euler z, quat w, quat x, quat y, quat z, altitude, presusre, verticalvel,filtered vvel, maxalt, altitudeagl, filtered alt, imutemp, barotemp,state,battstate,pyros fired,pyros cont,pyros state, checksum2\r
0, 101,0,4593,1,1,2.109869,9.588804,0.387157,-0.055621,-0.041999,0.024566,1.730806,9.212777,-4.211873,0.276063,2.712291,0.626746,177.982955,179.361683,-167.240911,0.993649,-0.016873,0.007491,0.110998,2078.750000,79143.148438,0.608077,1.641120,0.000000,-0.366699,-0.353722,28.625000,33.020866,0,2.910000,0, 202
1, 101,4808,6396,1,1,2.136503,9.616979,0.371208,-0.003414,-0.019239,0.057414,2.211333,10.173829,-6.614501,0.530793,-0.215406,-0.037807,177.953503,179.311590,-167.428823,0.993824,-0.017093,0.007926,0.109358,2078.913574,79140.984375,0.806199,0.539855,0.000000,-0.203125,-0.270755,28.500000,32.826363,0,2.910000,0, 202
2, 101,0,4763,1,1,-4.727687,6.388405,-5.998828,-0.041710,0.111500,0.155631,-4.516029,5.368570,-10.458709,-6.764571,0.731675,-2.366167,37.221570,11.418943,-44.961967,0.883485,0.257371,0.208543,-0.331248,1341.207764,86681.085938,0.779193,1.622929,1.412598,1.211060,1.221546,14.000000,17.778255,0,2.910000,0, 202
3, 101,4942,6544,1,1,-4.781076,6.135219,-5.513752,-0.342174,0.015791,-0.272951,-4.996555,2.965941,-10.458709,6.596947,-0.283424,2.251332,35.650125,12.128655,-44.090985,0.889592,0.244393,0.207474,-0.325350,1341.496216,86676.289062,0.741663,0.263939,1.654541,1.499512,1.485457,14.375000,18.009733,0,2.910000,0, 202
4, 101,8627,8594,1,1,-4.574719,6.279130,-5.679203,0.204102,0.038126,-0.179890,-5.477081,3.926993,-9.978183,-15.231696,2.735604,-8.065327,37.178649,11.799447,-46.419079,0.879419,0.253037,0.214506,-0.341441,1342.073975,86670.109375,0.317136,0.478053,2.224854,2.077271,2.024671,14.500000,18.204893,0,2.910000,0, 202
5, 101,0,1937,1,1,-3.028054,8.504736,-3.334962,0.009425,0.106455,-0.177581,-2.113400,7.771200,-8.056079,2.038078,0.188933,-0.499573,19.663841,-2.818647,-18.615684,0.970568,0.177210,0.004585,-0.163011,1342.640381,86660.203125,1.139378,237.902527,0.000000,-0.528809,-10.459178,17.875000,21.806988,0,2.910000,0, 202
6, 101,2104,3712,1,1,-3.227206,8.839828,-3.300574,-0.068415,-0.093363,0.170852,-2.593925,7.290674,-7.575553,6.941559,0.651773,0.963852,19.904945,-2.640740,-18.711945,0.970944,0.174176,0.005695,-0.164008,1342.956543,86659.351562,-0.113840,9.274181,0.000000,-0.212646,0.165778,18.000000,21.897684,0,2.910000,0, 202
7, 101,5897,5854,1,1,-3.044730,8.845123,-3.417323,0.158410,0.077126,-0.091863,-3.554977,7.290674,-9.017131,1.187831,0.534627,0.770618,20.252402,-2.410132,-19.290693,0.969673,0.176762,0.009041,-0.168548,1343.172852,86658.859375,0.788209,0.484709,0.128540,0.003662,-0.065303,18.125000,21.970238,0,2.910000,0, 202
8, 101,7997,7978,1,1,-2.955680,8.581044,-3.814007,-0.170626,0.193237,0.040268,-3.074451,7.290674,-8.056079,10.091352,1.960738,3.632945,21.698796,-1.133433,-17.451967,0.970428,0.187514,0.018953,-0.150830,1343.100098,86653.976562,-0.132276,-0.137030,0.128540,-0.069092,-0.195922,18.125000,22.065464,0,2.910000,0, 202
9, 101,10202,10190,1,1,-3.010569,8.600022,-3.426627,0.276357,0.015439,-0.070169,-4.516029,6.329622,-8.536605,-4.251579,-1.569627,0.750303,20.507296,-0.718826,-20.761103,0.969778,0.176546,0.028378,-0.166006,1343.192017,86655.578125,0.855681,0.432115,0.128540,0.022827,-0.235346,18.250000,22.178825,0,2.910000,0, 202
10, 101,12316,12275,1,1,-3.041345,8.944516,-3.516605,0.109095,-0.049188,0.278997,-4.035503,7.290674,-8.536605,-11.347261,-1.401895,-4.225306,20.705857,0.615104,-19.669908,0.969413,0.176165,0.035899,-0.167077,1343.262573,86656.851562,-0.205010,0.085934,0.311035,0.093384,0.131270,18.250000,22.260445,0,2.910000,0, 202
11, 101,14434,14416,1,1,-3.110983,8.576769,-3.532369,0.180264,-0.232057,-0.021917,-3.554977,7.290674,-9.978183,1.945760,-0.066720,-0.416829,22.534553,0.311626,-21.189654,0.964101,0.191564,0.038546,-0.179796,1343.784546,86649.273438,0.415123,0.365422,0.628052,0.615356,0.477257,18.375000,22.342062,0,2.910000,0, 202
12, 101,16557,16554,1,1,-3.278065,8.680286,-3.586765,0.094760,0.061050,0.146123,-2.593925,5.849096,-7.095027,-4.788781,0.260836,-1.718720,20.786854,0.261910,-21.375193,0.966604,0.176859,0.035666,-0.182005,1343.838135,86647.203125,0.452214,0.211846,0.668945,0.668945,0.501573,18.500000,22.441814,0,2.910000,0, 202
13, 101,18678,18675,1,1,-2.995759,8.319079,-3.328008,0.058420,-0.044538,-0.353678,-2.593925,7.771200,-7.575553,8.572790,2.133394,1.057097,20.903027,0.760990,-20.469351,0.968807,0.175191,0.038783,-0.170931,1344.022705,86643.726562,0.517721,0.228629,0.853516,0.853516,0.654347,18.500000,22.514360,0,2.910000,0, 202
14, 101,20813,20794,1,1,-3.067466,8.588016,-3.622048,0.118215,-0.083386,0.010303,-3.554977,8.732251,-6.614501,-3.129532,5.148156,2.295956,22.170524,1.169627,-20.863294,0.965427,0.187268,0.044662,-0.175745,1344.521118,86636.921875,1.162498,0.234590,1.351929,1.351929,0.914751,18.625000,22.605040,0,2.910000,0, 202
15, 101,23030,23031,1,1,-2.944352,9.105581,-3.323657,0.130193,0.053035,0.328548,-3.554977,7.290674,-9.017131,4.020109,-12.267944,2.207561,18.928119,3.178373,-19.805003,0.972669,0.159180,0.056511,-0.159319,1344.159180,86646.109375,-0.109775,-0.054349,1.362427,0.989990,1.074207,18.625000,22.682117,0,2.910000,0, 202
16, 101,25165,25162,1,1,-2.895853,8.968131,-3.399214,-0.010869,0.241874,0.214457,-2.593925,7.771200,-7.575553,-0.440334,-1.547725,-0.166168,18.489004,3.674511,-19.156599,0.971810,0.163659,0.059571,-0.158908,1344.525391,86639.382812,-0.399293,0.044728,1.520142,1.356201,1.334846,18.750000,22.768261,0,2.910000,0, 202
17, 101,27309,27300,1,1,-2.662683,8.444272,-3.032853,-0.035173,0.446806,-0.452581,-4.035503,7.771200,-8.056079,-1.286823,-3.720822,-2.230840,16.220337,4.736775,-18.899294,0.973352,0.153392,0.066626,-0.156900,1344.565186,86638.835938,-0.571319,0.035530,1.724854,1.395996,1.443684,18.750000,22.840801,0,2.910000,0, 202
18, 101,29482,29438,1,1,-3.000565,8.659142,-2.784892,-0.055283,-0.160536,-0.224417,-3.554977,6.810148,-9.497657,-2.265053,-1.423590,-0.612944,17.899730,4.977074,-20.281630,0.973297,0.138283,0.067945,-0.170157,1344.812744,86638.875000,0.490097,0.125140,1.789551,1.643555,1.588680,18.750000,22.931475,0,2.910000,0, 202
19, 101,31640,31606,1,1,-2.834931,9.113245,-3.014296,-0.113859,0.121476,0.206314,-3.554977,8.251725,-7.095027,-6.479572,0.917951,-3.592568,16.854286,5.655924,-18.385110,0.976465,0.136697,0.071561,-0.150698,1345.017334,86634.289062,-0.375935,0.271721,2.098755,1.848145,1.793549,18.875000,23.008545,0,2.910000,0, 202
20, 101,33859,33854,1,1,-3.329818,9.246684,-3.153612,0.105319,-0.104434,0.519471,-4.516029,9.212777,-9.017131,-2.696825,-0.960449,-2.018984,18.530814,5.858648,-22.308953,0.970127,0.143219,0.080438,-0.178524,1345.339233,86634.414062,0.902513,0.146188,2.234131,2.170044,2.003727,19.000000,23.094683,0,2.910000,0, 202
21, 101,35968,35952,1,1,-2.877750,8.665664,-3.028655,-0.138317,0.310549,-0.186825,-4.516029,8.732251,-8.056079,-4.007657,-4.140456,-4.930995,16.552292,7.518714,-20.003691,0.971024,0.144893,0.090347,-0.167199,1345.871582,86626.757812,0.565934,0.309390,2.702393,2.702393,2.488651,19.000000,23.176285,0,2.910000,0, 202
22, 101,38059,38055,1,1,-3.622566,8.708652,-2.069746,-0.219951,0.120238,-0.147781,-2.593925,8.732251,-8.536605,8.278670,-4.208798,4.134508,11.614711,2.902424,-21.885603,0.974445,0.100448,0.044011,-0.196034,1346.347778,86619.195312,0.816707,0.146171,3.178589,3.178589,2.940504,19.125000,23.253351,0,2.910000,0, 202
23, 101,40239,40225,1,1,-3.292847,9.136533,-2.112188,0.103529,-0.155798,0.136073,-3.554977,8.251725,-7.095027,-11.768100,-5.029680,-4.879192,13.153931,-2.844791,-19.811706,0.979423,0.110157,-0.005270,-0.169023,1346.607178,86618.507812,0.250487,0.073639,3.517822,3.437988,3.385820,19.125000,23.330418,0,2.910000,0, 202
24, 101,42331,42302,1,1,-3.258538,8.923798,-2.438937,-0.003217,0.378375,-0.000109,-3.074451,6.329622,-6.614501,-0.358734,-2.869253,-2.894606,12.292502,-6.748592,-18.299322,0.978898,0.114827,-0.040780,-0.164047,1347.195190,86611.820312,0.559461,0.186594,4.026001,4.026001,3.781460,19.250000,23.412014,0,2.910000,0, 202
25, 101,44435,44412,1,1,-2.616515,9.128446,-2.888693,-0.180516,0.201582,0.120996,-2.593925,9.212777,-8.056079,20.128067,-0.544935,7.849792,16.113504,-8.469553,-12.294938,0.978275,0.155277,-0.057863,-0.124577,1347.236206,86614.375000,-0.571510,0.088933,4.499512,4.067017,4.137167,19.375000,23.475477,0,2.910000,0, 202
26, 101,46544,46520,1,1,-2.528926,8.951174,-2.809932,-0.132041,0.409462,-0.093807,-2.113400,9.693303,-7.095027,5.341581,-6.095154,3.321010,14.726825,-8.784030,-12.276532,0.978657,0.153398,-0.060473,-0.122651,1347.584717,86606.984375,-0.226339,0.244563,4.621094,4.415527,4.416774,19.375000,23.543474,0,2.910000,0, 202
27, 101,48678,48628,1,1,-2.933119,8.636180,-3.663026,-0.177807,0.209248,0.231101,-4.996555,6.810148,-9.978183,18.815867,-8.885997,0.866666,22.112065,-13.100677,-12.636982,0.963708,0.210017,-0.090702,-0.137596,1348.365723,86600.367188,0.301445,0.207668,5.196533,5.196533,4.968366,19.375000,23.620535,0,2.910000,0, 202
28, 101,51012,50998,1,1,-2.788408,8.335739,-3.646399,-0.040403,-0.107353,-0.285600,-1.152348,8.251725,-9.497657,3.076926,-0.347810,2.385365,24.168136,-15.634798,-11.553285,0.960968,0.219735,-0.111452,-0.125836,1349.444336,86587.437500,0.180696,0.511753,6.296143,6.275146,6.103334,19.500000,23.715725,0,2.910000,0, 202
29, 101,53145,53108,1,1,-3.211955,8.527709,-3.801478,-0.219928,-0.380607,0.062898,-4.516029,6.329622,-9.497657,3.809312,-0.468093,2.140780,26.174743,-15.651872,-12.478310,0.958456,0.219702,-0.112172,-0.143212,1349.805420,86584.367188,0.264438,0.199532,6.646729,6.636230,6.530230,19.625000,23.765585,0,2.910000,0, 202
30, 101,55292,55280,1,1,-2.928715,7.893191,-4.117132,-0.044232,0.267788,-0.433132,-3.074451,8.251725,-8.536605,-4.831578,3.553519,-2.997889,25.359729,-14.002127,-13.039836,0.959037,0.229960,-0.093408,-0.136535,1349.566772,86584.046875,0.229340,-0.394464,6.834839,6.397583,6.262402,19.625000,23.824511,0,2.910000,0, 202
31, 101,57508,57465,1,1,-3.142286,8.307488,-4.529294,0.204370,0.334708,0.161381,-2.593925,6.810148,-9.497657,4.549271,0.153969,1.806928,25.670243,-14.017531,-14.772849,0.953923,0.249191,-0.085181,-0.143802,1348.981934,86592.085938,-0.522388,-0.238181,6.834839,5.812744,5.942069,19.625000,23.906099,0,2.910000,0, 202
32, 101,59658,59645,1,1,-2.983558,8.076559,-4.274429,-0.197960,0.182270,-0.192111,-4.035503,7.290674,-10.458709,3.621960,-0.832159,2.737343,26.267984,-12.203061,-12.753859,0.956341,0.243490,-0.078834,-0.141101,1348.714355,86598.656250,0.072101,-0.322797,6.834839,5.545166,5.586586,19.750000,23.965023,0,2.910000,0, 202
33, 101,61785,61757,1,1,-3.316976,8.299335,-4.050992,-0.007026,-0.424623,0.002647,-4.035503,6.329622,-10.458709,9.409094,-0.748867,6.058052,27.667146,-13.963740,-15.267095,0.951392,0.250905,-0.085457,-0.156834,1348.205933,86602.953125,-0.323931,-0.310771,6.834839,5.036743,5.207413,19.750000,24.037544,0,2.910000,0, 202
34, 101,63939,63930,1,1,-3.023257,8.692739,-4.288485,0.191326,-0.259160,0.347455,-4.035503,7.290674,-8.056079,-1.448853,0.406154,-0.846938,26.572658,-8.553922,-16.364884,0.962146,0.226476,-0.038991,-0.146503,1347.555420,86608.429688,-1.851036,-0.383458,6.834839,4.386230,4.733562,19.875000,24.100998,0,2.910000,0, 202
35, 101,66078,66047,1,1,-3.551584,8.496634,-4.537778,0.007665,-0.084298,0.465003,-4.035503,7.290674,-10.458709,1.936426,0.204272,-0.057018,27.108447,-9.747835,-17.877467,0.954726,0.240005,-0.045857,-0.169686,1346.637207,86618.632812,-0.097468,-0.516451,6.834839,3.468018,3.611832,19.875000,24.173517,0,2.910000,0, 202
36, 101,68227,68225,1,1,-2.957189,8.752302,-4.346255,0.028151,-0.206514,0.406559,-2.113400,9.693303,-10.939234,0.801721,-0.433978,0.881655,26.585378,-7.853032,-15.125022,0.960406,0.236161,-0.035874,-0.143389,1346.213257,86625.304688,-0.611090,-0.237517,6.834839,3.044067,3.118120,20.000000,24.227905,0,2.910000,0, 202
37, 101,70377,70344,1,1,-3.233075,8.063343,-4.090748,0.018673,-0.118929,-0.199437,-3.074451,7.290674,-10.458709,1.320755,-0.045528,0.480353,26.180417,-8.116179,-18.123014,0.958359,0.228645,-0.033224,-0.167824,1346.025391,86627.820312,-0.328685,-0.021773,6.834839,2.856201,2.939811,20.125000,24.291357,0,2.910000,0, 202
38, 101,72540,72514,1,1,-3.368111,8.140729,-4.490424,-0.110011,0.111117,0.086118,-3.074451,8.732251,-9.978183,2.165750,-1.108611,1.367072,26.771311,-8.200432,-17.539154,0.956476,0.238817,-0.033541,-0.164299,1345.916382,86626.593750,0.168039,-0.196583,6.834839,2.747192,2.748274,20.125000,24.345743,0,2.910000,0, 202
39, 101,74852,74799,1,1,-2.874351,8.088263,-4.559863,0.589789,0.096474,-0.099604,-4.516029,9.693303,-11.419760,7.428417,-2.082181,4.763465,27.215322,-8.642287,-18.919747,0.953073,0.243449,-0.033677,-0.176775,1345.928467,86626.250000,-0.535703,-0.145690,6.834839,2.759277,2.867389,20.250000,24.404661,0,2.910000,0, 202
40, 101,76932,76883,1,1,-3.206481,8.096785,-4.033268,0.150829,0.075765,-0.535508,-3.074451,7.290674,-9.017131,-1.438445,0.261157,-1.496109,25.867542,-8.071611,-17.960988,0.957836,0.231240,-0.032901,-0.167320,1346.319580,86624.031250,-0.722482,0.183146,6.834839,3.150391,3.265088,20.250000,24.459047,0,2.910000,0, 202
41, 101,79020,78970,1,1,-3.005818,8.213613,-4.486371,-0.221502,-0.306202,0.137655,-3.074451,8.732251,-9.497657,0.040684,0.334514,-0.787891,26.084523,-7.041788,-16.387376,0.960464,0.231471,-0.027116,-0.152299,1346.502686,86620.140625,0.084015,0.176321,6.834839,3.333496,3.247208,20.250000,24.499836,0,2.910000,0, 202
42, 101,81113,81061,1,1,-3.003412,8.000216,-4.256467,0.219315,0.077161,0.105014,-3.074451,7.771200,-9.497657,1.949466,0.002376,1.579867,25.044354,-7.450445,-17.264683,0.961000,0.223428,-0.030233,-0.160141,1346.897095,86615.835938,0.436039,0.382654,6.834839,3.727905,3.632704,20.375000,24.558752,0,2.910000,0, 202
43, 101,83219,83191,1,1,-3.108798,8.415933,-4.212267,0.040010,-0.052747,0.110174,-3.074451,7.290674,-10.939234,2.987312,-0.424231,2.301724,25.660128,-7.605414,-16.937961,0.960109,0.228679,-0.031328,-0.157847,1346.949951,86614.703125,-0.119087,0.140093,6.834839,3.780762,3.870013,20.375000,24.608603,0,2.910000,0, 202
44, 101,85326,85289,1,1,-3.015684,8.172932,-3.986951,0.091290,0.210952,-0.223208,-4.516029,7.771200,-10.939234,-5.711084,-0.445666,-3.644300,23.444384,-6.775535,-17.741661,0.962457,0.218958,-0.023383,-0.158703,1347.555664,86608.312500,0.593813,0.218333,6.834839,4.386475,4.259958,20.375000,24.672049,0,2.910000,0, 202
45, 101,87443,87389,1,1,-2.902354,8.362551,-4.040286,0.235886,-0.135925,-0.074453,-3.554977,6.810148,-9.497657,2.630087,-0.135967,1.621687,25.344790,-6.792037,-17.562839,0.960527,0.225247,-0.023684,-0.161528,1347.934326,86609.250000,-0.924821,0.287856,6.834839,4.765137,4.947243,20.500000,24.717367,0,2.910000,0, 202
46, 101,89556,89549,1,1,-3.067514,8.763884,-4.447816,0.192065,-0.061177,0.492577,-3.074451,6.810148,-9.978183,-4.331735,1.129449,-3.260129,25.963352,-5.863859,-17.663368,0.961790,0.226887,-0.013311,-0.152662,1348.743164,86598.125000,1.352754,0.692020,6.834839,5.573975,5.334493,20.500000,24.771749,0,2.910000,0, 202
47, 101,91848,91845,1,1,-3.064465,8.082103,-4.194093,0.062925,0.242376,-0.196884,-2.593925,6.810148,-8.536605,-0.184945,0.423301,-1.351660,24.529665,-5.559049,-18.477642,0.959673,0.227978,-0.010171,-0.164167,1349.404175,86587.570312,1.625075,0.572408,6.834839,6.234985,5.936203,20.500000,24.844255,0,2.910000,0, 202
48, 101,93956,93956,1,1,-2.618499,8.391897,-4.203747,0.270082,0.348734,-0.066658,-3.074451,8.251725,-9.017131,-0.923076,0.404683,-1.082791,23.458942,-3.804553,-17.271528,0.964872,0.221302,0.003416,-0.141544,1349.623291,86588.804688,0.192974,0.234871,6.834839,6.454102,6.376470,20.625000,24.875978,0,2.910000,0, 202
49, 101,96072,96069,1,1,-3.106147,8.328930,-4.181464,0.024570,0.226042,0.020006,-4.516029,7.771200,-9.978183,3.546801,0.583147,1.126377,23.940972,-4.395779,-18.538894,0.961442,0.220562,-0.001694,-0.164254,1350.239624,86580.742188,0.327916,0.438962,7.134766,7.070435,6.907685,20.625000,24.925825,0,2.910000,0, 202
50, 101,98190,98178,1,1,-3.250901,8.276203,-4.058722,0.117184,0.088262,-0.027792,-2.593925,7.290674,-8.056079,11.354755,0.570120,2.463040,24.073604,-5.696168,-19.594814,0.960859,0.217481,-0.010575,-0.171292,1351.562500,86568.046875,1.149706,0.484580,8.438232,8.393311,8.080839,20.625000,24.962078,0,2.910000,0, 202
51, 101,100323,100293,1,1,-2.999516,8.141432,-3.913029,0.068452,-0.000423,-0.283274,-3.074451,9.212777,-8.536605,3.269749,-0.029613,0.952219,24.329953,-4.750756,-18.530959,0.963092,0.214322,-0.005397,-0.162762,1352.218628,86558.000000,0.950974,0.386313,9.049438,9.049438,8.735442,20.750000,25.011925,0,2.910000,0, 202
52, 101,102464,102446,1,1,-3.011941,8.387694,-4.344421,0.187435,0.183465,0.110125,-4.035503,6.810148,-8.056079,-4.155094,0.765937,-2.512181,24.907268,-2.869481,-19.559285,0.960646,0.224484,0.015792,-0.162839,1352.769897,86554.750000,0.153619,0.668463,9.718262,9.600708,9.420742,20.750000,25.066303,0,2.910000,0, 202
53, 101,104609,104566,1,1,-2.994222,8.389681,-4.076412,0.006979,-0.034022,-0.004672,-3.074451,6.329622,-8.536605,-4.868631,-0.206530,-2.930524,24.817602,-2.799656,-18.403815,0.963332,0.214363,0.010619,-0.161022,1353.266724,86545.117188,-0.235683,0.170237,10.149658,10.097534,9.938464,20.875000,25.098022,0,2.910000,0, 202
54, 101,106758,106745,1,1,-3.075132,8.186261,-4.241799,-0.115946,0.122369,-0.083194,-2.593925,6.329622,-9.017131,-5.964168,-0.465264,-3.128463,25.247506,-3.312659,-18.218187,0.959978,0.225648,0.006463,-0.165783,1353.573120,86540.210938,0.270804,0.104421,10.637207,10.403931,10.340651,20.875000,25.138805,0,2.910000,0, 202
55, 101,108992,108989,1,1,-3.023219,8.087062,-4.074682,-0.012854,0.208152,-0.256370,-4.035503,7.290674,-9.017131,4.041679,-0.964354,2.874544,24.118882,-4.817989,-18.131938,0.961246,0.222050,-0.006232,-0.163281,1354.089844,86544.750000,0.400395,0.474704,11.178955,10.920654,10.856686,20.875000,25.197712,0,2.910000,0, 202
56, 101,111134,111112,1,1,-3.008428,8.300717,-4.164053,0.032664,0.270766,-0.043054,-4.035503,7.771200,-10.458709,2.296810,-0.014315,0.527840,23.705785,-3.787569,-18.345325,0.962128,0.219841,0.003139,-0.161152,1354.744629,86534.015625,0.246720,0.480029,11.694092,11.575439,11.430782,20.875000,25.233963,0,2.910000,0, 202
57, 101,113290,113282,1,1,-2.941261,8.451953,-4.011650,0.110759,-0.094799,0.005049,-3.554977,7.771200,-9.497657,-1.752145,-1.152596,-0.891915,24.717420,-4.168975,-18.026560,0.964645,0.212630,-0.001180,-0.155716,1355.040771,86529.210938,0.194871,0.246853,12.055664,11.871582,11.816541,21.000000,25.270212,0,2.910000,0, 202
58, 101,115499,115459,1,1,-3.040442,8.664064,-4.147752,-0.266575,-0.251600,0.267753,-3.554977,7.771200,-9.978183,-1.314864,0.803331,-0.307968,25.858439,-2.716780,-16.442598,0.964276,0.213938,0.004817,-0.156140,1355.587524,86523.195312,-0.946699,0.146274,12.952393,12.418335,12.484954,21.125000,25.315525,0,2.910000,0, 202
59, 101,117587,117549,1,1,-2.767919,8.315387,-4.125973,0.150081,0.297728,-0.120116,-3.074451,7.771200,-8.056079,-0.008857,0.268532,0.209433,23.434400,-2.002597,-18.449499,0.963974,0.216394,0.019295,-0.153476,1356.222656,86514.320312,0.286201,0.311996,13.115112,13.053467,12.885626,21.125000,25.356306,0,2.910000,0, 202
60, 101,119681,119639,1,1,-3.193201,8.183096,-4.123626,-0.104259,0.092780,-0.098196,-2.593925,8.732251,-9.978183,1.959910,0.148363,0.280916,24.691260,-3.455996,-19.010397,0.960203,0.219806,0.005917,-0.172225,1356.807861,86510.382812,0.611669,0.273608,13.638672,13.638672,13.419765,21.000000,25.397085,0,2.910000,0, 202
61, 101,121780,121734,1,1,-3.217424,8.604727,-4.110784,-0.210698,-0.374688,0.254193,-4.035503,7.290674,-9.497657,6.728894,-0.081449,3.668277,26.344262,-2.848689,-17.909062,0.962820,0.212766,0.006760,-0.166321,1357.177856,86509.414062,-0.306341,0.376974,14.317627,14.008667,13.991955,21.125000,25.437866,0,2.910000,0, 202
62, 101,123899,123872,1,1,-3.026280,8.150136,-4.123164,0.016728,0.002783,-0.178980,-2.593925,8.732251,-9.978183,2.832997,0.247642,2.097401,25.381686,-2.700346,-19.199460,0.960778,0.220387,0.013961,-0.167749,1357.602539,86501.734375,0.105036,0.057827,14.449585,14.433350,14.290932,21.125000,25.469584,0,2.910000,0, 202
63, 101,126077,126029,1,1,-2.963186,7.974957,-4.485979,0.411043,-0.193395,0.212381,-3.074451,8.732251,-8.056079,-1.057360,0.499386,-1.473794,26.185251,-3.336514,-19.753935,0.958031,0.227938,0.010905,-0.173500,1357.717285,86503.726562,0.044467,0.300499,14.816162,14.548096,14.603364,21.125000,25.510363,0,2.910000,0, 202
64, 101,128180,128132,1,1,-3.089353,8.585676,-4.213486,0.016668,-0.058814,0.249257,-3.074451,8.251725,-9.497657,-1.640430,-0.078821,-1.758154,25.125761,-1.273177,-19.306742,0.961773,0.216236,0.025781,-0.166045,1357.554932,86506.710938,-0.306994,0.041590,14.816162,14.385742,14.560319,21.250000,25.551140,0,2.910000,0, 202
65, 101,130287,130239,1,1,-3.044210,8.519450,-3.653584,-0.268921,0.186971,-0.049608,-3.074451,8.251725,-9.978183,11.545464,2.273801,2.759449,21.215647,-6.099777,-15.473812,0.967762,0.197211,-0.028193,-0.154107,1357.516235,86507.820312,-0.220379,-0.118304,14.878906,14.347046,14.583213,21.250000,25.587387,0,2.910000,0, 202
66, 101,132400,132354,1,1,-2.984897,8.320343,-3.893213,0.022458,0.353551,-0.148574,-4.035503,7.290674,-9.017131,-5.807136,0.190889,-1.991773,21.792241,-5.907044,-17.269973,0.968089,0.194235,-0.021680,-0.156866,1357.654785,86503.210938,-0.658418,-0.027682,14.878906,14.485596,14.593757,21.250000,25.614573,0,2.910000,0, 202
67, 101,134529,134504,1,1,-2.906371,8.697032,-3.290473,0.263458,0.060669,-0.062444,-3.074451,8.251725,-9.978183,-4.860138,-0.336680,-3.317612,19.327298,-5.541106,-18.137892,0.971070,0.173083,-0.020627,-0.163217,1356.793823,86508.828125,-0.545479,-0.533965,14.878906,13.624634,13.743553,21.375000,25.668943,0,2.910000,0, 202
68, 101,136658,136621,1,1,-2.738013,8.938340,-3.684514,0.318079,0.179951,0.240550,-2.593925,7.290674,-7.575553,3.107436,1.730985,-0.888073,20.411585,-4.930747,-17.039538,0.971878,0.189366,-0.011822,-0.139476,1355.788574,86523.117188,-0.259380,-0.493835,14.878906,12.619385,12.866376,21.375000,25.691597,0,2.910000,0, 202
69, 101,138792,138742,1,1,-3.261645,9.146217,-3.027156,0.186333,-0.013406,0.250527,-3.554977,8.732251,-8.056079,-8.539624,-0.223479,-1.705983,18.215539,-4.636676,-18.292433,0.973023,0.162500,-0.014293,-0.163144,1354.894531,86534.117188,-0.467318,-0.500416,14.878906,11.725342,12.126489,21.500000,25.727844,0,2.910000,0, 202
70, 101,140927,140920,1,1,-2.970242,8.892724,-3.248950,0.076338,-0.183688,0.119634,-3.074451,10.654355,-7.575553,14.120147,0.724674,4.733217,20.189214,-3.953157,-17.565252,0.973461,0.170224,-0.007497,-0.152781,1354.197998,86540.054688,-0.667433,-0.489695,14.878906,11.028809,11.333408,21.500000,25.768621,0,2.910000,0, 202
71, 101,143147,143139,1,1,-3.001853,8.569740,-3.103242,0.060553,0.431229,-0.214965,-3.074451,8.251725,-9.017131,2.119524,0.199061,-1.611851,16.322907,-4.479288,-18.153825,0.973153,0.165935,-0.012134,-0.159036,1353.727295,86545.226562,0.015131,-0.425359,14.878906,10.558105,10.519590,21.500000,25.800335,0,2.910000,0, 202
72, 101,145278,145256,1,1,-2.697754,8.836901,-3.334910,0.293280,0.322384,0.012275,-3.554977,8.732251,-9.017131,-0.133600,1.040111,-2.888631,17.897998,-3.921910,-17.381694,0.974644,0.173293,-0.005505,-0.141449,1353.072754,86552.164062,-0.326889,-0.188632,14.878906,9.903564,10.063714,21.500000,25.841112,0,2.910000,0, 202
73, 101,147417,147377,1,1,-3.027331,8.575729,-3.750579,0.016599,0.127947,0.035568,-2.593925,8.251725,-7.095027,1.053727,1.357859,0.913680,21.719851,-4.112614,-17.849272,0.967510,0.197144,-0.004527,-0.158232,1352.631348,86558.210938,-0.439494,-0.015042,14.878906,9.462158,9.667797,21.500000,25.877357,0,2.910000,0, 202
74, 101,149563,149560,1,1,-3.270375,8.709348,-3.569530,-0.215516,0.490310,0.149014,-2.593925,5.368570,-7.095027,12.097080,-1.219059,5.885943,18.324330,-4.045356,-17.694638,0.968605,0.184027,-0.008052,-0.166956,1351.956665,86560.414062,-0.177637,-0.541715,14.878906,8.787476,8.762175,21.625000,25.909071,0,2.910000,0, 202
75, 101,151706,151682,1,1,-3.033584,8.786849,-3.927830,-0.102331,0.516553,0.276793,-3.074451,8.251725,-7.575553,-3.569539,1.964998,-1.619053,20.002504,-1.704712,-17.695140,0.967604,0.196256,0.014985,-0.158120,1351.435181,86563.601562,-0.850473,-0.262951,14.878906,8.265991,8.375340,21.500000,25.940784,0,2.910000,0, 202
76, 101,153870,153848,1,1,-2.955245,8.612412,-3.371547,-0.019703,-0.312296,-0.096541,-3.074451,7.771200,-9.017131,11.348752,-0.584253,3.942649,22.181982,-2.177509,-18.008243,0.971030,0.178852,0.009232,-0.158202,1351.773315,86561.960938,0.388846,0.285939,14.878906,8.604126,8.401127,21.625000,25.967968,0,2.910000,0, 202
77, 101,156032,155984,1,1,-2.962689,8.949227,-3.449905,-0.081362,-0.124925,0.236221,-2.593925,9.212777,-9.497657,-0.863405,1.758361,-2.083574,20.822564,-0.727844,-17.556446,0.972253,0.174177,0.019902,-0.154890,1351.914062,86566.140625,-0.221318,0.272084,14.878906,8.744873,8.661116,21.625000,25.999681,0,2.910000,0, 202
78, 101,158251,158226,1,1,-2.936229,8.747182,-3.242550,0.151943,-0.197460,-0.024156,-3.554977,9.693303,-10.458709,-1.428567,0.621274,-1.835768,20.514531,-0.518280,-19.317158,0.972623,0.167286,0.025212,-0.159327,1352.200439,86559.539062,0.409935,0.258910,14.878906,9.031250,8.869986,21.625000,26.026865,0,2.910000,0, 202
79, 101,160420,160381,1,1,-2.953783,8.755233,-3.508081,-0.039495,0.108566,0.081926,-3.074451,8.732251,-8.536605,1.052338,-0.580352,-0.861635,20.159192,0.749176,-18.682558,0.970527,0.176510,0.035234,-0.160250,1352.312256,86557.781250,0.336305,0.186602,14.878906,9.143066,9.034520,21.625000,26.058578,0,2.910000,0, 202
80, 101,162514,162477,1,1,-3.051318,8.370053,-3.693512,-0.026771,0.151455,-0.158038,-3.074451,9.693303,-7.095027,1.994378,0.270320,0.369574,21.617943,0.325415,-19.992158,0.965896,0.191080,0.036270,-0.170931,1352.771851,86554.039062,0.565855,0.202485,14.878906,9.602661,9.533322,21.625000,26.090290,0,2.910000,0, 202
81, 101,164616,164607,1,1,-2.814786,8.490326,-3.724774,0.032693,0.187431,-0.113565,-3.074451,9.212777,-7.575553,1.461411,-0.661620,1.314049,21.518229,1.819671,-19.309406,0.967510,0.189753,0.048365,-0.159935,1352.783936,86551.507812,-0.735260,-0.091375,14.878906,9.614746,9.620420,21.750000,26.112942,0,2.910000,0, 202
82, 101,166713,166707,1,1,-2.648350,8.486239,-4.040866,0.061378,0.386576,-0.043674,-3.554977,8.251725,-9.497657,2.083034,1.426980,-1.502296,22.228398,2.874828,-19.036057,0.965206,0.203044,0.059463,-0.153672,1351.771729,86565.695312,-0.757011,-0.449222,14.878906,8.602539,8.875969,21.750000,26.140125,0,2.910000,0, 202
83, 101,168813,168761,1,1,-2.836090,9.028026,-4.117649,-0.197520,0.387666,0.509887,-3.074451,8.732251,-8.536605,-2.789110,-1.540228,0.604285,21.345963,4.193463,-18.068589,0.970924,0.177138,0.064570,-0.147514,1350.287109,86582.085938,-0.870186,-0.900505,14.878906,7.117920,7.468722,21.750000,26.158245,0,2.910000,0, 202
84, 101,170915,170861,1,1,-2.936619,8.418345,-4.046011,-0.295231,0.332546,-0.020165,-2.593925,8.732251,-6.133976,10.888974,-0.779794,3.255056,22.404600,3.723548,-19.021472,0.962832,0.201859,0.063355,-0.167909,1348.872925,86599.132812,-0.775614,-0.820193,14.878906,5.703735,6.096552,21.875000,26.189959,0,2.910000,0, 202
85, 101,173027,173025,1,1,-2.716967,8.852202,-3.563345,-0.074700,-0.199357,0.118451,-3.554977,8.732251,-9.497657,9.788467,-0.910116,5.700462,22.244446,5.037123,-18.542142,0.969936,0.174733,0.071625,-0.153502,1347.734863,86608.367188,-0.022707,-0.717837,14.878906,4.565674,4.761026,21.875000,26.217140,0,2.910000,0, 202
86, 101,175141,175108,1,1,-2.793165,8.507402,-4.081151,0.076577,0.108772,0.038500,-4.035503,8.251725,-10.458709,-7.372024,0.217554,-3.573613,23.991741,4.552362,-20.747801,0.962900,0.197287,0.075611,-0.167880,1347.009766,86617.500000,-0.144747,-0.343357,14.878906,3.840576,4.010079,21.875000,26.248852,0,2.910000,0, 202
87, 101,177346,177325,1,1,-2.814831,8.567714,-4.255783,-0.121052,-0.255485,0.166987,-2.113400,8.251725,-7.575553,-0.130326,0.930080,-0.370280,26.833143,6.802037,-20.638699,0.959309,0.207013,0.095217,-0.166749,1345.261475,86634.773438,-0.996628,-1.098864,14.878906,2.092285,2.559277,22.000000,26.271503,0,2.910000,0, 202
88, 101,179466,179432,1,1,-2.553884,8.623761,-4.171680,0.331265,-0.540502,0.093070,-2.593925,6.810148,-9.978183,1.076615,1.158625,2.050786,28.760257,9.583917,-23.138685,0.957598,0.200881,0.128008,-0.162069,1343.934937,86648.968750,-0.624955,-0.832345,14.878906,0.765747,1.107930,21.875000,26.298683,0,2.910000,0, 202
89, 101,181597,181548,1,1,-2.639782,8.866708,-4.237843,0.332658,-0.373839,0.362457,-3.554977,8.251725,-11.419760,9.557890,-1.847759,-2.089307,27.378368,8.915079,-22.793941,0.959085,0.198773,0.120933,-0.161307,1342.675171,86665.796875,-1.082511,-0.761619,14.878906,-0.494019,-0.078092,22.000000,26.339455,0,2.910000,0, 202
90, 101,183782,183758,1,1,-2.603307,8.489353,-4.480748,-0.118305,0.177341,0.142741,-3.554977,10.173829,-9.017131,-4.040673,1.326673,-2.812725,26.272085,12.315728,-22.587931,0.954239,0.201119,0.146690,-0.165712,1341.482422,86671.851562,-0.457021,-0.546609,14.878906,-1.686768,-1.546999,22.000000,26.375696,0,2.910000,0, 202
91, 101,185922,185916,1,1,-2.127230,8.387684,-4.059543,0.198327,-0.085302,-0.245288,-3.074451,7.771200,-10.458709,-1.523344,1.832805,-0.873924,26.851798,14.307205,-22.469622,0.954493,0.197003,0.164930,-0.151428,1340.455200,86687.257812,-0.403978,-0.507753,14.878906,-2.713989,-2.400650,22.000000,26.393816,0,2.910000,0, 202
92, 101,188059,188026,1,1,-2.886796,8.887273,-4.306094,-0.134922,-0.573045,0.470956,-2.113400,7.290674,-9.978183,-1.910049,-0.490845,-0.271026,28.633852,14.869580,-24.161304,0.950253,0.190766,0.168345,-0.179685,1339.119263,86699.250000,-0.646629,-0.498310,14.878906,-4.049927,-3.709731,22.000000,26.430058,0,2.910000,0, 202
93, 101,190211,190206,1,1,-2.503630,8.735573,-4.767776,-0.065869,0.406595,0.452800,-3.074451,8.251725,-10.458709,-2.539692,0.162712,-0.896216,26.910175,18.422291,-25.612789,0.940344,0.206858,0.205285,-0.175558,1337.592529,86717.187500,-1.304758,-0.729675,14.878906,-5.576660,-5.091326,22.000000,26.466297,0,2.910000,0, 202
94, 101,192355,192327,1,1,-1.927378,8.480131,-4.535249,-0.129305,0.028517,0.006057,-1.632874,8.732251,-9.497657,-3.261274,1.696622,-0.076180,29.311227,21.579259,-23.773409,0.938564,0.208482,0.227391,-0.154678,1335.917969,86733.593750,-0.461893,-1.099301,14.878906,-7.251221,-6.816696,22.000000,26.484417,0,2.910000,0, 202
95, 101,194589,194540,1,1,-2.383293,8.569111,-4.238000,-0.035311,-0.441904,0.237765,-3.554977,7.290674,-9.497657,2.727744,-0.434189,3.260108,29.404777,21.266347,-26.556359,0.935990,0.201779,0.230999,-0.172765,1333.813721,86757.695312,-1.637062,-1.128183,14.878906,-9.355469,-8.714584,22.000000,26.511597,0,2.910000,0, 202
96, 101,196740,196721,1,1,-2.163263,8.601944,-4.804934,-0.192067,0.214002,0.282544,-3.554977,8.732251,-9.978183,-2.541760,3.775568,3.005072,29.671155,24.091182,-26.737404,0.928733,0.208040,0.254047,-0.172148,1332.002563,86776.742188,-1.213491,-1.202685,14.878906,-11.166626,-10.564967,22.125000,26.543306,0,2.910000,0, 202
97, 101,0,4586,1,1,-1.444995,8.223957,-3.975923,-0.345347,0.327177,-0.565031,-1.632874,8.251725,-7.575553,10.128429,-1.706013,4.653498,23.612107,-2.969749,-6.174454,0.976811,0.205600,-0.014313,-0.057993,1294.702759,87168.914062,-1.029450,0.609498,1.549561,0.618896,0.682900,20.750000,24.989267,0,2.910000,0, 202
98, 101,4738,6345,1,1,-1.117034,8.726562,-3.791063,0.119104,-0.179347,-0.223607,-2.113400,9.693303,-9.497657,2.569553,0.018746,1.430802,24.374338,-1.877460,-7.261189,0.977251,0.203456,-0.001982,-0.059858,1294.888794,87165.335938,-0.263424,-0.236051,1.549561,0.804932,0.709759,20.875000,25.061771,0,2.910000,0, 202
99, 101,8428,8414,1,1,-0.434352,9.130862,-3.569926,0.122996,0.113182,0.011122,-0.671822,8.732251,-8.056079,-0.694342,0.315451,-1.174349,20.794303,4.299757,-5.179696,0.982190,0.178492,0.045009,-0.037650,1294.687256,87165.523438,-0.491303,-0.209389,1.549561,0.603394,0.550004,20.875000,25.098022,0,2.910000,0, 202
100, 101,10515,10482,1,1,-0.814003,9.694924,-3.694359,-0.034622,-0.335634,0.600375,-0.191296,5.849096,-9.497657,-1.947047,-1.668689,0.319400,22.674536,3.744129,-6.018923,0.981601,0.180359,0.041352,-0.047111,1294.498291,87171.914062,-0.538944,-0.062166,1.549561,0.414429,0.466341,21.000000,25.165993,0,2.910000,0, 202
101, 101,0,4586,1,1,0.162451,9.990871,-1.677636,0.165156,0.086629,0.329330,-2.593925,8.732251,-8.056079,4.267968,-1.302774,1.603959,9.036401,-0.355583,0.044173,0.996888,0.078774,-0.003124,0.000140,1300.082642,87195.625000,-0.814480,0.803763,0.494629,-0.070190,-0.118057,21.125000,25.388023,0,2.900000,0, 202
102, 101,4750,6355,1,1,-0.260444,9.558718,-1.961728,-0.063794,0.236180,-0.042648,-1.152348,7.771200,-6.614501,3.978396,-0.448737,0.122142,10.214820,-0.902407,-0.993286,0.994894,0.099903,-0.007232,-0.012340,1300.218018,87200.343750,0.594988,0.319434,0.494629,0.065186,-0.017060,21.250000,25.442396,0,2.900000,0, 202
103, 101,8459,8438,1,1,-0.903492,9.292686,-1.864495,-0.133655,0.068453,-0.281331,-0.191296,10.654355,-6.133976,6.891284,-2.189544,0.931169,11.052105,-6.554650,-3.412393,0.993120,0.097792,-0.054015,-0.035090,1300.443604,87195.773438,0.843102,0.323912,0.494629,0.290771,0.118633,21.375000,25.469584,0,2.900000,0, 202
104, 101,10566,10562,1,1,-0.288764,9.678800,-1.604725,-0.272321,0.222969,0.007864,1.250281,9.693303,-6.614501,-3.128393,0.985231,-0.727945,8.247758,-4.014361,0.573385,0.996799,0.071693,-0.035293,0.002469,1300.541260,87194.656250,0.907562,0.277097,0.494629,0.388428,0.172721,21.250000,25.519424,0,2.900000,0, 202
105, 101,12676,12649,1,1,0.054669,9.741395,-1.427941,-0.050162,-0.054211,0.044371,0.289230,10.173829,-7.575553,6.374545,-1.383236,1.275385,8.675700,-2.504457,0.984216,0.996875,0.075429,-0.022440,0.006909,1300.375854,87195.710938,-1.169976,-0.265957,1.019531,0.223022,0.476817,21.375000,25.560202,0,2.900000,0, 202
106, 101,14923,14901,1,1,-0.016658,9.806676,-2.401337,-0.018083,0.149289,0.294295,-0.671822,9.212777,-8.536605,16.326030,-2.723714,2.591909,12.935841,-2.940472,0.729149,0.992538,0.119031,-0.026323,0.002455,1300.658203,87193.125000,0.223800,0.128950,1.019531,0.505371,0.464246,21.375000,25.587387,0,2.900000,0, 202
107, 101,17043,17014,1,1,-0.474482,9.668946,-0.241960,0.071231,-0.566168,-0.134223,-1.632874,13.537511,-6.133976,-0.383948,-18.853339,25.350391,4.720282,-16.720006,-2.819425,0.989007,0.018758,-0.144823,-0.023226,1301.009155,87187.835938,0.450755,0.140883,1.019531,0.856323,0.666797,21.500000,25.646290,0,2.900000,0, 202
108, 101,19170,19124,1,1,-0.718838,10.381705,-0.599246,-0.696866,1.022618,-0.333007,-1.152348,8.251725,-6.133976,2.037198,0.576084,-16.820196,0.844186,-19.629031,-1.126230,0.985278,0.008934,-0.170375,-0.010940,1300.987549,87186.500000,-0.070131,-0.158786,1.019531,0.834717,0.632829,21.500000,25.705191,0,2.900000,0, 202
109, 101,21298,21286,1,1,-0.795618,10.258731,-0.522153,0.039152,-0.152406,0.500575,-0.671822,7.290674,-4.692398,2.108403,0.102255,4.338372,3.863335,-20.220980,-3.596040,0.983241,0.038673,-0.174320,-0.036786,1300.816650,87194.171875,0.022638,-0.106066,1.132568,0.663818,0.807825,21.500000,25.759560,0,2.900000,0, 202
110, 101,23432,23410,1,1,-0.970643,9.678951,-0.825829,-0.064135,0.162694,-0.040075,-0.671822,10.173829,-5.653450,-1.846275,0.396979,-3.677294,4.311072,-19.073534,-3.644672,0.984325,0.049237,-0.164138,-0.041710,1300.920776,87191.164062,0.023126,0.037331,1.132568,0.767944,0.708223,21.500000,25.804867,0,2.900000,0, 202
111, 101,25576,25543,1,1,-0.865218,9.539219,-0.706849,0.262952,-0.088252,-0.200583,-1.632874,9.212777,-6.133976,1.893106,-4.080790,3.836258,4.445949,-20.883051,-5.252955,0.982096,0.044550,-0.178786,-0.039217,1301.121460,87191.898438,-0.490840,0.264691,1.191895,0.968628,0.986867,21.500000,25.859234,0,2.900000,0, 202
112, 101,27720,27667,1,1,-0.472850,9.813439,-0.359972,0.210152,-0.200433,0.385537,-0.671822,8.732251,-5.653450,4.469188,-2.960545,5.037731,3.822588,-20.453273,-4.720873,0.982487,0.040103,-0.175941,-0.046425,1301.002686,87192.640625,-0.250453,0.058819,1.517578,0.849854,1.043188,21.625000,25.913601,0,2.900000,0, 202
113, 101,29866,29860,1,1,-0.935589,9.563293,-0.862277,0.009282,0.212581,-0.155786,-1.152348,9.693303,-5.653450,0.899966,0.999959,3.502218,4.206313,-20.900550,-3.683011,0.981582,0.051710,-0.179600,-0.039591,1301.805054,87174.984375,-0.062214,0.266296,1.660645,1.652222,1.393319,21.625000,25.949846,0,2.900000,0, 202
114, 101,32087,32084,1,1,-0.717911,9.441400,-0.675108,-0.179487,0.090984,-0.310442,-0.191296,8.251725,-5.653450,1.972550,1.726069,0.098012,4.235418,-20.955066,-1.619813,0.982462,0.038902,-0.181194,-0.020609,1302.020020,87174.148438,0.331163,0.056168,1.867188,1.867188,1.537990,21.625000,25.986090,0,2.900000,0, 202
115, 101,34233,34186,1,1,-0.688134,10.124608,-0.598171,0.017537,-0.002825,0.364565,-0.671822,8.732251,-6.133976,1.577346,2.392171,-2.114268,3.582117,-20.567658,-2.726619,0.983044,0.034989,-0.177655,-0.028977,1301.576416,87185.976562,-0.518680,0.002511,1.867188,1.423584,1.631867,21.625000,26.031395,0,2.900000,0, 202
116, 101,36439,36392,1,1,-0.923586,9.772145,-0.488071,-0.136915,-0.055382,0.025710,-1.632874,10.173829,-5.653450,-3.129109,1.346859,-0.326753,3.580133,-18.121393,-3.625559,0.986391,0.035812,-0.156349,-0.036141,1302.030762,87181.960938,1.032094,0.316823,1.989502,1.877930,1.710959,21.750000,26.076700,0,2.900000,0, 202
117, 101,38530,38502,1,1,-1.099385,10.033016,-0.715027,-0.022207,-0.063826,0.317140,-2.113400,7.290674,-5.653450,1.520085,0.705793,-1.110955,4.663534,-17.998354,-4.801900,0.985740,0.046697,-0.154470,-0.047701,1301.457275,87185.085938,-0.488325,-0.216082,1.989502,1.304443,1.451542,21.750000,26.112942,0,2.900000,0, 202
118, 101,40811,40800,1,1,-0.717911,9.444534,-0.335491,0.111403,-0.202679,-0.326102,-0.671822,7.290674,-6.614501,4.168930,1.417403,-5.677301,3.139200,-18.589200,-4.375321,0.985613,0.033175,-0.160301,-0.042078,1301.010010,87193.523438,-1.674518,-0.195376,1.989502,0.857178,1.294294,21.750000,26.176367,0,2.900000,0, 202
119, 101,42897,42851,1,1,-0.897298,9.920156,-0.494501,0.296391,-0.167529,0.011159,-1.152348,9.693303,-5.653450,1.583903,1.840695,-3.032484,3.914307,-18.436241,-5.061607,0.985306,0.040748,-0.158455,-0.049026,1302.964722,87167.148438,1.961093,1.464553,2.815430,2.811890,1.981011,21.875000,26.203548,0,2.900000,0, 202
120, 101,45021,45007,1,1,-0.665395,9.711972,-0.617385,0.446738,0.029998,-0.056984,-1.632874,8.732251,-5.653450,-0.762948,1.678467,3.750698,2.790966,-17.915573,-5.508178,0.986990,0.036048,-0.153571,-0.031109,1300.907471,87192.265625,-2.888198,-2.098746,3.757202,0.754639,1.883963,22.000000,26.230730,0,2.900000,0, 202
121, 101,47121,47120,1,1,-0.507834,9.260859,-0.431673,0.228036,-0.133846,-0.519954,-0.671822,9.693303,-5.653450,-7.938578,0.682296,-8.827273,3.173897,-17.769446,-3.763447,0.987484,0.027706,-0.153273,-0.024798,1299.700684,87205.859375,0.625269,-0.479803,3.757202,-0.452148,-0.474116,21.875000,26.285093,0,2.900000,0, 202
122, 101,49303,49289,1,1,-0.698329,9.659306,-0.516474,0.074558,-0.210013,-0.105283,-0.671822,9.693303,-6.133976,-0.300248,0.804048,-2.817413,4.308931,-18.140682,-3.598105,0.986610,0.032979,-0.156498,-0.031967,1300.435059,87194.335938,0.284899,0.364953,3.757202,0.282227,0.124156,22.000000,26.312275,0,2.900000,0, 202
123, 101,51407,51378,1,1,-0.656425,9.259712,-0.348921,-0.230266,-0.032139,-0.514405,-1.152348,9.693303,-5.653450,-0.712530,0.886964,3.720619,2.940116,-18.386915,-1.840834,0.986636,0.027887,-0.159288,-0.019950,1300.311401,87197.453125,-0.152157,-0.178786,3.757202,0.158569,0.177996,22.125000,26.348515,0,2.900000,0, 202
124, 101,53537,53493,1,1,-0.318200,9.895743,-0.454147,0.076177,-0.122789,0.109215,-1.632874,10.654355,-5.653450,2.940836,1.517349,2.070994,3.320219,-16.786303,-1.509381,0.988942,0.025570,-0.145501,-0.013022,1300.143433,87198.804688,-0.499466,-0.107172,3.757202,-0.009399,0.071015,22.125000,26.375696,0,2.900000,0, 202
125, 101,55681,55666,1,1,-1.586950,10.201629,-1.068074,0.253482,0.110013,0.574744,-1.632874,9.693303,-4.211873,-0.580835,-0.082136,2.137421,5.176535,-20.582775,-8.118682,0.980382,0.063546,-0.173870,-0.067686,1300.331055,87196.968750,-0.101437,0.173750,3.757202,0.178223,0.195965,22.125000,26.411938,0,2.900000,0, 202
126, 101,57796,57784,1,1,-1.072449,9.886066,-0.609526,-0.306670,-0.073372,0.156738,-1.632874,10.173829,-6.133976,-1.181415,0.932601,-2.543552,4.771320,-19.494548,-3.072040,0.983755,0.039950,-0.168720,-0.046514,1299.966064,87203.945312,0.038791,-0.330971,3.757202,-0.186768,-0.077552,22.125000,26.452707,0,2.900000,0, 202
127, 101,59918,59902,1,1,-1.306724,9.711861,-0.677435,0.315672,-0.161900,0.015355,-1.152348,6.329622,-5.653450,-2.642337,-0.974087,4.397407,4.477060,-20.729568,-8.137522,0.981315,0.046359,-0.176405,-0.061258,1300.349121,87196.476562,-0.612252,0.059727,3.757202,0.196289,0.217904,22.125000,26.475357,0,2.900000,0, 202
128, 101,62054,62006,1,1,-1.559504,10.031277,-0.545671,0.167268,-0.033139,0.451051,0.289230,9.693303,-7.095027,2.308492,-0.314539,-11.995673,5.348343,-22.219510,-8.805984,0.976608,0.060424,-0.188396,-0.084214,1300.947998,87192.554688,0.729656,0.067506,3.757202,0.795166,0.626253,22.125000,26.516127,0,2.900000,0, 202
129, 101,64188,64173,1,1,-0.779656,9.870327,-0.781053,-0.143678,0.148349,0.128683,-1.152348,10.173829,-5.653450,4.054921,0.045726,1.069375,4.200314,-18.962154,-2.083573,0.984943,0.044688,-0.164013,-0.031473,1299.755859,87205.578125,-0.340758,-0.412019,3.757202,-0.396973,-0.048360,22.250000,26.552366,0,2.900000,0, 202
130, 101,66401,66351,1,1,-1.273110,8.915279,-0.997366,-0.226252,0.150725,-0.686232,-2.593925,7.771200,-6.614501,-3.124338,0.916438,-6.830996,5.336472,-20.513293,-7.038326,0.980591,0.056640,-0.174717,-0.068609,1299.430176,87210.210938,-0.660673,-0.164604,3.757202,-0.722656,-0.502864,22.250000,26.565956,0,2.900000,0, 202
131, 101,68539,68523,1,1,-1.548382,9.979813,-0.779126,-0.316759,0.064938,0.323062,-1.632874,8.251725,-6.614501,-2.479568,-0.228083,4.114456,4.990710,-20.087284,-5.287053,0.981351,0.051269,-0.172615,-0.067274,1299.617310,87202.421875,-0.187180,0.163099,3.757202,-0.535522,-0.547289,22.250000,26.602196,0,2.900000,0, 202
132, 101,70683,70649,1,1,-0.152010,9.440357,-0.362536,0.113496,-0.260860,-0.356745,-0.671822,7.290674,-5.653450,4.330883,-6.243803,2.134571,3.693375,-10.070433,-1.231319,0.995928,0.021141,-0.087354,-0.007057,1299.255737,87211.484375,-0.537853,-0.060326,3.757202,-0.897095,-0.720804,22.250000,26.638433,0,2.900000,0, 202
133, 101,72848,72809,1,1,-1.144218,9.659472,-0.962537,-0.448922,0.286884,-0.041017,0.289230,7.290674,-6.133976,-1.678794,-0.618116,-0.186788,4.563884,-10.539949,-3.008240,0.994545,0.042044,-0.090704,-0.029773,1299.212524,87208.968750,-0.337232,-0.213309,3.757202,-0.940308,-0.786751,22.250000,26.661083,0,2.900000,0, 202
134, 101,75005,74988,1,1,-0.846120,9.495941,-0.807496,0.054634,-0.010134,-0.233462,-0.671822,9.212777,-5.653450,-1.273320,-0.893359,4.096854,4.938966,-11.849511,-4.409064,0.992957,0.046580,-0.101301,-0.040070,1299.405640,87207.445312,-0.109974,-0.096646,3.757202,-0.747192,-0.796002,22.250000,26.683733,0,2.900000,0, 202
135, 101,77164,77117,1,1,-0.599227,9.896093,-0.738187,0.116457,-0.137145,0.139034,-2.593925,7.290674,-5.653450,2.661448,-0.567046,0.917218,5.004139,-12.662705,-3.196446,0.992859,0.040857,-0.108873,-0.026598,1299.384277,87207.585938,-0.063095,0.105608,3.757202,-0.768555,-0.782797,22.375000,26.719971,0,2.900000,0, 202
136, 101,79387,79350,1,1,-0.610229,9.922434,-0.639396,-0.030723,-0.164817,0.159311,-1.632874,11.134881,-6.133976,0.239161,-0.363314,0.715549,4.748924,-12.049231,-2.551534,0.993539,0.035985,-0.104177,-0.027074,1299.259155,87210.125000,0.325173,0.014259,3.757202,-0.893677,-0.940091,22.375000,26.738089,0,2.900000,0, 202
137, 101,81620,81597,1,1,-0.644923,9.587568,-0.624395,-0.351901,-0.294525,-0.182441,-0.671822,10.654355,-6.614501,12.685226,-0.372046,2.382555,5.986060,-11.659579,-0.936337,0.993394,0.052772,-0.101007,-0.013421,1299.179443,87204.101562,-0.779979,-0.068302,3.757202,-0.973389,-1.020998,22.375000,26.783386,0,2.900000,0, 202
138, 101,83803,83793,1,1,-1.069776,9.692067,-1.534560,-0.229704,0.288513,0.063049,-1.152348,11.134881,-7.575553,-38.273194,48.351514,-10.626771,7.991975,-15.580717,-2.380028,0.986554,0.083423,-0.134095,-0.042073,1298.989990,87210.828125,0.145973,-0.081033,3.757202,-1.162842,-1.176100,22.375000,26.792446,0,2.900000,0, 202
139, 101,85889,85888,1,1,-0.847607,9.767174,-1.258951,-0.146827,0.199338,0.080285,-1.632874,9.693303,-6.133976,-0.143439,-0.903813,0.113943,6.648359,-14.921148,-2.109964,0.988781,0.067989,-0.128703,-0.033533,1299.311768,87208.203125,0.621947,0.137491,3.757202,-0.841064,-0.988912,22.500000,26.819624,0,2.900000,0, 202
140, 101,87990,87987,1,1,-0.890663,9.758543,-0.765225,-0.108663,0.088319,0.026940,-1.632874,8.732251,-6.614501,0.612090,1.015332,-0.105670,4.229223,-13.462566,-3.490284,0.991484,0.043627,-0.116021,-0.039949,1299.400146,87210.531250,-0.072539,0.157426,3.757202,-0.752686,-0.687676,22.500000,26.846802,0,2.900000,0, 202
141, 101,90094,90081,1,1,-0.878917,10.272121,-0.888990,-0.142390,-0.064183,0.545733,-1.152348,10.173829,-7.095027,-2.072202,-1.911202,1.039211,5.596679,-12.990873,-2.938226,0.991857,0.047927,-0.112110,-0.036794,1299.961426,87202.382812,-0.154160,0.253857,3.757202,-0.191406,-0.278967,22.500000,26.855860,0,2.900000,0, 202
142, 101,92209,92167,1,1,-0.530032,8.730474,-1.064734,0.542959,0.006888,-1.006631,-1.632874,8.251725,-5.653450,19.788974,1.769596,-22.911470,6.286658,-12.562869,-5.564356,0.991040,0.059743,-0.106473,-0.054168,1300.489990,87197.000000,0.241070,0.382980,3.757202,0.337158,0.270534,22.500000,26.873980,0,2.900000,0, 202
143, 101,94326,94275,1,1,0.034015,10.223155,-0.908835,0.038086,0.084515,0.040694,-0.191296,8.732251,-5.653450,-0.857629,-2.390007,7.159984,4.811002,-9.814083,0.949561,0.995277,0.045104,-0.085753,0.006060,1300.712524,87192.710938,0.115972,0.004814,3.757202,0.559692,0.414981,22.500000,26.887568,0,2.900000,0, 202
144, 101,96443,96432,1,1,0.021467,9.873969,-0.631344,-0.011650,-0.103404,0.092609,-0.191296,9.212777,-5.653450,0.168145,3.231015,-8.991244,4.324607,-9.908008,0.833124,0.995717,0.032233,-0.086565,0.003859,1300.756592,87194.585938,-0.044138,0.341924,3.757202,0.603760,0.655149,22.500000,26.892097,0,2.900000,0, 202
145, 101,98564,98545,1,1,-0.285708,9.289178,-0.787176,-0.123692,0.187551,-0.476858,-0.671822,9.693303,-6.133976,8.854499,-3.094740,2.835386,3.878476,-9.276614,-0.196146,0.995757,0.042398,-0.080918,-0.011117,1301.463623,87184.906250,0.559609,0.533046,3.757202,1.310791,1.161991,22.500000,26.923803,0,2.900000,0, 202
146, 101,100766,100714,1,1,-0.728273,9.918097,-0.864532,-0.416006,0.071790,0.172377,0.289230,11.134881,-7.095027,5.228000,-3.603496,12.222709,5.045361,-9.743056,-0.910711,0.995361,0.044529,-0.084488,-0.011649,1301.225586,87187.445312,-0.181459,0.110354,3.757202,1.072754,1.142941,22.500000,26.941923,0,2.900000,0, 202
147, 101,102888,102862,1,1,-0.234344,9.829483,-0.640049,-0.200680,0.105841,0.049474,0.289230,8.732251,-5.653450,-3.197009,1.723168,0.734512,3.395828,-10.672570,0.527526,0.995231,0.029073,-0.093095,0.001826,1301.335449,87185.250000,0.418373,-0.068596,3.757202,1.182617,1.035330,22.625000,26.950981,0,2.900000,0, 202
148, 101,105022,104969,1,1,-0.478592,10.223240,-0.910640,-0.192646,0.047427,0.471954,-0.191296,7.290674,-6.133976,4.456131,-3.476417,3.643096,5.146709,-11.543190,-0.537823,0.993895,0.045142,-0.100251,-0.009180,1301.230103,87184.710938,0.172706,-0.046804,3.757202,1.077271,0.948111,22.500000,26.973629,0,2.900000,0, 202
149, 101,107150,107136,1,1,-0.132999,9.388530,-2.676888,-0.022201,0.313129,-0.042447,-0.671822,10.654355,-7.095027,-6.371930,-0.156999,-1.290674,14.182031,-6.092734,1.068559,0.989094,0.137010,-0.054043,0.000888,1300.847534,87194.968750,-1.014784,-0.177167,3.757202,0.694702,0.987833,22.625000,27.000805,0,2.900000,0, 202
150, 101,109296,109257,1,1,-0.061956,9.876843,-2.926323,-0.199059,0.167751,0.497130,0.289230,8.732251,-8.056079,-4.198960,-0.553564,-0.323459,15.738699,-4.989960,2.282804,0.988626,0.142743,-0.047118,0.004812,1300.431763,87199.710938,0.123724,-0.399664,3.757202,0.278931,0.428709,22.625000,27.009865,0,2.900000,0, 202
151, 101,111445,111435,1,1,0.520208,9.518656,-2.934017,0.287725,-0.112272,0.168378,-0.191296,9.693303,-9.017131,0.893164,-1.210191,-1.504172,17.680175,-4.218298,2.694813,0.987761,0.148178,-0.037892,0.030584,1299.883301,87201.265625,-0.711925,-0.326612,3.757202,-0.269531,-0.092971,22.625000,27.027983,0,2.900000,0, 202
152, 101,113608,113593,1,1,1.644645,9.727167,-2.985752,-0.049155,-0.082424,0.505704,1.730806,8.251725,-8.536605,-0.870779,-0.819661,0.935975,17.395693,7.105156,7.722528,0.984440,0.151283,0.050889,0.073492,1299.398193,87206.546875,0.552480,-0.416294,3.757202,-0.754639,-0.763446,22.625000,27.014395,0,2.900000,0, 202
153, 101,115766,115718,1,1,1.368547,9.094645,-2.938404,-0.193071,0.078591,-0.148216,0.769756,8.251725,-9.017131,0.489886,0.088489,-0.805105,17.238759,6.613542,7.645959,0.984349,0.157110,0.045275,0.065747,1299.012329,87210.406250,-0.664737,-0.485646,3.757202,-1.140503,-1.107673,22.500000,27.018923,0,2.900000,0, 202
154, 101,118016,117963,1,1,1.525165,9.230740,-2.922998,0.074636,-0.028244,0.000542,0.769756,10.654355,-8.536605,-1.364124,-0.068598,-0.395414,17.706734,7.009264,6.719710,0.983991,0.156894,0.051294,0.067192,1298.449097,87217.671875,-0.196116,-0.190260,3.757202,-1.703735,-1.544357,22.500000,27.005335,0,2.900000,0, 202
155, 101,120220,120193,1,1,1.390344,9.265816,-2.848301,-0.033088,-0.059470,-0.008320,1.250281,9.693303,-6.614501,0.782469,-0.011861,-0.067733,17.359093,6.881679,6.634957,0.985104,0.151202,0.050461,0.064509,1298.055786,87219.546875,-0.201289,-0.369619,3.757202,-2.097046,-1.973401,22.500000,27.009865,0,2.900000,0, 202
156, 101,122451,122431,1,1,0.978393,9.048969,-3.013897,0.245337,0.164361,-0.217813,0.769756,8.732251,-9.017131,-3.247225,0.937450,-1.211052,17.536193,4.697544,3.060802,0.985311,0.160515,0.037932,0.044262,1297.454834,87230.242188,-0.160098,-0.301619,3.757202,-2.697998,-2.541030,22.500000,27.018923,0,2.900000,0, 202
157, 101,124538,124509,1,1,1.912848,9.468191,-0.827582,0.261430,-0.007199,-0.109657,1.250281,9.693303,-6.133976,11.890788,-10.779730,0.145874,5.102900,5.205040,9.416976,0.993369,0.047204,0.042166,0.095983,1297.456787,87226.710938,-0.512552,-0.103070,3.757202,-2.696045,-2.567655,22.500000,27.000805,0,2.900000,0, 202
158, 101,126633,126600,1,1,2.480540,9.612434,-1.098312,-0.207993,-0.004043,0.184739,2.691859,8.732251,-6.614501,-5.414162,-1.062242,1.094746,6.253515,5.314229,15.085798,0.989693,0.060272,0.038196,0.124162,1297.552734,87222.742188,-0.427091,-0.169430,3.757202,-2.600098,-2.602581,22.500000,27.000805,0,2.900000,0, 202
159, 101,128737,128690,1,1,1.816644,9.666792,-0.274475,-0.193504,-0.360854,0.030314,2.691859,9.693303,-7.095027,18.923053,-2.968066,0.258085,3.616540,4.527877,11.647396,0.994758,0.019289,0.037454,0.093171,1297.682373,87226.492188,0.086923,0.091891,3.757202,-2.470459,-2.522605,22.625000,27.009865,0,2.900000,0, 202
160, 101,0,2976,1,1,3.102194,-8.993369,-2.618819,-0.161861,0.095592,0.314203,4.133436,-8.566679,-6.133976,-1.970920,0.328391,-0.353142,47.546149,70.865439,115.307363,0.201514,0.623964,0.006375,0.754997,1298.808838,87212.156250,-0.823850,57.707455,0.000000,-0.398315,1.334253,20.125000,24.499836,0,2.910000,0, 202
161, 101,3182,4776,1,1,2.787710,-9.271989,-2.573867,0.039764,-0.013786,0.217190,3.172385,-10.008257,-8.056079,0.245222,0.576527,-1.162105,48.668253,69.663900,116.456037,0.193716,0.620533,-0.013520,0.759757,1298.620117,87214.242188,-0.191495,1.529627,0.000000,-0.587036,-0.542811,20.250000,24.540623,0,2.910000,0, 202
162, 101,6880,6875,1,1,2.052308,-9.411613,-2.088516,0.268968,0.226573,0.049312,3.172385,-11.449834,-7.095027,-0.876604,0.484447,-1.326119,44.899519,70.773614,122.749865,0.166861,0.618939,-0.016869,0.767325,1298.216309,87216.515625,-0.785249,-0.165721,0.000000,-0.990845,-0.876949,20.375000,24.572348,0,2.910000,0, 202
163, 101,8973,8944,1,1,1.300477,-9.864000,-1.290469,0.077077,-0.045695,0.231299,1.250281,-10.969309,-5.653450,0.106242,0.484355,-0.630602,32.040086,75.028583,141.490825,0.092757,0.624757,-0.013642,0.775171,1297.618286,87222.250000,-0.400994,-0.396834,0.000000,-1.588867,-1.565538,20.500000,24.626730,0,2.910000,0, 202
164, 101,11073,11044,1,1,2.877120,-9.057113,-1.991251,-0.279586,-0.369226,-0.102562,3.172385,-10.008257,-7.095027,0.749943,-2.021992,0.372932,42.763220,74.170540,123.239548,0.180276,0.629520,0.015788,0.755616,1297.285889,87227.789062,0.863244,-0.018157,0.000000,-1.921265,-2.032613,20.500000,24.690176,0,2.910000,0, 202
165, 101,13175,13151,1,1,4.000371,-9.116944,-0.381265,-0.095596,-0.080949,0.161496,2.691859,-10.008257,-6.133976,3.814367,-22.347732,4.742733,164.240737,84.099286,-7.602119,0.145558,0.727849,0.140381,0.655242,1297.278687,87227.492188,0.133425,-0.056813,0.000000,-1.928467,-1.920032,20.625000,24.749090,0,2.910000,0, 202
166, 101,0,4706,1,1,2.581549,-9.369549,-2.159229,0.040374,-0.100428,0.154069,2.691859,-9.047205,-6.614501,-0.036387,-0.024191,-0.302426,29.433570,62.813787,138.386545,0.170469,0.547432,-0.018929,0.819085,1297.244995,87234.906250,0.457742,0.954579,0.335327,0.018921,0.116043,20.625000,24.862383,0,2.910000,0, 202
167, 101,4863,6443,1,1,2.611708,-9.230254,-2.012892,0.056422,0.032974,0.000330,2.691859,-10.008257,-7.095027,-0.045929,0.389647,0.020011,26.551642,62.116889,140.048179,0.170532,0.539414,-0.013196,0.824486,1297.082397,87231.742188,-0.273165,-0.067719,0.335327,-0.143677,-0.075846,20.750000,24.916761,0,2.910000,0, 202
168, 101,8600,8562,1,1,2.377021,-9.365564,-1.550544,-0.002714,-0.002134,-0.014877,2.211333,-10.969309,-6.614501,-1.010596,-0.166278,-0.605138,20.308941,62.866946,147.547331,0.146409,0.534926,-0.000994,0.832117,1296.815186,87235.390625,-0.464193,-0.004982,0.335327,-0.410889,-0.286978,20.750000,24.930357,0,2.910000,0, 202
169, 101,10740,10720,1,1,2.740330,-9.451706,-0.643821,-0.048967,-0.173194,0.059338,4.133436,-10.488783,-5.172924,-2.845653,-21.677796,-0.522813,10.311760,67.958600,155.301317,0.127570,0.559690,0.046252,0.817517,1296.566284,87239.734375,-0.293763,0.051684,0.335327,-0.659790,-0.491811,20.750000,24.957546,0,2.910000,0, 202
170, 101,12889,12855,1,1,-3.951100,-4.399984,-7.969834,-0.261135,0.832997,0.084709,-1.632874,-23.943506,-12.380812,-6.169637,38.173190,21.689423,120.387220,12.532153,56.657515,0.363767,0.794818,-0.382576,0.299289,1296.345215,87244.078125,-0.594528,0.053221,0.335327,-0.880859,-0.713797,20.750000,25.030050,0,2.910000,0, 202
171, 101,15041,14988,1,1,0.081225,-1.600538,-9.786163,0.753347,-0.654555,0.065171,0.769756,-5.683524,-15.744493,36.547799,25.225120,36.274397,90.063988,4.163439,110.770417,0.380036,0.422763,-0.567300,0.595832,1296.174072,87243.742188,0.770428,0.092828,0.335327,-1.052002,-1.123355,22.125000,26.402876,0,2.910000,0, 202
172, 101,17190,17186,1,1,-0.424577,-0.741336,-10.332746,0.194002,-0.199463,0.563268,-0.671822,-3.280895,-15.263968,-14.098853,3.713294,22.059467,87.436100,1.911185,170.691099,0.041665,0.073465,-0.680889,0.727500,1295.909302,87245.515625,0.046893,-0.008696,0.335327,-1.316772,-1.308662,23.125000,27.621298,0,2.910000,0, 202
173, 101,19416,19377,1,1,-0.958856,0.867025,-9.454981,-0.099286,0.038033,-0.258647,-0.671822,-0.878266,-13.822390,-3.031645,1.730251,14.992106,90.788814,8.315345,-145.408908,-0.257506,-0.162498,-0.693113,0.653360,1296.322266,87240.109375,1.549920,0.496079,0.335327,-0.903809,-1.215410,24.250000,28.123968,0,2.910000,0, 202
174, 101,21619,21605,1,1,-2.172031,2.019218,-9.558743,-0.062699,0.223862,0.204523,-2.113400,0.082786,-14.302916,27.271120,11.421124,-20.517910,91.029708,17.444892,-144.910509,-0.311948,-0.111257,-0.704410,0.627787,1296.409058,87237.648438,0.416931,0.234711,0.335327,-0.817017,-0.945142,24.625000,28.540552,0,2.910000,0, 202
175, 101,23697,23648,1,1,-2.304795,0.341870,-9.427997,-0.021095,-0.056004,0.097688,-2.593925,-0.397740,-14.783442,4.622795,4.618158,-23.700628,94.601030,14.234265,171.793191,-0.042669,0.135990,-0.721376,0.677718,1296.188110,87241.695312,0.367296,-0.146523,0.335327,-1.037964,-1.046578,25.000000,28.929932,0,2.910000,0, 202
176, 101,25780,25754,1,1,-0.783327,-0.020319,-9.723346,0.023825,-0.024196,-0.046190,-1.152348,-0.878266,-14.783442,-0.624436,-4.057502,-3.717832,92.665832,3.715948,145.273165,0.183564,0.237127,-0.683357,0.665656,1296.084106,87244.039062,-0.206305,-0.182723,0.335327,-1.141968,-1.059758,25.125000,29.341913,0,2.910000,0, 202
177, 101,27875,27860,1,1,-0.520276,0.685932,-9.797092,0.141596,-0.018948,0.032809,-1.632874,-0.397740,-15.263968,3.177322,0.335462,-1.651324,95.131039,-0.690720,144.383560,0.206625,0.226216,-0.701909,0.643005,1296.045898,87244.320312,-0.209561,0.040582,0.335327,-1.180176,-1.044746,25.375000,29.713116,0,2.910000,0, 202
178, 101,29969,29912,1,1,-0.819473,0.040904,-9.748162,0.041766,-0.056895,-0.018623,-1.152348,-2.319843,-14.783442,10.021310,1.970449,-0.335252,93.326393,3.523553,144.353644,0.188038,0.243426,-0.683442,0.662037,1297.878906,87221.695312,0.464328,1.263119,0.760376,0.652832,0.234002,25.500000,30.002813,0,2.910000,0, 202
179, 101,32084,32056,1,1,-0.665680,-0.124456,-9.799082,0.024814,0.017014,0.021409,0.289230,-2.800369,-13.822390,-0.965164,0.806363,-0.469224,91.580741,3.434431,144.245672,0.193512,0.239827,-0.675464,0.669914,1298.617676,87212.367188,0.453248,0.359720,1.391602,1.391602,1.078129,25.500000,30.351330,0,2.910000,0, 202
180, 101,34199,34179,1,1,-0.642557,-0.429524,-9.799326,-0.030158,-0.116549,0.028022,-1.152348,-1.358791,-15.263968,3.260814,-0.661743,0.014732,91.073066,4.668330,141.225390,0.207234,0.261614,-0.659979,0.673082,1298.305786,87218.492188,0.238007,-0.045934,1.391602,1.079712,1.015950,25.500000,30.604780,0,2.910000,0, 202
181, 101,36399,36357,1,1,-0.388938,-0.321219,-9.750217,-0.029878,-0.011696,-0.037795,-0.191296,-0.397740,-15.263968,-1.700211,5.407858,-1.401018,90.063872,3.136938,140.539489,0.220263,0.256966,-0.659185,0.671512,1298.824219,87211.570312,0.717647,0.236118,1.598145,1.598145,1.331260,25.625000,30.822010,0,2.910000,0, 202
182, 101,38509,38477,1,1,-0.131126,-0.453685,-9.807991,-0.010887,-0.024480,0.018317,-0.191296,-1.839317,-14.783442,0.824035,1.323316,-2.789966,88.616814,2.359559,139.743635,0.233317,0.253573,-0.650016,0.677306,1298.665771,87216.476562,0.789923,0.082638,1.598145,1.439697,1.362682,25.750000,31.007553,0,2.910000,0, 202
183, 101,40826,40797,1,1,-0.647988,1.866338,-9.511868,-0.140296,0.117534,-0.087852,-0.671822,1.524364,-14.302916,-19.730127,-11.235941,7.699228,100.651478,-2.176015,146.138509,0.199866,0.212507,-0.739724,0.606385,1298.413452,87216.351562,-1.146265,-0.214537,2.319702,1.187378,1.394062,26.125000,31.084482,0,2.910000,0, 202
184, 101,0,3585,1,1,-1.635482,-2.396160,9.557552,-0.044670,0.002840,0.187052,-1.632874,-3.280895,3.476542,-0.817526,0.243107,-1.486179,88.752298,163.414817,128.558340,0.578745,-0.680987,-0.216080,-0.393217,1299.562134,87204.789062,0.595939,8.678896,0.855713,0.583740,0.930317,24.000000,28.893713,0,2.910000,0, 202
185, 101,3766,5342,1,1,-1.614280,-1.832563,9.714358,0.003781,-0.003037,0.215632,-1.632874,-1.358791,4.437593,0.346214,0.478718,-0.168749,91.083667,165.906306,126.998939,0.595579,-0.661178,-0.231958,-0.392843,1299.582886,87202.382812,0.138385,0.298404,0.855713,0.604492,0.581631,24.125000,28.871075,0,2.910000,0, 202
186, 101,7503,7454,1,1,-0.554532,0.625026,10.007576,-0.050793,-0.035543,0.294458,-1.152348,0.082786,3.476542,-1.621170,-0.337679,-1.258815,95.108540,-178.827412,129.774004,0.671059,-0.607859,-0.293249,-0.306906,1299.281494,87208.445312,0.251940,-0.015038,0.855713,0.303101,0.230034,24.250000,28.789579,0,2.910000,0, 202
187, 101,9717,9699,1,1,-2.065650,1.646208,8.962775,0.315806,0.568854,-0.479792,-2.113400,0.563312,2.515490,-4.431165,11.386740,-9.506052,102.889594,179.257181,124.218547,0.709715,-0.529694,-0.285223,-0.366574,1299.700684,87200.218750,0.554646,0.212691,0.855713,0.722290,0.480834,24.250000,28.721664,0,2.910000,0, 202
188, 101,0,4586,1,1,-3.350673,4.679277,7.536353,-0.071963,0.177926,-0.320366,-2.593925,4.407518,2.034964,4.304834,-0.621159,0.982045,120.095927,-157.748369,112.911155,0.761809,-0.315916,-0.410054,-0.389487,1287.024170,87338.390625,0.612104,1.187022,1.252319,1.252319,1.107523,18.000000,22.006516,0,2.910000,0, 202
189, 101,0,4786,1,1,-2.395331,8.872298,-3.054502,0.005879,-0.229469,-0.119441,-1.152348,8.251725,-8.056079,1.084839,0.101896,-0.916397,23.182512,31.868672,-27.077628,0.928704,0.124880,0.306694,-0.166889,1295.894165,87242.875000,-0.596920,1.220376,0.320068,0.161133,0.120615,21.250000,25.397085,0,2.900000,8, 202
190, 101,5005,6605,1,1,-7.652870,0.600059,-8.767230,-0.513190,-0.876794,1.807560,-6.438133,1.524364,-12.861338,28.575503,-24.632620,6.847023,68.696362,-30.664845,-36.499291,0.720996,0.559905,-0.061761,-0.403556,1296.227783,87246.554688,0.157974,0.377604,0.718872,0.494751,0.464595,21.375000,25.542078,0,2.900000,0, 202
191, 101,8727,8727,1,1,-2.122369,-0.912454,-9.868707,-0.238898,0.129879,0.330853,-2.113400,-2.319843,-16.225018,-6.697530,-1.026447,-1.536166,89.876492,-11.810716,-20.583506,0.679800,0.704303,0.053869,-0.197300,1297.044434,87232.921875,2.210882,0.454717,1.337036,1.311401,0.886345,21.625000,25.664413,0,2.900000,0, 202
192, 101,10848,10848,1,1,-3.068844,-2.566592,-9.887841,0.105714,0.617089,0.847128,-3.074451,-3.761421,-15.744493,-13.095442,7.057080,-2.019419,93.150762,-21.674482,-22.431123,0.617769,0.741092,0.022105,-0.262022,1297.274170,87229.953125,0.102035,0.402916,1.792114,1.541138,1.476205,21.625000,25.795805,0,2.900000,0, 202
193, 101,13021,12991,1,1,-2.741161,-4.456180,-8.933662,-0.382471,0.649524,0.524389,-2.113400,-4.722473,-13.822390,3.321611,2.963586,-2.853317,105.930217,-21.474902,-17.021552,0.536639,0.807834,-0.001460,-0.243764,1298.144653,87216.804688,0.634204,0.512342,2.411621,2.411621,2.149529,21.875000,25.895479,0,2.900000,0, 202
194, 101,15097,15074,1,1,-0.245794,-3.535147,-9.051384,-0.192984,-0.226671,-0.085208,-0.191296,-5.202998,-13.341864,0.238100,2.314434,0.949751,111.472273,-6.143490,-15.273444,0.558839,0.816804,0.071172,-0.124357,1298.171631,87217.804688,0.081942,0.080587,2.656128,2.438599,2.427804,22.000000,25.981560,0,2.900000,0, 202
195, 101,17171,17130,1,1,-0.505700,-3.612333,-9.370958,0.078046,0.259533,0.251169,0.289230,-4.722473,-14.302916,0.819422,-0.233873,3.599612,108.150370,-8.826641,-14.196616,0.563855,0.813179,0.059340,-0.131475,1298.438965,87216.250000,-0.448516,0.083269,2.921387,2.705933,2.738277,22.000000,26.049517,0,2.900000,0, 202
196, 101,19256,19249,1,1,-0.695605,-1.601011,-8.996195,0.031201,-0.143892,-0.638198,-1.152348,-4.241947,-14.783442,4.309058,7.783432,1.162054,99.547500,-6.990773,-14.390925,0.633699,0.761010,0.056390,-0.126923,1298.365601,87215.625000,-0.423549,-0.021213,2.921387,2.632568,2.660825,22.125000,26.162777,0,2.900000,0, 202
197, 101,21343,21298,1,1,-5.848088,5.920702,-4.855493,0.082080,-0.245308,-0.169344,-4.516029,6.810148,-8.536605,-53.231551,-20.864679,27.421715,30.897887,7.242083,-47.388327,0.891483,0.208165,0.159151,-0.369589,1298.146606,87224.468750,-0.003170,0.116083,2.921387,2.413574,2.522064,22.250000,26.294153,0,2.900000,0, 202
198, 101,23497,23462,1,1,-1.318191,-1.331794,8.697716,0.124688,1.576559,-1.045403,-1.632874,-0.878266,2.515490,-28.401740,1.535974,-6.285973,67.674634,178.169200,-139.985656,0.527705,-0.777350,0.292510,0.178021,1298.270874,87217.171875,0.745714,-0.196491,2.921387,2.537842,2.403371,22.250000,26.733559,0,2.900000,0, 202
199, 101,25594,25581,1,1,-3.170516,2.651573,-9.070210,0.703188,1.309990,0.055023,-3.074451,1.043838,-11.419760,220.429766,-41.181891,-42.531916,60.536773,7.032097,-76.332808,0.689946,0.392106,0.393445,-0.464142,1298.574829,87213.328125,0.307832,0.203004,2.921387,2.841797,2.696445,22.500000,26.602196,0,2.900000,0, 202
200, 101,27684,27651,1,1,-0.609341,-0.641116,-9.379207,-0.016898,-0.308741,-0.385256,-0.671822,-2.319843,-15.744493,14.876987,20.782959,3.534811,89.377342,-4.670340,-74.148049,0.557585,0.570249,0.393327,-0.457394,1298.663574,87216.289062,0.110225,0.049325,3.152832,2.930542,2.905862,22.500000,26.729031,0,2.900000,0, 202
201, 101,29786,29738,1,1,-0.328912,5.785604,-7.020981,-1.179699,-1.170572,2.398677,-0.191296,6.329622,-9.978183,-225.335905,-11.920832,50.089445,82.804173,34.257179,-78.719911,0.677752,0.348551,0.571617,-0.304003,1298.633911,87217.609375,-0.398680,0.137100,3.192261,2.900879,3.043500,22.625000,26.883038,0,2.900000,0, 202
202, 101,31885,31845,1,1,-2.374588,-0.311937,10.019994,-0.058161,-0.113041,0.500461,-2.593925,1.043838,4.918118,0.966969,-1.392799,-4.443491,77.806790,-175.595448,-80.152359,0.379834,-0.519511,0.583274,0.495606,1298.106079,87224.203125,-0.166498,-0.224300,3.192261,2.373047,2.614617,22.625000,27.064219,0,2.900000,0, 202
203, 101,33993,33976,1,1,-0.031064,-0.271727,10.088500,-0.310337,0.190211,0.284640,-0.671822,-0.397740,4.437593,3.039584,0.910878,-0.527160,89.026557,-176.688661,-79.528291,0.432403,-0.471492,0.534954,0.551858,1298.359741,87218.093750,-0.602796,0.145692,3.192261,2.626709,2.614454,22.875000,27.236332,0,2.900000,0, 202
204, 101,36100,36056,1,1,-0.744639,-2.253456,10.327477,0.542594,1.014307,0.733046,-1.632874,-0.878266,3.476542,25.865880,6.349209,11.278334,84.329040,-169.994065,-72.476722,0.350294,-0.481277,0.524207,0.608993,1298.726929,87218.898438,0.235763,0.016200,3.247925,2.993896,2.938615,23.000000,27.367676,0,2.900000,0, 202
205, 101,38217,38192,1,1,-0.573648,-0.092638,10.031260,0.130100,-0.325605,0.240957,-0.191296,-2.319843,5.879170,-3.420194,-5.020058,4.167191,88.776299,-179.517179,-77.496262,0.435473,-0.449572,0.555484,0.547435,1298.253662,87217.265625,0.543619,-0.404939,3.247925,2.520630,2.417539,23.375000,27.639414,0,2.900000,0, 202
206, 101,40398,40385,1,1,-0.538929,-0.178911,10.015604,0.002094,-0.301241,0.226164,-0.191296,-0.397740,2.996016,0.145381,-0.064125,-1.139688,88.921509,-178.369967,-77.993165,0.426557,-0.462689,0.555723,0.543268,1297.734253,87227.718750,0.121624,-0.032677,3.247925,2.001221,2.082452,23.875000,27.861319,0,2.900000,0, 202
207, 101,42518,42504,1,1,-0.542561,-0.152017,9.762414,0.044911,0.122910,-0.023215,0.289230,-1.358791,4.437593,-1.936567,-2.486480,0.288496,86.351254,-178.734658,-78.108431,0.424828,-0.465313,0.561512,0.536385,1297.569214,87228.875000,0.580531,0.043466,3.247925,1.836182,1.786487,24.125000,28.056044,0,2.900000,0, 202
208, 101,44646,44605,1,1,-0.420813,-0.088959,9.977300,0.004096,-0.266072,0.182020,-1.152348,-1.358791,4.918118,-2.670408,-1.464870,-0.223941,89.246742,-179.077246,-79.407793,0.444311,-0.459011,0.543950,0.544073,1297.565308,87224.914062,-0.720997,0.144664,3.247925,1.832275,1.900491,24.375000,28.255287,0,2.900000,0, 202
209, 101,46779,46753,1,1,1.031444,0.823833,9.761045,0.077369,0.076965,0.048297,1.730806,0.563312,2.996016,1.984423,-0.927815,-0.635542,94.717669,173.827290,-80.818036,0.503932,-0.408326,0.540727,0.535665,1297.058350,87234.921875,0.180020,-0.227303,3.247925,1.325317,1.440390,24.750000,28.490746,0,2.900000,0, 202
210, 101,48918,48906,1,1,-1.660347,4.040820,8.274790,-0.333540,-0.767210,-0.481276,-2.113400,2.965941,2.515490,31.739701,2.317671,-16.386175,81.003885,157.634742,-81.870575,0.520074,-0.402436,0.666059,0.352042,1296.672974,87235.398438,-1.055353,-0.311684,3.247925,0.939941,1.070638,24.750000,28.708080,0,2.900000,0, 202
211, 101,51049,51036,1,1,-0.134119,1.297783,9.878140,-0.432123,-0.364048,0.146895,0.289230,1.043838,4.918118,-0.682747,-3.526077,-3.540472,90.833907,175.067994,-86.226931,0.510427,-0.454733,0.549841,0.479955,1296.205688,87242.937500,-0.202234,-0.250658,3.247925,0.472656,0.628448,25.250000,28.803162,0,2.900000,0, 202
212, 101,53187,53187,1,1,0.262848,1.476274,10.316802,-0.031522,-0.024301,0.624128,0.769756,1.524364,3.476542,1.186789,-0.697747,0.583870,91.003972,171.949152,-85.966988,0.521296,-0.439849,0.546714,0.485682,1294.941772,87254.617188,-0.618879,-0.607538,3.247925,-0.791260,-0.510087,25.250000,28.852964,0,2.900000,0, 202
213, 101,55369,55333,1,1,0.005758,0.965273,10.151308,-0.234293,-0.082793,0.393071,1.730806,0.563312,4.437593,-0.947517,0.587239,-1.713629,89.921503,175.911891,-83.905268,0.490857,-0.453991,0.542748,0.508307,1294.414185,87262.726562,-0.350348,-0.116923,3.247925,-1.318848,-1.207663,25.250000,28.925406,0,2.900000,0, 202
214, 101,57516,57498,1,1,-0.549662,1.363574,9.936467,0.056128,-0.073182,0.243219,-1.152348,1.524364,3.476542,0.818872,1.503663,0.602974,86.488650,172.230091,-84.042671,0.494229,-0.452018,0.570983,0.474758,1293.794434,87268.562500,0.165752,-0.285179,3.247925,-1.938599,-1.817888,25.375000,29.047646,0,2.900000,0, 202
215, 101,59602,59574,1,1,-0.086780,1.883865,10.284657,0.235769,-0.038221,0.652401,-0.191296,1.524364,3.957067,-2.265666,1.948856,0.276172,89.556751,168.337457,-89.016920,0.542647,-0.443996,0.553765,0.449161,1293.300293,87273.343750,-0.475672,-0.139072,3.247925,-2.432739,-2.220948,25.625000,29.210627,0,2.900000,0, 202
216, 101,61681,61674,1,1,-0.472340,1.668893,11.214723,-0.009830,-0.519107,1.535170,-0.191296,0.563312,5.398644,-0.282973,-2.834501,-1.783211,89.835648,171.707964,-87.258542,0.522978,-0.450366,0.546433,0.474421,1293.220337,87270.531250,-0.276134,-0.476050,3.247925,-2.512695,-2.458764,25.875000,29.242317,0,2.900000,0, 202
217, 101,63760,63733,1,1,1.217119,-4.571260,8.632267,0.477903,-0.756883,0.001682,-0.671822,-8.086153,0.112860,-15.096212,10.928552,-8.600779,89.577822,-154.444921,-115.003419,0.460626,-0.689312,0.243025,0.503598,1292.479736,87276.453125,-0.188472,-0.406672,3.247925,-3.253296,-3.280914,25.875000,29.283062,0,2.900000,0, 202
218, 101,65848,65843,1,1,1.871700,-5.821572,7.070212,-0.063727,0.076782,-0.453706,1.730806,-6.164050,0.112860,-0.404366,-7.039348,-3.941615,86.258131,-138.860300,-112.827294,0.391353,-0.702089,0.177892,0.567687,1290.849243,87301.367188,-1.063153,-0.589724,3.247925,-4.883789,-4.422980,25.375000,29.283062,0,2.900000,0, 202
219, 101,67936,67906,1,1,1.967421,-6.873480,6.805712,0.178529,0.051566,0.068076,2.691859,-6.644576,-0.367666,4.594255,-2.963426,2.145178,84.721721,-134.835898,-112.853699,0.358375,-0.711975,0.154552,0.583758,1290.466919,87303.242188,-0.298903,-0.151937,3.247925,-5.266113,-5.099991,25.375000,29.287588,0,2.900000,0, 202
220, 101,70043,70020,1,1,1.972347,-6.343354,5.867925,-0.164513,-0.483726,-0.952284,3.652910,-7.605628,2.034964,3.613696,-3.699700,3.326991,90.889361,-130.429675,-110.260502,0.362628,-0.693389,0.119076,0.611174,1289.451782,87313.093750,0.034848,-0.463130,3.247925,-6.281250,-6.196262,25.250000,29.292116,0,2.900000,0, 202
221, 101,72150,72120,1,1,2.444315,-7.056220,6.084300,0.110452,-0.086500,-0.169597,3.172385,-7.605628,0.112860,0.132645,0.370199,-1.217267,89.119919,-129.842825,-110.905326,0.352177,-0.700198,0.121008,0.609140,1288.489990,87326.812500,-0.831743,-0.395408,3.247925,-7.243042,-6.883077,25.250000,29.301170,0,2.900000,0, 202
222, 101,74332,74289,1,1,2.359274,-6.869540,6.132524,-0.145793,0.150350,-0.212172,1.730806,-7.125102,0.593386,-2.020443,3.615341,-0.429288,87.306128,-128.472662,-112.742579,0.343463,-0.708724,0.111040,0.606146,1287.718872,87334.718750,0.206513,-0.391103,3.247925,-8.014160,-7.874089,25.125000,29.264954,0,2.900000,0, 202
223, 101,76434,76421,1,1,2.681300,-7.229271,6.084201,0.014211,-0.054160,0.020716,2.211333,-7.125102,-0.367666,2.818254,1.756090,-0.938757,87.267305,-128.423402,-114.234156,0.348667,-0.711195,0.102742,0.601729,1286.784058,87339.632812,-0.484015,-0.851212,3.247925,-8.948975,-8.864874,25.000000,29.228735,0,2.900000,0, 202
224, 101,78537,78491,1,1,2.991478,-7.087614,6.082980,0.005306,0.133185,0.005533,2.691859,-8.566679,0.112860,0.291890,-0.343289,1.456652,88.192605,-128.372080,-114.195442,0.356071,-0.707406,0.096776,0.602846,1286.042114,87348.484375,-0.538082,-0.397285,3.247925,-9.690918,-9.551296,25.000000,29.233263,0,2.900000,0, 202
225, 101,80650,80622,1,1,3.164730,-7.159019,6.001769,-0.103092,0.106987,0.061364,3.652910,-7.125102,0.593386,0.425565,2.108351,-1.864316,88.097050,-126.891924,-115.463159,0.360624,-0.707450,0.080831,0.602437,1285.229004,87360.140625,-0.467034,-0.526708,3.247925,-10.504028,-10.382495,25.000000,29.206100,0,2.900000,0, 202
226, 101,82773,82732,1,1,3.049409,-7.208779,6.136021,-0.031058,-0.007002,0.144609,2.691859,-8.086153,1.073912,0.826760,-0.345668,-0.504742,87.713392,-127.952092,-115.886221,0.360373,-0.710502,0.087466,0.598053,1284.897949,87364.820312,0.063127,-0.106609,3.247925,-10.835083,-10.735600,25.000000,29.178936,0,2.900000,0, 202
227, 101,84899,84868,1,1,2.954908,-6.978636,5.810149,0.129067,-0.380787,-0.260087,3.652910,-7.605628,0.593386,-1.165554,-0.524070,-0.776094,88.783723,-128.334282,-117.362594,0.359673,-0.714971,0.080229,0.594150,1284.170166,87368.617188,-0.568130,-0.500946,3.247925,-11.562866,-11.425962,24.875000,29.147245,0,2.900000,0, 202
228, 101,87026,86994,1,1,2.990740,-7.459688,6.162961,-0.024015,-0.061721,0.326643,3.172385,-8.086153,0.112860,-2.697495,-1.220811,0.581969,86.086168,-127.468009,-117.221879,0.352710,-0.717669,0.085900,0.594280,1283.094727,87384.023438,-0.971907,-0.619145,3.247925,-12.638306,-12.301744,24.750000,29.129137,0,2.900000,0, 202
229, 101,89162,89133,1,1,3.052375,-7.547067,6.216208,-0.044238,-0.039493,0.441702,1.730806,-7.605628,1.073912,1.362485,0.128182,-3.371671,85.555195,-127.261656,-117.894734,0.353031,-0.719433,0.083225,0.592333,1282.880981,87383.140625,0.419802,-0.030024,3.247925,-12.852051,-12.853391,24.875000,29.124609,0,2.900000,0, 202
230, 101,91356,91318,1,1,2.340070,-7.299733,5.924325,0.269233,-0.325291,-0.122087,3.172385,-6.644576,0.112860,-0.017808,-1.583816,1.169051,82.467267,-129.924965,-119.755455,0.356825,-0.729338,0.100658,0.574987,1282.249756,87391.382812,0.058670,-0.307561,3.247925,-13.483276,-13.392290,24.750000,29.074810,0,2.900000,0, 202
231, 101,93492,93488,1,1,2.530959,-7.173740,6.441168,-0.364032,-0.061112,0.159958,2.691859,-6.644576,1.073912,-6.300820,-1.251287,1.743458,81.626696,-128.707716,-120.890100,0.350965,-0.733041,0.090465,0.575579,1281.403809,87394.828125,-0.590458,-0.544921,3.247925,-14.329224,-14.146967,24.625000,29.056700,0,2.900000,0, 202
232, 101,95668,95626,1,1,3.159352,-6.845542,5.827413,0.015767,0.279695,-0.276126,3.172385,-7.125102,-0.367666,4.130341,0.379774,0.470469,82.622176,-128.016665,-121.980266,0.359292,-0.730757,0.074422,0.575643,1280.620117,87403.789062,-0.581212,-0.336699,3.247925,-15.112915,-15.076253,24.750000,29.056700,0,2.900000,0, 202
233, 101,97748,97722,1,1,2.874308,-7.174778,5.991195,-0.075436,0.049905,-0.022179,3.652910,-8.566679,-0.367666,-1.269639,0.030133,-0.714191,81.551823,-127.789616,-122.171676,0.355942,-0.733115,0.078460,0.574188,1279.861328,87414.867188,0.726672,-0.216081,3.247925,-15.871704,-15.894350,24.750000,29.052172,0,2.900000,0, 202
234, 101,0,4785,1,1,-1.392519,1.552417,10.581013,0.707285,0.885168,0.923885,-2.113400,0.563312,4.918118,-4.840168,2.463576,-1.788102,94.246550,169.510282,174.585004,0.725998,-0.679982,0.034907,-0.096601,1268.431885,87537.578125,-1.271237,-0.087721,0.000000,-2.611694,-2.274449,24.625000,29.083864,0,2.890000,8, 202
235, 101,4964,6541,1,1,-2.365228,-2.488961,9.879554,0.026675,1.060199,0.604291,-1.632874,-4.722473,3.957067,-18.541201,13.705353,-10.410402,69.765758,167.085661,-177.136967,0.570400,-0.813258,0.084659,-0.078028,1267.141968,87552.492188,-2.075554,-0.695885,0.000000,-3.901611,-3.367335,24.625000,29.124609,0,2.890000,0, 202
236, 101,8655,8640,1,1,-1.102278,-0.440452,9.131360,-0.131839,-0.391165,-0.602067,-0.671822,-1.839317,3.957067,0.362427,0.001329,-2.380591,89.632081,173.962746,-179.490992,0.690108,-0.721275,0.044165,-0.039529,1266.351318,87561.601562,-1.194267,-0.625848,0.000000,-4.692261,-4.389375,24.750000,29.079336,0,2.890000,0, 202
237, 101,10735,10694,1,1,-2.111020,-0.817383,10.686029,-0.736582,-0.435784,0.520019,-3.074451,-0.878266,3.476542,29.844320,-13.385563,-26.823541,88.430767,169.425096,176.273181,0.691875,-0.715386,0.041023,-0.088592,1265.870605,87571.625000,0.068359,-0.316180,0.000000,-5.172974,-5.021858,24.750000,29.156300,0,2.890000,0, 202
238, 101,12823,12799,1,1,-1.659159,0.209142,8.989762,-0.167675,-0.058063,-0.658742,-1.632874,-0.397740,2.515490,5.010329,7.815212,1.027409,92.806985,170.797773,173.708076,0.717756,-0.689506,0.020286,-0.094850,1265.186768,87575.500000,-0.265276,-0.301166,0.000000,-5.856812,-5.632592,24.750000,29.160828,0,2.890000,0, 202
239, 101,0,4656,1,1,-1.724945,-1.578660,9.132681,-0.695253,0.316106,-0.404715,-1.152348,-2.800369,4.437593,-0.478408,0.384505,-0.705709,90.718135,170.111899,126.842746,0.604000,-0.652486,-0.230891,-0.395140,1263.497925,87588.304688,0.115297,0.827212,0.000000,-0.509155,-0.511271,25.000000,29.364548,0,2.900000,8, 202
240, 101,4788,6380,1,1,-1.382242,-1.302908,10.018474,-0.127460,0.122316,0.394429,-1.152348,-1.839317,3.957067,1.223041,-0.144510,-1.678371,91.334307,170.170570,125.776895,0.608422,-0.645861,-0.257061,-0.382891,1263.435669,87592.679688,1.207105,0.287419,0.000000,-0.571411,-0.723518,25.125000,29.427927,0,2.900000,0, 202
241, 101,8584,8584,1,1,-2.167223,-0.460066,9.965789,-0.161663,-0.288570,0.402728,-2.593925,0.082786,2.515490,31.250735,44.150876,-10.775804,101.004004,172.572133,119.316547,0.643742,-0.573027,-0.277493,-0.424541,1263.209473,87592.070312,-0.215750,-0.248651,0.000000,-0.797607,-0.714512,25.125000,29.491304,0,2.900000,0, 202
242, 101,10693,10669,1,1,-2.648088,0.908714,9.279133,0.176525,-0.067667,-0.110556,-3.074451,-0.878266,2.034964,-24.656076,9.125046,12.426867,106.235342,173.255343,128.116440,0.703923,-0.559733,-0.225558,-0.374587,1262.781128,87597.710938,-0.933898,-0.379148,0.000000,-1.225952,-1.065231,25.250000,29.504885,0,2.900000,0, 202
243, 101,12823,12815,1,1,-1.481082,-0.432971,9.615975,-0.246242,-0.004664,-0.065118,-1.152348,-1.839317,5.398644,-2.778517,-3.789146,-0.773142,94.260873,173.370760,135.945025,0.659796,-0.648061,-0.208158,-0.318365,1262.422119,87607.187500,-0.471216,-0.492064,0.000000,-1.584961,-1.395859,25.375000,29.563734,0,2.900000,0, 202
244, 101,14949,14902,1,1,-1.210983,-0.325198,9.559909,0.646395,0.062918,0.651166,-1.632874,-1.358791,6.840222,-3.078413,-4.970534,2.462533,93.500071,174.658729,133.410656,0.655645,-0.642066,-0.239496,-0.317052,1262.378662,87598.554688,-0.702569,0.058176,0.000000,-1.628418,-1.569630,25.250000,29.550154,0,2.900000,0, 202
245, 101,17084,17051,1,1,-1.094102,-0.439812,10.200372,0.054243,-0.031867,0.467112,-1.632874,-0.878266,4.918118,-3.402182,3.013905,0.589541,92.879774,173.679430,133.865000,0.650812,-0.648705,-0.232840,-0.318451,1262.159058,87610.140625,-0.337950,0.123817,0.000000,-1.848022,-1.594366,25.375000,29.604475,0,2.900000,0, 202
246, 101,19230,19203,1,1,-1.587604,-0.517318,9.727504,0.144034,-0.019875,0.067703,-2.113400,-1.358791,4.437593,2.026363,2.141827,-0.992710,94.915840,170.675663,132.308223,0.649439,-0.640579,-0.217667,-0.347144,1262.348511,87605.070312,0.228721,-0.109891,0.000000,-1.658569,-1.695107,25.375000,29.685955,0,2.900000,0, 202
247, 101,21379,21330,1,1,-1.796696,-0.327144,9.995079,-0.018469,0.333371,0.354061,-1.632874,0.563312,3.957067,1.621448,-1.067050,-3.821173,94.576106,171.992441,130.953578,0.656253,-0.627477,-0.228504,-0.351271,1261.885010,87604.070312,-0.519308,-0.138031,0.000000,-2.122070,-2.022536,25.500000,29.685955,0,2.900000,0, 202
248, 101,23532,23494,1,1,-1.372510,0.023371,10.280039,0.688254,0.253321,0.544321,-2.113400,0.082786,4.437593,-2.173576,-1.948795,-2.621004,94.484227,171.334640,130.332536,0.642890,-0.637660,-0.233975,-0.354032,1261.686768,87607.328125,0.273229,-0.089420,0.000000,-2.320312,-2.366538,25.500000,29.753857,0,2.900000,0, 202
249, 101,25782,25768,1,1,-1.504447,-0.413351,9.452163,0.352814,0.223070,-0.230035,-2.113400,-1.839317,4.918118,1.746118,1.851771,3.383889,93.880520,170.079852,130.732922,0.649608,-0.634082,-0.232995,-0.348801,1261.400269,87614.492188,0.608728,-0.154746,0.000000,-2.606812,-2.653408,25.500000,29.785542,0,2.900000,0, 202
250, 101,27939,27931,1,1,-1.816784,-0.302660,10.677350,0.165538,0.146230,1.031789,-1.632874,-1.839317,4.918118,-11.448011,19.718295,8.295935,95.419184,171.525175,131.158702,0.657395,-0.628065,-0.229884,-0.347160,1261.067139,87615.562500,-0.215571,-0.361203,0.000000,-2.939941,-2.819556,25.625000,29.821754,0,2.900000,0, 202
251, 101,30149,30143,1,1,-0.597672,0.403290,10.382369,-0.229492,0.113921,0.603220,-0.191296,0.082786,3.957067,4.307921,-1.470310,-4.749232,93.192009,-179.830343,140.011337,0.683765,-0.644290,-0.228324,-0.255389,1261.276978,87611.359375,1.128396,-0.006264,0.000000,-2.730103,-3.038676,25.625000,29.907759,0,2.900000,0, 202
252, 101,32230,32187,1,1,-1.750950,-0.867636,9.586063,-0.349270,-0.266270,-0.027652,-1.632874,-0.878266,4.437593,-0.256291,2.771384,-0.816809,95.278584,171.136195,134.709048,0.646534,-0.653237,-0.199663,-0.339719,1261.307129,87613.820312,-1.282460,0.067438,0.000000,-2.699951,-2.502599,25.625000,29.889652,0,2.900000,0, 202
253, 101,34324,34310,1,1,-3.042919,-1.397785,9.761709,-0.285726,0.366660,0.508609,-3.074451,-0.878266,3.957067,-7.052838,-3.373335,-8.381688,94.799091,163.897902,133.816438,0.638986,-0.648777,-0.153839,-0.383561,1261.671265,87606.718750,0.258997,-0.160699,0.000000,-2.335815,-2.431347,25.500000,29.894178,0,2.900000,0, 202
254, 101,36414,36383,1,1,-1.687662,-0.544370,9.446741,0.308675,0.129935,-0.195101,-1.632874,-2.319843,4.437593,-5.928455,1.077773,2.394135,94.568054,168.945317,131.826421,0.640966,-0.645301,-0.210959,-0.358113,1262.145264,87606.500000,0.257109,0.444199,0.000000,-1.861816,-1.925450,25.625000,29.980181,0,2.900000,0, 202
255, 101,38520,38506,1,1,-1.735088,-1.153139,9.801911,-0.656255,0.109717,0.197751,-2.113400,-3.280895,2.996016,-0.745083,-0.167442,0.483221,92.644235,172.208494,130.488018,0.628338,-0.650034,-0.223038,-0.364557,1261.965454,87606.093750,-0.202547,0.010201,0.000000,-2.041626,-2.030507,25.750000,30.034498,0,2.900000,0, 202
256, 101,40623,40578,1,1,-1.573852,-0.794709,8.897874,-0.530671,-0.039082,0.130316,-1.152348,-0.878266,3.957067,0.016496,1.343678,-1.171435,93.029273,172.971576,129.619300,0.637361,-0.640482,-0.252109,-0.346404,1262.018921,87607.570312,-0.584726,0.309971,0.000000,-1.988159,-1.903117,25.750000,30.093340,0,2.900000,0, 202
257, 101,42803,42802,1,1,-1.453209,-0.498184,9.477754,0.042947,-0.061830,-0.199846,-0.671822,-0.397740,2.996016,11.159803,17.596919,-0.941676,95.660180,172.197252,125.882750,0.637723,-0.619403,-0.259774,-0.377050,1262.086426,87604.218750,-1.097942,-0.174750,0.000000,-1.920654,-1.729558,25.875000,30.106918,0,2.900000,0, 202
258, 101,44907,44887,1,1,-0.542801,-1.457136,10.159549,0.155986,0.070288,0.475431,0.289230,-2.319843,3.957067,-1.363710,-1.637011,-4.137257,86.512508,170.992488,131.340959,0.598916,-0.683737,-0.250089,-0.333556,1261.643433,87608.804688,-0.377870,-0.346352,0.000000,-2.363647,-2.248910,25.875000,30.161234,0,2.900000,0, 202
259, 101,47019,47010,1,1,-1.427295,0.638580,10.114642,-0.179942,-0.012763,0.432201,-0.671822,-0.397740,3.476542,-5.983043,5.831995,7.085075,98.266164,177.829740,135.222705,0.691649,-0.612567,-0.231261,-0.304796,1261.081299,87616.375000,-0.359532,-0.244116,0.000000,-2.925781,-2.721145,25.875000,30.215548,0,2.900000,0, 202
260, 101,49131,49093,1,1,-2.472075,-5.392397,-7.945220,0.123332,-0.053771,0.113510,-2.113400,-6.644576,-12.861338,23.101202,-6.902995,-0.158599,120.464989,21.252712,57.532616,-0.350715,-0.791931,0.330319,-0.375145,1260.743408,87619.375000,-0.274848,-0.099367,0.000000,-3.263672,-3.208495,26.000000,30.215548,0,2.900000,0, 202
261, 101,51264,51255,1,1,-0.740043,0.044629,9.869750,0.770015,0.239475,0.063651,-1.632874,-0.878266,3.476542,6.408001,5.615513,-2.387467,92.233153,173.203338,126.180601,0.642192,-0.619528,-0.293246,-0.343194,1260.966064,87617.781250,0.029336,-0.000328,0.000000,-3.041016,-3.092988,25.875000,30.238178,0,2.900000,0, 202
262, 101,53406,53399,1,1,-1.894124,-1.967685,7.760872,-1.501572,0.164316,-1.713422,-1.632874,-2.800369,6.359696,30.875549,-8.949395,17.843905,91.808001,171.354802,125.075544,0.583836,-0.655365,-0.214768,-0.428377,1260.381226,87623.187500,-0.085832,-0.377835,0.000000,-3.625854,-3.468873,26.000000,30.260809,0,2.900000,0, 202
263, 101,55557,55542,1,1,-1.507974,-1.927615,-10.398779,0.418359,0.224354,0.871344,-1.152348,-3.761421,-13.822390,-43.272411,-21.878662,-22.943603,100.457084,4.046800,66.198398,-0.507904,-0.667664,0.392417,-0.377184,1260.311401,87622.421875,-0.557035,-0.079835,0.000000,-3.695679,-3.655192,26.000000,30.251757,0,2.900000,0, 202
264, 101,57695,57687,1,1,-0.484242,0.084704,-9.388765,0.374657,0.027079,-0.406881,-0.191296,1.524364,-15.263968,1.382065,2.565746,-3.716558,92.297596,-3.997648,65.120588,-0.589911,-0.602422,0.397966,-0.361547,1259.766357,87627.179688,-0.668557,-0.406140,0.000000,-4.240723,-4.094980,26.000000,30.260809,0,2.900000,0, 202
265, 101,59933,59896,1,1,-1.297240,-10.304302,2.741498,-0.100059,0.244367,0.937136,-0.671822,-10.008257,-1.809243,-14.160157,2.292005,-2.406465,27.919672,122.606991,161.674430,0.141422,-0.857509,-0.012540,-0.494491,1259.925781,87624.421875,-0.442965,-0.237688,0.000000,-4.081299,-4.066362,25.875000,30.251757,0,2.900000,0, 202
266, 101,62075,62025,1,1,-0.263364,-1.079024,8.460732,0.114346,-0.149484,-1.621673,0.289230,-2.319843,7.320748,-8.754735,-2.611627,1.272496,88.527489,178.263689,125.415169,0.611985,-0.644207,-0.325661,-0.323134,1260.031006,87624.539062,0.004835,-0.340845,0.000000,-3.976074,-4.047104,25.875000,30.247231,0,2.900000,0, 202
267, 101,64237,64232,1,1,-1.335096,-3.144213,-9.566968,-1.373638,-1.051677,0.209121,-1.632874,-3.280895,-14.783442,-65.992687,4.947904,10.840164,111.390215,20.600438,61.552797,-0.459810,-0.708761,0.354911,-0.400338,1260.174927,87625.773438,0.399867,0.065106,0.000000,-3.832153,-3.975726,25.875000,30.238178,0,2.900000,0, 202
268, 101,66383,66377,1,1,-1.317729,-1.779383,-9.273861,0.179614,0.112365,-0.268832,-1.152348,-2.800369,-14.783442,-0.573820,2.714085,2.260356,100.858364,5.825840,67.111868,-0.501749,-0.665482,0.394981,-0.386487,1259.882568,87629.703125,-0.183993,0.315766,0.000000,-4.124512,-4.162414,25.875000,30.278913,0,2.900000,0, 202
269, 101,68538,68520,1,1,-1.264403,-2.070450,-8.861933,0.157959,0.008117,-0.614362,-2.593925,-1.839317,-14.783442,-5.486140,0.259340,-1.453368,102.247911,8.183564,67.647211,-0.485829,-0.673259,0.389997,-0.398240,1259.406250,87638.460938,0.796559,-0.133800,0.000000,-4.600830,-4.552665,26.000000,30.287966,0,2.900000,0, 202
270, 101,70697,70666,1,1,-2.885559,0.064163,8.838794,1.397651,1.018785,-0.665165,-3.554977,2.004889,1.073912,65.949738,81.968164,-43.471548,100.997686,165.145518,109.407889,0.637895,-0.522597,-0.295718,-0.482216,1259.392456,87632.468750,1.061252,-0.061813,0.000000,-4.614624,-4.825336,26.000000,30.287966,0,2.900000,0, 202
271, 101,72911,72901,1,1,-2.118297,1.109815,9.173029,-0.525042,0.117541,-0.336654,-1.632874,3.926993,3.476542,-0.858160,-3.033275,-0.891392,103.793351,-174.757138,110.094337,0.660456,-0.484627,-0.382656,-0.427212,1258.881104,87639.750000,-0.780848,-0.116575,0.000000,-5.125977,-4.844458,26.000000,30.315123,0,2.900000,0, 202
272, 101,74997,74982,1,1,-1.620692,1.616140,9.874514,-0.089951,-0.003689,0.334900,-0.671822,0.082786,3.476542,-2.847938,0.530606,2.441380,101.704877,-173.626414,108.664451,0.649533,-0.486960,-0.402568,-0.422984,1258.952637,87642.742188,-1.093010,0.190846,0.000000,-5.054443,-4.820277,26.000000,30.315123,0,2.900000,0, 202
273, 101,77164,77147,1,1,-0.572914,1.202313,10.063888,0.223478,-0.058944,0.348000,-0.671822,0.563312,3.476542,1.043347,1.772995,1.548514,95.236456,-175.532242,105.169204,0.605060,-0.514744,-0.438335,-0.420481,1258.761230,87641.453125,-0.498984,-0.073950,0.000000,-5.245850,-5.081647,26.000000,30.287966,0,2.900000,0, 202
274, 101,79251,79204,1,1,1.354504,-1.145207,-10.042787,0.236950,-0.253305,0.391322,0.769756,-2.319843,-15.744493,-3.135158,-3.537053,2.876748,84.232283,5.650542,86.231555,-0.518234,-0.513941,0.431115,-0.530506,1258.576416,87643.687500,0.418331,-0.214120,0.000000,-5.430664,-5.359285,25.875000,30.278913,0,2.900000,0, 202
275, 101,81353,81319,1,1,0.684226,-1.317480,-9.741114,-0.160939,0.074229,0.050995,0.289230,-5.202998,-15.263968,0.668095,1.339558,-0.668866,86.118543,8.891545,86.092164,-0.496229,-0.536118,0.423246,-0.535907,1258.104858,87646.976562,-0.598465,-0.258138,0.000000,-5.902222,-5.721730,26.000000,30.306070,0,2.900000,0, 202
276, 101,83458,83414,1,1,-1.657888,-3.779475,9.697654,0.156146,0.113930,0.736559,-1.152348,-4.241947,3.957067,-3.287644,-5.592847,-0.615515,81.631907,157.363460,133.822121,0.531332,-0.732957,-0.173014,-0.387976,1257.784180,87651.031250,-0.865326,-0.440152,0.000000,-6.222900,-5.963655,25.875000,30.265335,0,2.900000,0, 202
277, 101,85568,85527,1,1,-1.481877,-3.879998,9.942855,-0.280218,0.166792,0.969532,-1.632874,-5.683524,3.957067,1.260115,-6.231912,-0.110091,80.473787,160.464448,133.830904,0.534832,-0.735043,-0.194160,-0.368739,1257.753662,87650.679688,-1.053102,-0.254726,0.000000,-6.253418,-6.062370,25.875000,30.278913,0,2.900000,0, 202
278, 101,87685,87650,1,1,-0.063597,-2.833755,-9.883762,0.032308,0.023473,0.481090,0.769756,-4.241947,-13.341864,-14.359597,-0.471193,-3.820801,100.709548,11.658540,48.266703,-0.546065,-0.726490,0.253376,-0.331400,1257.697266,87653.960938,0.107824,-0.102476,0.000000,-6.309814,-6.233149,25.875000,30.306070,0,2.900000,0, 202
279, 101,89808,89772,1,1,-0.204639,-1.648189,-9.547712,-0.297175,-0.368905,-0.121495,0.289230,-4.722473,-14.783442,-1.771137,0.089182,-1.504490,99.749046,8.129958,46.905450,-0.584546,-0.704364,0.266253,-0.302138,1257.360962,87657.960938,-0.583553,-0.353347,0.000000,-6.646118,-6.489491,25.875000,30.306070,0,2.900000,0, 202
280, 101,92070,92052,1,1,-0.121133,0.176811,-9.074475,0.540259,0.188919,-0.742056,-1.152348,-0.397740,-14.783442,1.191396,-1.389618,1.458416,88.536915,-4.738477,44.163112,-0.673833,-0.635140,0.289611,-0.242223,1258.097656,87650.140625,0.846522,0.467626,0.000000,-5.909424,-6.106514,26.000000,30.337751,0,2.900000,0, 202
281, 101,94283,94235,1,1,0.190680,-0.665542,-9.654760,0.119531,-0.025370,0.219497,0.289230,-1.358791,-15.263968,3.600729,-0.117324,1.766794,91.088222,0.361806,45.564332,-0.644845,-0.658956,0.274360,-0.273276,1257.015137,87659.015625,-0.452421,-0.504818,0.000000,-6.991943,-6.841178,26.000000,30.342278,0,2.900000,0, 202
282, 101,96409,96362,1,1,-0.077891,-0.875013,-9.769601,-0.251919,-0.091355,0.004356,-0.191296,-2.800369,-15.744493,1.743446,2.299431,1.763749,94.443956,4.812559,45.518334,-0.613806,-0.687276,0.257406,-0.290924,1257.571777,87655.257812,0.261555,0.072621,0.000000,-6.435303,-6.441257,25.875000,30.333225,0,2.900000,0, 202
283, 101,98541,98496,1,1,0.207216,-1.533536,-9.830472,-0.329714,-0.024901,0.145030,0.769756,-2.319843,-14.302916,1.498559,-1.790245,-2.364684,95.545658,9.050517,45.067958,-0.596436,-0.702141,0.233916,-0.310719,1257.070557,87660.773438,-0.135477,-0.209800,0.000000,-6.936523,-6.819402,25.875000,30.351330,0,2.900000,0, 202
284, 101,100678,100631,1,1,-0.078214,-0.973267,-9.841212,-0.412234,-0.135889,0.079001,-0.191296,-3.280895,-14.783442,2.233468,0.607341,1.041847,95.104790,6.073851,44.978469,-0.607760,-0.694499,0.248818,-0.293920,1257.643433,87654.257812,0.653642,0.123434,0.000000,-6.363647,-6.562288,26.000000,30.333225,0,2.900000,0, 202
285, 101,102820,102806,1,1,-0.997186,-3.078198,-9.652642,-0.203708,-0.111342,0.376882,-1.632874,-4.241947,-14.302916,10.658703,-7.024232,-14.575055,108.179733,7.252422,36.381406,-0.540096,-0.779499,0.217099,-0.231398,1257.500732,87655.609375,0.331158,-0.113541,0.000000,-6.506348,-6.536791,25.875000,30.319649,0,2.900000,0, 202
286, 101,104973,104942,1,1,-1.544267,-5.731140,-8.746981,-0.575723,-0.857359,0.719165,-2.113400,-7.125102,-12.380812,20.373937,1.229525,5.606995,127.599600,13.531785,29.847616,-0.433268,-0.854617,0.192628,-0.211667,1257.157471,87655.195312,0.025198,-0.317331,0.000000,-6.849609,-6.754294,25.750000,30.297018,0,2.900000,0, 202
287, 101,107129,107086,1,1,-1.325703,-9.287390,2.161357,-0.893240,0.094438,-0.215711,-1.152348,-10.008257,-3.250821,4.165169,13.250579,-21.610555,16.320255,155.450598,176.006749,0.131279,-0.967710,-0.003541,-0.215151,1257.124268,87658.601562,0.763588,0.160884,0.000000,-6.882812,-7.040728,25.750000,30.319649,0,2.900000,0, 202
288, 101,109287,109234,1,1,-3.278929,-4.748345,8.088575,0.568978,0.019722,0.118631,-3.554977,-6.644576,2.515490,31.556362,0.457875,6.887512,69.729449,146.614368,160.951400,0.501006,-0.802262,0.031891,-0.323034,1256.743896,87664.242188,-0.094191,-0.095971,0.000000,-7.263184,-7.100137,25.875000,30.333225,0,2.900000,0, 202
289, 101,111527,111485,1,1,-2.868547,-4.576733,8.565460,-0.310514,-0.114466,0.319901,-3.554977,-6.164050,3.476542,-1.444882,-5.379978,0.644534,72.087217,155.007701,158.695962,0.532224,-0.799345,-0.020798,-0.278124,1256.811890,87662.484375,0.699344,-0.024866,0.000000,-7.195190,-7.258812,25.875000,30.324173,0,2.900000,0, 202
290, 101,113730,113698,1,1,-2.967776,-3.611980,9.212623,-0.256719,0.100973,0.526169,-1.632874,-4.722473,2.515490,-0.780244,-8.654706,-3.176006,78.350247,156.779452,154.554108,0.569214,-0.768711,-0.043229,-0.288460,1256.116943,87669.648438,0.195478,-0.647105,0.000000,-7.890137,-7.753162,25.875000,30.355856,0,2.900000,0, 202
291, 101,0,2387,1,1,-0.704815,-0.933852,9.999019,0.097139,-0.135064,0.264860,-0.671822,-0.878266,3.957067,-1.532851,0.633159,0.192919,86.447307,174.354840,167.460283,0.676007,-0.727132,-0.045962,-0.110371,1251.320312,87720.281250,-0.823790,111.650612,0.046387,-0.220825,5.935338,26.000000,30.251757,0,2.900000,8, 202
292, 101,2500,4094,1,1,-1.335657,-0.774088,9.716922,-0.346968,-0.364047,0.024927,-1.152348,-3.280895,5.398644,-1.130737,0.530619,1.200505,89.495566,173.382713,166.873802,0.679608,-0.721036,-0.031426,-0.131351,1251.403076,87717.578125,-0.475691,3.255243,0.240356,-0.138062,-0.191528,26.000000,30.278913,0,2.900000,0, 202
293, 101,6200,6194,1,1,-1.090872,-0.318866,10.099524,-0.538423,-0.336314,0.342425,-0.191296,-0.878266,4.918118,2.676664,-4.976233,-1.188931,91.751133,176.617900,165.026659,0.708723,-0.692743,-0.069672,-0.113860,1250.853271,87725.507812,-1.127092,0.082011,0.240356,-0.687866,-0.358612,25.875000,30.242704,0,2.900000,0, 202
294, 101,8368,8349,1,1,-1.983695,-2.281399,7.701000,-0.715863,0.142619,-1.560100,-2.593925,-1.839317,0.593386,5.808456,12.752439,-14.514365,80.662410,165.191144,154.318548,0.603924,-0.755590,-0.086685,-0.238421,1251.214478,87722.046875,0.773112,0.182636,0.240356,-0.326660,-0.407722,25.875000,30.260809,0,2.900000,0, 202
295, 101,10460,10444,1,1,-0.471862,0.183681,11.040024,-0.036041,-0.215269,1.248474,-0.671822,-0.397740,4.918118,7.844971,-0.611209,2.596068,92.951717,178.308673,156.912736,0.708306,-0.676798,-0.127311,-0.155042,1250.745117,87724.867188,0.109204,-0.410506,0.240356,-0.796021,-0.919691,25.875000,30.306070,0,2.900000,0, 202
296, 101,12569,12558,1,1,-0.182602,-0.225882,-9.642746,0.122046,0.023074,-0.154680,-0.191296,-0.397740,-15.263968,0.819735,-2.742559,-7.050356,91.342517,-1.612921,7.990698,-0.696710,-0.713926,0.055630,-0.042546,1249.943604,87731.445312,-1.435731,-0.414063,0.240356,-1.597534,-1.406750,25.875000,30.283440,0,2.900000,0, 202
297, 101,14689,14681,1,1,-0.376563,-0.285842,-10.219758,-0.138731,-0.020768,0.428725,-0.191296,-1.358791,-15.263968,-0.248505,4.397427,2.806898,91.921471,-1.161291,5.768644,-0.695413,-0.716650,0.047559,-0.023503,1250.065552,87734.320312,0.035214,-0.091619,0.240356,-1.475586,-1.451263,25.875000,30.287966,0,2.900000,0, 202
298, 101,16815,16791,1,1,-0.489067,-0.869374,-8.850430,-0.557706,-1.908297,-1.119268,-2.113400,-2.485415,-3.957067,224.363313,-56.155701,15.422685,95.962573,3.274393,-147.636028,0.206856,0.188594,0.718531,-0.636676,1249.427246,87737.789062,-0.505957,-0.437387,0.240356,-2.113892,-2.045684,25.875000,30.269861,0,2.900000,0, 202
299, 101,18941,18905,1,1,-1.736781,-3.148865,-9.165686,-0.533436,-0.563749,0.014253,-1.152348,-2.965941,-2.996016,-26.824888,9.290375,-48.811834,72.045389,0.246373,-143.224477,0.256327,0.183865,0.558626,-0.767090,1249.036743,87744.125000,-0.902183,-0.233327,0.240356,-2.504395,-2.258282,25.875000,30.256283,0,2.900000,0, 202
300, 101,21075,21038,1,1,-1.249360,0.335683,10.175180,0.065500,-0.318988,0.450919,-0.671822,-0.878266,5.879170,-3.223295,-4.803981,-2.648849,94.800840,173.043580,170.360819,0.728698,-0.676987,-0.012264,-0.102652,1249.021240,87748.937500,1.056446,0.076407,0.240356,-2.519897,-2.621078,25.750000,30.224600,0,2.900000,0, 202
301, 101,23215,23170,1,1,-0.899165,0.258464,10.454893,0.332375,0.409214,0.682423,-0.671822,0.563312,3.957067,-4.011898,3.175373,1.405198,90.058052,173.611729,169.374061,0.713391,-0.693438,-0.034315,-0.095075,1248.344849,87754.343750,0.375447,-0.395581,0.240356,-3.196289,-3.151446,25.750000,30.247231,0,2.900000,0, 202
302, 101,25444,25412,1,1,-0.808434,0.953299,9.692860,-0.085571,0.069287,-0.028500,-1.152348,2.004889,3.957067,8.265004,2.403010,-4.826058,96.206363,177.293160,165.496604,0.737876,-0.662390,-0.063862,-0.112691,1247.743896,87761.101562,0.450529,-0.331948,0.240356,-3.797241,-3.738176,25.875000,30.256283,0,2.900000,0, 202
303, 101,27581,27572,1,1,-0.752050,0.873511,9.859220,-0.271801,-0.239098,0.118766,0.289230,-0.397740,4.918118,-2.383360,-0.478939,0.910125,97.365877,178.627724,165.426608,0.735463,-0.664886,-0.067835,-0.111440,1246.492798,87771.968750,-0.404141,-0.853534,0.240356,-5.048340,-4.819943,25.750000,30.260809,0,2.900000,0, 202
304, 101,29723,29707,1,1,-1.321750,0.608628,9.818407,-0.645059,-0.100625,0.103158,-0.191296,-0.878266,6.359696,-0.846922,-6.240574,2.463107,95.934487,177.210610,165.309853,0.727752,-0.671215,-0.048628,-0.132225,1246.580566,87767.976562,0.298382,0.116666,0.240356,-4.960571,-5.088120,25.750000,30.260809,0,2.900000,0, 202
305, 101,31866,31821,1,1,-0.761428,0.675190,9.908815,0.091963,0.148497,0.158406,-0.191296,1.043838,2.996016,-2.038836,0.059503,1.297498,94.071704,176.283494,164.378447,0.721606,-0.678087,-0.069065,-0.121293,1249.070801,87743.828125,0.728319,1.202259,0.240356,-2.470337,-2.897303,25.750000,30.229126,0,2.900000,0, 202
306, 101,34014,33964,1,1,-0.826253,0.548117,9.909685,-0.385401,-0.214349,0.465529,-2.593925,2.004889,3.476542,1.775034,-0.084131,2.648775,95.242746,178.507622,163.853492,0.730091,-0.668641,-0.085127,-0.112425,1248.974121,87743.710938,0.013309,-0.138928,0.240356,-2.567017,-2.537500,25.750000,30.233652,0,2.900000,0, 202
307, 101,36176,36163,1,1,-0.786673,0.546853,10.287376,0.001914,-0.129814,0.530077,-1.152348,1.524364,2.996016,-3.322589,-0.076173,-3.963981,94.947266,176.755501,162.155384,0.720996,-0.674799,-0.084988,-0.132619,1249.483887,87735.429688,0.272375,0.504954,0.240356,-2.057251,-2.353653,25.875000,30.206495,0,2.900000,0, 202
308, 101,38341,38313,1,1,-0.565955,-0.009735,9.787789,0.094453,-0.171811,0.001182,-1.152348,-1.839317,4.437593,-1.673479,0.036657,-1.055164,91.914450,176.265626,163.043227,0.702329,-0.695892,-0.083281,-0.124631,1248.670654,87751.703125,-1.308514,-0.682967,0.240356,-2.870483,-2.463933,25.750000,30.233652,0,2.900000,0, 202
309, 101,40557,40511,1,1,-3.365996,-4.219553,8.425303,-0.242363,-0.202525,0.200026,-4.516029,-5.683524,1.073912,10.324406,-0.918272,5.415380,71.658971,154.754779,166.797878,0.547073,-0.800627,0.036124,-0.241666,1244.661743,87792.570312,-1.678102,-2.348428,0.240356,-6.879395,-6.060360,25.750000,30.197443,0,2.900000,0, 202
310, 101,46413,46388,1,1,-1.973510,1.024197,10.277468,-0.288714,-0.350804,0.704410,-1.152348,1.043838,3.476542,1.152652,-0.333987,-0.862323,100.806496,173.193366,160.466675,0.751624,-0.634794,-0.062852,-0.167772,1246.311035,87774.015625,0.081852,0.174470,0.240356,-5.230103,-5.295056,25.750000,30.220074,0,2.900000,0, 202
311, 101,48504,48499,1,1,-1.195364,1.119592,9.834336,-0.763092,-0.329711,0.134066,-1.632874,2.485415,3.957067,2.132635,4.448873,1.235018,100.097146,179.663003,163.208176,0.744169,-0.649582,-0.071248,-0.138491,1246.458496,87773.203125,0.317634,0.126620,0.240356,-5.082642,-5.072409,25.875000,30.251757,0,2.900000,0, 202
312, 101,50591,50549,1,1,-0.933037,1.410991,10.425876,-0.136626,0.087570,0.759966,0.289230,2.004889,5.879170,0.720841,-0.536158,0.976946,98.249054,177.766028,165.264090,0.748112,-0.650781,-0.069289,-0.109601,1246.422119,87772.851562,-0.197865,0.185732,0.240356,-5.119019,-5.116820,25.875000,30.265335,0,2.900000,0, 202
313, 101,52689,52688,1,1,-1.040748,0.551119,10.237683,0.598906,0.515855,0.473836,-1.152348,-0.397740,3.957067,-1.335115,4.497901,-0.178340,91.319014,171.601440,168.204159,0.722827,-0.681932,-0.035009,-0.106136,1246.197998,87770.625000,0.091478,-0.050813,0.240356,-5.343140,-5.461327,25.875000,30.274387,0,2.900000,0, 202
314, 101,54787,54740,1,1,-1.503450,0.487896,9.239971,-0.193674,-0.367198,-0.436005,-3.074451,-0.397740,3.476542,-7.501470,14.970349,20.499223,96.128847,172.282670,174.302138,0.739058,-0.668444,0.016858,-0.081808,1245.962280,87776.960938,-0.068024,0.148633,0.240356,-5.578857,-5.533185,25.875000,30.260809,0,2.900000,0, 202
315, 101,56897,56857,1,1,-1.164052,-4.790523,9.281364,-0.054097,-0.333377,0.702989,-0.191296,-4.722473,2.034964,20.207374,19.333580,-12.515723,64.965918,172.170791,177.996547,0.534707,-0.842095,0.021946,-0.066947,1245.854736,87780.796875,-0.322253,0.163358,0.240356,-5.686401,-5.528892,25.875000,30.306070,0,2.900000,0, 202
316, 101,59014,59008,1,1,-1.061893,-1.460312,9.695117,-0.339857,-0.293081,0.050600,-2.113400,-1.358791,7.320748,-7.002368,-9.172185,5.424053,84.064445,174.690612,172.548282,0.665181,-0.742418,-0.017270,-0.077792,1245.475220,87781.609375,-0.742822,-0.380228,0.240356,-6.065918,-5.924521,25.875000,30.274387,0,2.900000,0, 202
317, 101,61122,61104,1,1,-1.127916,-2.013787,8.141745,-0.390763,-0.201616,-1.349835,-1.152348,-2.319843,4.437593,-0.108338,-3.988898,1.836044,78.267950,173.732419,175.354520,0.618058,-0.781733,0.018471,-0.080977,1245.432373,87782.789062,-0.259529,-0.241505,0.240356,-6.108765,-6.137311,25.750000,30.306070,0,2.900000,0, 202
318, 101,63337,63312,1,1,-0.902345,-0.408525,9.833855,-0.104859,-0.075574,0.081768,-0.671822,-1.358791,4.437593,-2.969949,-9.031385,-9.323773,88.555308,175.172386,174.778694,0.692648,-0.718322,-0.000005,-0.065202,1244.017822,87800.234375,-1.339413,-0.653301,0.240356,-7.523315,-7.163364,25.875000,30.287966,0,2.900000,0, 202
319, 101,65461,65451,1,1,-2.073652,-2.422268,9.040331,0.884950,0.879105,-0.296315,-0.671822,-2.800369,1.554438,-138.807134,14.015890,-43.337315,72.991848,158.950892,168.030303,0.606886,-0.773666,0.000955,-0.182014,1242.974121,87812.750000,0.041813,-0.689846,0.240356,-8.567017,-8.299821,25.750000,30.306070,0,2.900000,0, 202
320, 101,71403,71355,1,1,-2.493376,0.767378,9.970441,-0.232269,0.247468,0.499500,-2.113400,1.043838,3.957067,-1.755677,1.178820,0.887966,98.431666,170.354685,154.824297,0.729115,-0.642035,-0.070778,-0.226214,1241.762329,87821.742188,0.570481,0.114863,0.240356,-9.778809,-9.942123,25.875000,30.306070,0,2.900000,0, 202
321, 101,73527,73526,1,1,-1.647291,0.854044,9.953433,0.643105,-0.287434,0.299376,-1.632874,1.043838,2.034964,-2.794980,7.733857,-1.063272,100.346947,170.306355,151.786201,0.727338,-0.641103,-0.113776,-0.216845,1241.666748,87819.695312,0.501798,-0.091059,0.240356,-9.874390,-10.000764,25.875000,30.346804,0,2.900000,0, 202
322, 101,75656,75615,1,1,-2.238487,0.392896,10.577578,0.334977,0.033088,1.012743,-2.113400,0.082786,2.515490,-0.657133,4.181870,-2.222576,97.569601,168.846975,150.072397,0.706759,-0.652408,-0.098706,-0.255172,1241.717041,87823.390625,-0.085637,0.151049,0.240356,-9.824097,-9.804862,25.875000,30.319649,0,2.900000,0, 202
323, 101,77787,77748,1,1,-1.056284,0.039250,9.737872,0.207237,-0.227840,-0.010772,-1.632874,0.563312,3.476542,-7.831856,4.562112,2.178872,94.697369,173.580174,149.193734,0.697883,-0.663112,-0.139973,-0.231622,1241.564575,87824.453125,-0.432862,-0.053425,0.240356,-9.976562,-9.967650,25.875000,30.355856,0,2.900000,0, 202
324, 101,79926,79886,1,1,-0.878725,0.473285,8.869524,0.766178,0.158197,-0.909850,-2.113400,0.082786,1.554438,-3.349531,8.881210,1.368449,94.575068,171.860305,148.014338,0.691284,-0.664789,-0.136287,-0.248209,1242.295654,87817.343750,1.336995,0.488679,0.240356,-9.245483,-9.571711,25.875000,30.360382,0,2.900000,0, 202
325, 101,82071,82062,1,1,-1.276689,-0.327056,11.008457,-0.017170,0.432067,1.277630,-2.113400,-1.358791,2.515490,-2.178474,1.813295,2.133076,89.633822,173.521065,149.722200,0.680742,-0.682316,-0.142105,-0.225479,1242.028931,87818.710938,-0.144782,0.061115,0.240356,-9.512207,-9.519217,25.875000,30.423746,0,2.900000,0, 202
326, 101,84305,84266,1,1,-0.828155,-0.971339,11.486159,-0.134562,0.024497,1.755059,-0.671822,-0.397740,4.918118,-46.619900,-2.912609,7.185812,87.557807,174.764679,151.956546,0.662572,-0.707427,-0.144097,-0.199453,1242.151123,87821.476562,0.125368,0.021697,0.240356,-9.390015,-9.365291,25.875000,30.432798,0,2.900000,0, 202
327, 101,86446,86407,1,1,-0.253218,2.292040,9.786956,0.787237,1.171246,0.154426,1.250281,2.485415,6.840222,-0.292529,-50.851209,8.587416,95.024611,-178.302266,145.834320,0.707750,-0.642352,-0.208832,-0.207032,1242.472656,87814.187500,0.268622,0.272117,0.240356,-9.068481,-9.111959,25.875000,30.405642,0,2.900000,0, 202
328, 101,88646,88644,1,1,0.579008,1.421663,10.632855,0.366024,-0.367724,0.929554,-0.191296,0.082786,5.879170,15.102491,11.851245,2.883706,97.699484,-176.069163,156.519290,0.741392,-0.638636,-0.159101,-0.131029,1242.315308,87818.078125,-0.630925,0.141672,0.240356,-9.225830,-9.027123,26.000000,30.487108,0,2.900000,0, 202
329, 101,90716,90695,1,1,1.175390,-1.964210,10.148541,0.511358,0.233031,0.587299,4.613962,-1.358791,1.073912,15.547558,11.087136,11.222306,76.331271,-179.932427,162.319651,0.610668,-0.776832,-0.121187,-0.094506,1242.509888,87816.546875,-0.264226,-0.010609,0.240356,-9.031250,-8.985024,26.000000,30.469006,0,2.900000,0, 202
330, 101,92795,92780,1,1,-0.900292,-1.164858,10.278417,0.246796,0.465282,0.568951,-0.191296,-1.358791,4.918118,1.363129,-2.509295,14.715709,81.926453,172.609085,170.258366,0.663879,-0.740930,-0.027851,-0.097528,1242.768066,87813.015625,0.318695,0.117151,0.240356,-8.773071,-8.841156,25.875000,30.450901,0,2.900000,0, 202
331, 101,94880,94836,1,1,-0.045844,0.529321,10.831279,-0.127101,0.096510,0.691380,-0.671822,0.082786,3.476542,2.237464,0.596480,-3.219598,91.277630,179.988052,168.160760,0.711127,-0.695459,-0.072034,-0.073807,1242.598633,87814.257812,0.223455,0.145845,0.240356,-8.942505,-8.956080,26.125000,30.518789,0,2.900000,0, 202
332, 101,96973,96948,1,1,-0.658561,0.610563,10.555590,0.396222,0.683464,0.763225,-0.191296,0.082786,3.957067,-2.349434,3.538892,-7.747441,90.427074,175.274785,164.761812,0.699023,-0.701533,-0.064324,-0.122806,1242.015747,87820.609375,-0.364965,-0.288699,0.240356,-9.525391,-9.372455,26.000000,30.582151,0,2.900000,0, 202
333, 101,99074,99058,1,1,-0.706728,-0.232792,9.093540,-0.014240,-0.023051,-0.677109,-2.113400,-2.319843,3.476542,-3.598575,2.650186,3.745905,90.053886,175.412481,162.882800,0.693898,-0.703401,-0.076758,-0.133570,1241.970215,87822.078125,-0.090705,0.014223,0.240356,-9.570923,-9.558567,26.125000,30.564047,0,2.900000,0, 202
334, 101,101254,101231,1,1,-0.900519,-0.918959,10.631889,0.083790,-0.631024,0.889523,-0.671822,-0.397740,5.879170,1.480173,-7.177392,-4.282453,90.287991,173.378437,161.078113,0.691377,-0.701302,-0.075362,-0.156508,1241.881470,87818.968750,0.695196,-0.196988,0.240356,-9.659668,-9.756353,26.125000,30.568573,0,2.900000,0, 202
335, 101,103351,103330,1,1,-0.656562,-0.579275,9.222898,-0.526923,-0.531124,-0.566893,-0.191296,-0.397740,3.476542,-4.518656,-4.991965,-1.633590,91.216343,178.249960,161.072704,0.681402,-0.712119,-0.089762,-0.143248,1241.693726,87824.375000,-0.245916,-0.102736,0.240356,-9.847412,-9.766190,26.000000,30.591202,0,2.900000,0, 202
336, 101,105454,105441,1,1,-0.760669,-0.542978,9.943069,-0.137842,-0.370816,0.178055,-0.671822,-4.241947,3.476542,-2.682761,2.496883,3.267604,90.745306,175.601992,159.422489,0.694917,-0.695565,-0.098510,-0.153542,1241.542969,87826.671875,0.321928,-0.063710,0.240356,-9.998169,-10.004929,26.125000,30.618357,0,2.900000,0, 202
337, 101,107562,107559,1,1,-1.499543,-1.373676,9.085612,-0.273890,0.531435,-0.509793,-1.632874,-2.319843,3.957067,13.901827,8.536481,-39.790404,79.164126,171.569625,174.539774,0.632040,-0.769986,0.010171,-0.086853,1241.392090,87828.023438,-0.778662,0.017699,0.240356,-10.149048,-9.898340,26.125000,30.604780,0,2.900000,0, 202
338, 101,109670,109630,1,1,-0.360593,-0.520765,9.078449,0.503385,-0.038998,-0.714496,-1.152348,-0.878266,1.554438,-6.145969,20.281936,3.736106,88.182134,173.408244,155.804196,0.670568,-0.709506,-0.111166,-0.185962,1241.250977,87829.257812,-0.574901,-0.269167,0.240356,-10.290161,-10.212713,26.000000,30.595728,0,2.900000,0, 202
339, 101,111790,111756,1,1,-1.208985,-1.185862,10.188300,0.765420,-0.610013,0.480604,-2.593925,-1.358791,2.515490,-20.431461,8.996133,3.006695,89.107584,167.317081,162.600508,0.677358,-0.711805,-0.030524,-0.183272,1241.331177,87826.609375,1.473646,-0.144663,0.240356,-10.209961,-10.446257,26.125000,30.582151,0,2.900000,0, 202
340, 101,113916,113874,1,1,0.004546,0.623673,11.671560,-0.032091,-0.344172,1.882100,-0.671822,-0.397740,4.437593,1.103688,3.444581,4.774048,94.602867,-178.916764,162.816998,0.727610,-0.669464,-0.108171,-0.103447,1240.787109,87833.664062,-0.166316,-0.141998,0.240356,-10.754028,-10.668935,26.125000,30.618357,0,2.900000,0, 202
341, 101,116047,116008,1,1,-1.174888,0.379882,10.508419,0.209140,0.253208,0.774618,-1.632874,0.082786,3.476542,-4.972087,-1.422494,-4.592068,92.761619,173.583821,159.785172,0.704814,-0.685201,-0.080992,-0.164855,1240.289795,87840.898438,-0.767480,-0.334054,0.240356,-11.251343,-11.030964,26.250000,30.686243,0,2.900000,0, 202
342, 101,118273,118252,1,1,-1.079595,0.304454,10.571858,0.535954,-0.570654,0.801335,-0.671822,-0.878266,3.476542,-7.447310,5.884921,-4.786966,96.686225,172.231389,159.219441,0.712750,-0.676974,-0.089113,-0.160479,1240.442383,87837.546875,0.722837,0.157472,0.240356,-11.098755,-11.166142,26.375000,30.699820,0,2.900000,0, 202
343, 101,120404,120381,1,1,-2.056180,0.186538,11.009774,-0.109590,0.845195,1.368218,-2.593925,-0.878266,6.840222,-4.352045,-6.061801,3.956505,90.577946,171.130458,157.543559,0.706879,-0.675398,-0.073052,-0.197036,1240.105713,87841.367188,-0.388021,-0.180757,0.240356,-11.435425,-11.334944,26.375000,30.668140,0,2.900000,0, 202
344, 101,122541,122516,1,1,-1.914124,0.230641,9.997655,-0.240804,-0.158685,0.376770,-1.632874,0.563312,2.996016,-3.474747,1.510178,-1.460018,96.618299,172.052329,155.089882,0.710606,-0.665022,-0.086990,-0.212645,1240.108398,87839.781250,-0.694910,-0.270420,0.240356,-11.432739,-11.352158,26.250000,30.690767,0,2.900000,0, 202
345, 101,124686,124643,1,1,-0.988246,-2.494152,9.041171,0.279661,0.303751,-0.379231,-1.152348,-5.202998,4.437593,-5.008795,2.113654,0.721724,76.326742,166.630470,157.681570,0.584389,-0.780063,-0.080565,-0.208569,1240.059692,87841.250000,-0.784758,-0.057002,0.240356,-11.481445,-11.391620,26.250000,30.672665,0,2.900000,0, 202
346, 101,126838,126836,1,1,-1.430442,-0.987249,11.512320,0.156922,0.370268,1.834833,-0.191296,-1.358791,4.918118,-5.008594,-3.804574,-8.855783,86.582169,170.790533,156.134190,0.656639,-0.721234,-0.096155,-0.198495,1239.877686,87843.132812,0.154841,0.042821,0.240356,-11.663452,-11.683568,26.250000,30.677191,0,2.900000,0, 202
347, 101,128991,128976,1,1,-1.427700,-0.887191,10.161603,-0.012452,0.083419,0.498344,-2.113400,-2.319843,5.398644,1.166287,-2.026710,-2.376910,88.565110,170.726493,154.101881,0.665247,-0.708064,-0.104893,-0.212344,1239.958252,87841.367188,-0.142183,-0.051367,0.240356,-11.582886,-11.601677,26.250000,30.668140,0,2.900000,0, 202
348, 101,131196,131168,1,1,-1.397777,-1.277310,9.643738,-0.046187,-0.262221,0.023260,-2.113400,-1.358791,3.957067,-1.668634,-2.485094,-0.990740,88.471017,169.585374,153.652373,0.661627,-0.709174,-0.100967,-0.221649,1240.073486,87842.421875,0.677037,0.139180,0.240356,-11.467651,-11.503627,26.250000,30.704346,0,2.900000,0, 202
349, 101,133282,133257,1,1,-0.910834,-1.116850,10.280977,0.427942,0.195819,0.569824,-2.113400,-1.839317,2.034964,-6.583035,5.999069,-1.267682,85.657860,170.345355,153.362445,0.644963,-0.724309,-0.112681,-0.216109,1240.005005,87840.484375,-0.285372,0.002232,0.240356,-11.536133,-11.445996,26.250000,30.740549,0,2.900000,0, 202
350, 101,135458,135425,1,1,-1.961627,-1.490785,9.460754,-0.331943,0.241906,-0.033319,-0.671822,-2.319843,3.476542,-18.452019,-8.008801,2.757543,86.804362,167.455762,149.829625,0.638808,-0.716849,-0.115475,-0.254395,1240.058960,87838.484375,-0.123035,-0.150402,0.240356,-11.482178,-11.386822,26.375000,30.740549,0,2.900000,0, 202
351, 101,137546,137525,1,1,-1.473831,-3.132913,9.734349,0.003003,0.101310,0.530244,-2.113400,-3.761421,5.398644,-0.520842,-2.910701,-0.324553,75.963356,165.644259,159.248811,0.586342,-0.780504,-0.064395,-0.207052,1240.316895,87835.187500,-0.156171,-0.150127,0.240356,-11.224243,-11.241566,26.375000,30.790331,0,2.900000,0, 202
352, 101,139641,139630,1,1,-1.794681,-3.463180,9.597686,-0.707753,-0.030900,0.534773,-2.113400,-4.722473,4.918118,-0.547671,-0.080326,-0.822816,75.793230,167.027700,158.541518,0.583042,-0.783280,-0.077795,-0.201203,1240.686035,87830.312500,0.256801,0.477330,0.240356,-10.855103,-10.996176,26.375000,30.785807,0,2.900000,0, 202
353, 101,0,2253,1,1,-1.412646,-0.069111,10.081511,0.743936,0.477755,0.340771,-2.113400,-0.878266,2.996016,-47.163068,11.168885,17.708158,86.881816,167.834250,-179.776521,0.683883,-0.721852,0.074271,-0.075607,1236.904297,87877.468750,-0.146069,109.954979,0.000000,-0.264038,-4.224592,26.250000,30.740549,0,2.890000,8, 202
354, 101,2442,4037,1,1,-2.308254,-0.515749,10.187680,-0.520707,-0.904945,0.605383,-3.554977,0.082786,2.996016,-3.143298,-1.624453,4.210893,93.337793,169.885000,174.631504,0.691356,-0.712490,0.043716,-0.111687,1236.248535,87881.703125,-1.035808,3.493580,0.000000,-0.919800,-0.729140,26.375000,30.808434,0,2.890000,0, 202
355, 101,6183,6136,1,1,-1.371030,0.732625,10.315560,-0.245357,0.062084,0.247766,-2.113400,-0.878266,4.437593,23.798922,-9.362716,7.846177,90.590746,172.120371,177.462808,0.707819,-0.702699,0.033285,-0.064020,1235.950684,87884.054688,-0.112030,-0.467666,0.000000,-1.217651,-1.192377,26.375000,30.794857,0,2.890000,0, 202
356, 101,8229,8195,1,1,-1.040768,0.785338,9.859612,-0.078997,-0.114022,0.143478,-1.152348,0.563312,4.437593,-0.652431,-6.652534,4.320332,95.430590,174.622419,177.634000,0.738187,-0.672648,0.020822,-0.046813,1235.379639,87895.578125,-0.345771,-0.036109,0.000000,-1.788696,-1.596255,26.375000,30.812960,1,2.890000,0, 202
357, 101,8575,8550,1,1,-0.752778,1.221936,10.559000,0.038912,0.204196,0.853064,-1.632874,0.563312,3.957067,0.493449,-3.753297,-0.858731,95.587787,175.880008,178.547852,0.739889,-0.671649,0.018117,-0.033527,1235.261963,87890.578125,-1.234491,-0.380480,0.000000,-1.906372,-1.709757,26.375000,30.812960,1,2.890000,0, 202
358, 101,8719,8643,1,1,-0.863020,1.112182,10.026062,-0.093107,0.160762,0.321705,-0.671822,1.043838,3.957067,-1.187150,1.709943,4.527683,95.485601,175.726151,178.956721,0.739360,-0.672216,0.021479,-0.031807,1235.260742,87892.460938,-1.190178,-0.304852,0.000000,-1.907593,-1.743488,26.375000,30.817484,1,2.890000,0, 202
359, 101,8872,8789,1,1,-0.824244,1.068038,9.618917,-0.079874,0.150881,-0.089435,-0.191296,-0.397740,4.437593,-0.513697,1.135179,8.074284,95.413713,175.564275,-179.890517,0.739182,-0.672392,0.029269,-0.025336,1235.162842,87895.929688,-0.996272,-0.465417,0.000000,-2.005493,-1.763924,26.375000,30.799383,1,2.890000,0, 202
360, 101,9030,8936,1,1,-0.666978,1.002238,9.581038,0.042336,0.071139,-0.144978,-0.671822,-0.397740,3.957067,0.930061,-1.611486,3.578556,95.504199,175.718870,-179.553119,0.739819,-0.671758,0.030269,-0.022228,1235.159912,87893.578125,-0.599765,-0.475369,0.000000,-2.008423,-1.786151,26.375000,30.812960,1,2.890000,0, 202
361, 101,9203,9202,1,1,-0.589244,1.081028,10.170984,0.073224,0.054379,0.443825,-1.152348,1.524364,4.918118,0.423377,-1.334149,0.857746,95.709938,176.195098,-179.265978,0.741167,-0.670468,0.028910,-0.017529,1235.124146,87894.406250,-0.335006,-0.456892,0.000000,-2.044189,-1.829239,26.375000,30.781281,1,2.890000,0, 202
362, 101,9370,9359,1,1,-0.699023,0.965723,10.282168,-0.065458,-0.130781,0.549017,-1.632874,0.082786,4.918118,2.073712,-1.433678,-0.116528,96.029789,176.409935,-179.304391,0.743068,-0.668455,0.027342,-0.016444,1235.007935,87898.046875,-0.364692,-0.450062,0.000000,-2.160400,-1.859345,26.375000,30.794857,1,2.890000,0, 202
363, 101,9746,9728,1,1,-0.579009,0.920895,9.816309,0.033656,-0.192674,0.073460,0.289230,-2.319843,4.918118,0.187562,-3.154391,0.641515,96.406413,176.332398,-178.968483,0.745293,-0.665908,0.029852,-0.014620,1234.551758,87902.640625,-1.396345,-0.535453,0.000000,-2.616577,-2.061708,26.375000,30.849163,1,2.890000,0, 202
364, 101,10000,9985,1,1,-0.508813,0.928535,9.691478,0.014362,-0.215038,-0.054238,-1.152348,0.082786,2.996016,0.479656,-1.255643,-0.013028,96.690514,176.840482,-179.271005,0.746981,-0.664243,0.024824,-0.013571,1234.559570,87898.046875,-1.540375,-0.795970,0.000000,-2.608765,-2.225841,26.375000,30.794857,1,2.890000,0, 202
365, 101,10177,10136,1,1,-0.580032,1.099933,10.182708,-0.038984,-0.099995,0.456793,-0.671822,-0.397740,4.437593,0.021060,-0.571630,-2.711663,96.694298,176.922103,-179.658537,0.746966,-0.664313,0.022046,-0.015623,1234.525391,87901.164062,-1.427266,-0.842733,0.000000,-2.642944,-2.263760,26.375000,30.790331,1,2.890000,0, 202
366, 101,10355,10278,1,1,-0.820761,1.240117,10.189074,-0.202833,0.019856,0.494010,-0.671822,0.563312,3.957067,0.740670,3.022273,-1.141954,96.793520,176.509778,-179.819838,0.747445,-0.663624,0.023815,-0.019045,1234.323853,87907.515625,-1.312033,-0.877496,0.000000,-2.844482,-2.316553,26.375000,30.776754,1,2.890000,0, 202
367, 101,10791,10781,1,1,-0.761749,1.142417,10.312622,-0.136481,-0.031923,0.601687,-1.632874,0.563312,1.554438,-2.518340,1.740400,0.821999,96.487637,176.542112,179.905707,0.745629,-0.665677,0.021959,-0.020706,1234.080200,87908.109375,-1.178277,-0.826614,0.000000,-3.088135,-2.602914,26.375000,30.831060,1,2.890000,0, 202
368, 101,10893,10781,1,1,-0.761749,1.142417,10.312622,-0.136481,-0.031923,0.601687,-1.632874,0.563312,1.554438,-2.518340,1.740400,0.821999,96.487637,176.542112,179.905707,0.745629,-0.665677,0.021959,-0.020706,1234.080200,87908.109375,-1.178277,-0.826614,0.000000,-3.088135,-2.602914,26.375000,30.831060,1,2.890000,0, 202
369, 101,11011,10908,1,1,-0.602920,1.088539,9.798851,0.011407,-0.004833,0.076538,-1.632874,1.043838,3.476542,-1.137365,1.146986,1.362814,96.350248,176.403801,-179.921512,0.744834,-0.666512,0.023839,-0.020414,1234.079468,87905.109375,-1.416670,-0.968974,0.000000,-3.088867,-2.678128,26.375000,30.831060,1,2.890000,0, 202
370, 101,11131,11086,1,1,-0.658851,1.101312,10.086767,-0.077936,-0.035052,0.366721,-2.593925,-1.358791,5.398644,0.379790,-1.749474,-0.464367,96.416009,176.705204,179.994514,0.745260,-0.666154,0.021402,-0.019195,1234.042847,87906.398438,-1.260963,-0.990603,0.000000,-3.125488,-2.718797,26.375000,30.781281,1,2.890000,0, 202
371, 101,11256,11232,1,1,-0.467372,1.005632,9.916060,0.134475,-0.143396,0.174938,-1.632874,0.082786,4.437593,1.278218,1.483276,2.133175,96.595097,176.496719,-179.716894,0.746309,-0.664893,0.024464,-0.018491,1234.104492,87903.281250,-1.010256,-0.992059,0.000000,-3.063843,-2.750165,26.375000,30.785807,1,2.890000,0, 202
372, 101,11466,11417,1,1,-0.407838,1.400031,10.040551,0.296497,0.282544,0.336620,-0.191296,2.965941,3.957067,-1.456419,3.067286,0.204682,96.324607,175.936165,-179.661542,0.744635,-0.666522,0.028385,-0.021451,1234.129395,87903.929688,-0.913685,-0.986253,0.000000,-3.038940,-2.776417,26.375000,30.799383,1,2.890000,0, 202
