b'echo: D dec: 68 
68
dumping data to serial
newfile
index, checksum,uptime mp,uptime nav,missiontime,  errorflag mp,errorflag NAV,  accel x, accel y, accel z, accelworld x, accelworld y, accelworld z, accelhighg x, accelhighg y, accelhighg z, gyro x, gyro y, gyro z, euler x, euler y, euler z, quat w, quat x, quat y, quat z, altitude, presusre, verticalvel,filtered vvel, maxalt, altitudeagl, filtered alt, imutemp, barotemp,state,battstate,pyros fired,pyros cont,pyros state, checksum2
newfile
index, checksum,uptime mp,uptime nav,missiontime,  errorflag mp,errorflag NAV,  accel x, accel y, accel z, accelworld x, accelworld y, accelworld z, accelhighg x, accelhighg y, accelhighg z, gyro x, gyro y, gyro z, euler x, euler y, euler z, quat w, quat x, quat y, quat z, altitude, presusre, verticalvel,filtered vvel, maxalt, altitudeagl, filtered alt, imutemp, barotemp,state,battstate,pyros fired,pyros cont,pyros state, checksum2
0, 101,76678,76660,1,1,1,2.017522,9.280396,0.131356,0.089828,-0.397211,-0.134637,1.250281,9.212777,-5.172924,0.836554,0.938820,1.825241,172.394630,-98.661475,-176.647366,0.755226,-0.069304,-0.648507,0.065341,1831.993164,81684.531250,-3.130601,0.543157,0.857422,0.354370,0.609723,17.875000,22.174292,0,2.900000,0,0,0, 202
1, 101,76778,76768,6,1,1,1.472599,9.500257,0.208163,-0.014383,0.276554,-0.189024,0.289230,8.732251,-4.211873,3.087897,9.188201,-0.468380,171.051842,-99.133912,-178.383955,0.758056,-0.068489,-0.645681,0.061289,1832.099609,81677.945312,-1.610087,-0.599256,0.857422,0.460815,0.496415,17.875000,22.165222,0,2.900000,0,0,0, 202
2, 101,76878,76877,14,1,1,2.060725,9.608527,0.321837,-0.109428,-0.327652,0.025222,1.250281,9.212777,-4.692398,-1.187919,-5.665878,-0.647243,173.678214,-98.731108,-175.936848,0.755976,-0.064870,-0.648348,0.062748,1832.030029,81681.726562,-0.475705,-0.308817,0.857422,0.391235,0.507786,17.875000,22.169758,0,2.900000,0,0,0, 202
3, 101,76977,76969,21,1,1,2.214908,9.625684,0.062579,0.376369,-0.551365,0.053840,0.769756,9.212777,-5.172924,-1.040191,4.615164,-0.564000,166.963100,-99.051936,176.580908,0.757645,-0.067079,-0.647196,0.051108,1832.258789,81678.921875,2.924694,0.356285,0.857422,0.619995,0.561197,17.875000,22.165222,0,2.900000,0,0,0, 202
4, 101,77077,77060,28,1,1,1.942540,9.664544,0.187556,0.015449,-0.143638,0.065657,1.250281,7.290674,-5.653450,-0.433410,-0.313227,0.806050,171.133750,-99.051397,-177.442659,0.757113,-0.073225,-0.645692,0.067085,1832.230225,81679.765625,-0.545636,0.263334,0.857422,0.591431,0.536408,17.875000,22.169758,0,2.900000,0,0,0, 202
5, 101,77177,77168,34,1,1,1.926606,9.688660,0.217893,-0.005925,0.034099,0.079699,0.769756,8.732251,-5.172924,0.361187,0.575820,1.366450,171.996867,-99.091818,-176.456489,0.757308,-0.073087,-0.645306,0.068726,1832.147461,81682.570312,-0.407902,0.184984,0.857422,0.508667,0.550483,17.875000,22.174292,0,2.900000,0,0,0, 202
6, 101,77277,77277,39,1,1,1.917122,9.656110,0.183784,0.001700,-0.003470,0.045297,1.730806,9.212777,-5.172924,-1.387362,-1.016498,-1.011388,173.242230,-99.183410,-175.463981,0.758013,-0.070452,-0.644820,0.068257,1832.264160,81678.500000,1.414426,0.224168,0.857422,0.625366,0.558340,17.875000,22.178825,0,2.890000,0,0,0, 202
7, 101,77378,77368,47,1,1,1.914651,9.662528,0.187739,-0.001835,-0.009796,0.051182,2.211333,9.212777,-4.692398,0.310110,0.614972,0.158863,173.295136,-99.223121,-175.465401,0.758246,-0.070490,-0.644553,0.068168,1832.356201,81678.500000,2.029772,0.809620,0.857422,0.717407,0.615947,17.875000,22.178825,0,2.900000,0,0,0, 202
8, 101,77478,77478,54,1,1,1.931570,9.637144,0.165149,0.032269,-0.027849,0.029105,1.730806,9.693303,-4.692398,-1.129141,2.001709,-0.587339,173.056722,-99.323156,-175.709321,0.758644,-0.070327,-0.643949,0.069593,1832.317627,81679.625000,1.093377,0.901649,0.857422,0.678833,0.639646,17.875000,22.174292,0,2.900000,0,0,0, 202
9, 101,77577,77568,59,1,1,1.938153,9.592062,0.101632,0.075239,-0.018846,-0.014867,1.250281,8.732251,-4.692398,-1.056983,-2.780125,-0.511947,173.726995,-99.302788,-174.947591,0.758677,-0.070153,-0.644000,0.068931,1832.327881,81678.500000,-0.507903,0.904115,0.857422,0.689087,0.713002,17.875000,22.178825,0,2.900000,0,0,0, 202
10, 101,77678,77676,65,1,1,1.989883,9.635475,0.201631,0.105605,-0.250033,0.036124,2.691859,7.771200,-4.692398,0.551533,-0.498539,-0.649456,170.326080,-99.266035,-179.416966,0.758911,-0.067528,-0.645039,0.058475,1832.293945,81677.804688,-0.002814,0.762617,0.857422,0.655151,0.713938,17.875000,22.169758,0,2.900000,0,0,0, 202
11, 101,77777,77767,73,1,1,1.894979,9.649587,0.217155,-0.003717,0.073486,0.035016,3.172385,9.693303,-5.172924,-0.539707,-0.953579,-0.661328,171.658295,-99.069865,-176.702226,0.757114,-0.073936,-0.645405,0.069015,1832.378906,81676.539062,0.673688,0.761758,0.857422,0.740112,0.694659,17.875000,22.178825,0,2.900000,0,0,0, 202
12, 101,77878,77877,80,1,1,1.948453,9.660729,0.204094,0.013380,-0.005089,0.056363,2.211333,8.732251,-5.172924,0.033384,0.262604,-2.031746,172.007113,-99.088478,-176.532304,0.757341,-0.072591,-0.645382,0.068168,1832.156860,81681.445312,-1.999335,0.490271,0.857422,0.518066,0.661118,17.875000,22.178825,0,2.900000,0,0,0, 202
13, 101,77978,77968,86,1,1,1.908345,9.606091,0.167926,-0.008355,0.006095,-0.005753,1.730806,10.654355,-5.172924,-1.682464,1.317881,-2.178420,173.985286,-99.003435,-174.662226,0.756968,-0.070050,-0.645970,0.069394,1832.202148,81679.625000,-0.398802,-0.198292,0.857422,0.563354,0.545165,17.875000,22.174292,0,2.900000,0,0,0, 202
14, 101,78279,78272,92,1,1,1.906113,9.638457,0.143241,0.081343,0.031588,0.024784,0.769756,8.732251,-4.692398,1.151892,0.438241,-0.946108,171.393598,-98.938022,-177.207755,0.756499,-0.072802,-0.646445,0.067214,1832.136108,81683.132812,-0.576590,0.223845,0.857422,0.497314,0.564995,17.875000,22.219635,0,2.900000,0,0,0, 202
15, 101,78380,78363,98,1,1,1.943164,9.662933,0.226729,-0.035837,0.043640,0.026389,1.730806,8.251725,-5.172924,-1.486480,3.711970,2.897668,172.754144,-98.951580,-175.781858,0.756587,-0.071865,-0.646264,0.068949,1832.228027,81678.781250,0.104174,0.041606,0.857422,0.589233,0.542675,17.875000,22.201498,0,2.900000,0,0,0, 202
16, 101,78480,78471,106,1,1,1.960977,9.649379,0.213888,-0.007486,-0.043734,0.047844,1.730806,9.212777,-5.172924,-0.412665,2.387563,-1.694614,172.593102,-99.048255,-176.072919,0.757209,-0.071300,-0.645708,0.067913,1832.013916,81684.812500,-1.644450,-0.199379,0.857422,0.375122,0.514300,17.875000,22.196964,0,2.900000,0,0,0, 202
17, 101,78580,78562,112,1,1,1.910563,9.664360,0.191502,-0.031993,0.000327,0.061618,0.769756,9.693303,-4.692398,-0.008424,-0.415406,0.892000,172.445993,-99.068212,-176.162518,0.757383,-0.072701,-0.645440,0.067030,1832.130859,81682.851562,1.408084,0.459227,0.857422,0.492065,0.533953,17.875000,22.196964,0,2.910000,0,0,0, 202
18, 101,78680,78670,118,1,1,1.889392,9.684789,0.205204,0.009133,0.041713,0.068408,1.250281,9.212777,-5.172924,0.170999,1.423231,-0.532016,171.858952,-99.087562,-176.770172,0.757491,-0.070521,-0.645608,0.066518,1832.113281,81680.187500,-0.546181,0.133149,0.857422,0.474487,0.511545,17.875000,22.187895,0,2.900000,0,0,0, 202
19, 101,78780,78779,125,1,1,1.945279,9.680160,0.144355,0.070078,-0.045559,0.073384,1.250281,9.212777,-5.172924,-0.808917,-0.050868,-0.491043,172.351928,-99.039205,-176.516130,0.756904,-0.069904,-0.645984,0.070105,1832.190186,81681.867188,0.699779,0.316921,0.857422,0.551392,0.526560,17.875000,22.196964,0,2.900000,0,0,0, 202
20, 101,78880,78869,133,1,1,2.008314,9.649330,0.132029,0.039041,-0.080799,0.055585,2.211333,9.212777,-5.172924,-1.241173,-0.527739,0.157969,174.137285,-99.027457,-174.532848,0.757119,-0.069775,-0.645823,0.069390,1832.194092,81679.203125,-0.375230,0.321516,0.857422,0.555298,0.552467,17.875000,22.187895,0,2.900000,0,0,0, 202
21, 101,78980,78979,140,1,1,1.938381,9.640578,0.107839,0.004514,-0.008117,0.033105,2.691859,9.212777,-4.692398,-0.585053,-1.679057,-1.323258,175.769126,-98.805305,-172.863373,0.755818,-0.068447,-0.647290,0.071200,1831.861694,81686.492188,-3.412513,0.085059,0.857422,0.222900,0.548511,17.875000,22.206032,0,2.900000,0,0,0, 202
22, 101,79080,79070,146,1,1,1.894597,9.680552,0.158227,-0.026034,0.046522,0.064333,1.730806,9.693303,-4.692398,0.720157,-1.769623,0.590145,174.660122,-98.741784,-173.914730,0.755438,-0.069829,-0.647660,0.070530,1832.042236,81681.867188,-0.168918,-1.194752,0.857422,0.403442,0.380945,17.875000,22.196964,0,2.910000,0,0,0, 202
23, 101,79180,79178,152,1,1,1.917647,9.641225,0.144254,0.088768,0.037596,0.029671,2.211333,9.212777,-5.172924,-0.457602,0.554025,1.794098,171.024235,-98.915810,-177.482370,0.756298,-0.073685,-0.646551,0.067493,1832.241455,81681.867188,2.852596,-0.043906,0.857422,0.602661,0.474533,17.875000,22.196964,0,2.900000,0,0,0, 202
24, 101,79280,79269,158,1,1,1.924150,9.651879,0.158218,0.115271,-0.022148,0.041377,3.172385,9.693303,-4.692398,-2.416998,1.863359,-1.574412,169.912772,-98.966654,-178.922474,0.756703,-0.072916,-0.646497,0.064233,1832.227783,81682.148438,0.346612,0.421088,0.857422,0.588989,0.516566,17.875000,22.187895,0,2.900000,0,0,0, 202
25, 101,79380,79378,165,1,1,1.950660,9.661401,0.184586,-0.001060,-0.066593,0.056859,1.250281,7.771200,-5.653450,1.022293,-0.039062,-1.855441,173.472134,-98.895982,-175.416866,0.756497,-0.069179,-0.646835,0.067318,1832.038330,81684.812500,-1.629923,0.169621,0.857422,0.399536,0.495796,17.875000,22.196964,0,2.900000,0,0,0, 202
26, 101,79480,79470,173,1,1,1.869790,9.680161,0.196512,-0.034376,0.061859,0.059793,1.250281,9.693303,-4.692398,0.874934,0.933511,0.018888,173.497624,-98.861176,-175.107131,0.756130,-0.070758,-0.646891,0.069223,1832.207520,81680.882812,1.308033,0.134986,0.857422,0.568726,0.555062,17.875000,22.196964,0,2.900000,0,0,0, 202
27, 101,79580,79578,177,1,1,1.920948,9.653336,0.208409,-0.043152,0.042962,0.043626,2.211333,9.693303,-4.692398,-0.447536,-0.604362,1.789355,173.539957,-98.955904,-174.841546,0.756532,-0.071980,-0.646124,0.070726,1832.202393,81679.906250,-0.802243,0.122886,0.857422,0.563599,0.551930,17.875000,22.196964,0,2.900000,0,0,0, 202
28, 101,79679,79669,185,1,1,1.944041,9.650784,0.203783,0.019726,0.003682,0.045728,2.211333,7.771200,-5.653450,-0.186405,-1.309295,-1.176321,171.692186,-99.051677,-176.813326,0.757100,-0.073082,-0.645617,0.068096,1832.190918,81681.726562,0.686933,0.423630,0.857422,0.552124,0.574435,17.875000,22.201498,0,2.900000,0,0,0, 202
29, 101,79780,79777,192,1,1,1.907902,9.688973,0.216579,-0.015813,-0.026193,0.076361,2.691859,9.212777,-4.692398,0.458613,-0.428089,0.688955,172.620928,-98.930256,-176.286759,0.756682,-0.069893,-0.646639,0.066372,1832.127075,81679.765625,-1.518242,-0.101127,0.857422,0.488281,0.511834,17.875000,22.201498,0,2.900000,0,0,0, 202
30, 101,79880,79868,199,1,1,1.884899,9.658194,0.203660,-0.009299,-0.018437,0.041489,1.730806,8.732251,-5.653450,0.628327,-2.340081,0.941545,172.798896,-98.935440,-176.169266,0.756721,-0.070295,-0.646550,0.066366,1832.109863,81681.585938,-0.701478,-0.296679,0.857422,0.471069,0.497538,18.000000,22.206032,0,2.900000,0,0,0, 202
31, 101,79979,79977,205,1,1,1.957779,9.673967,0.169714,0.037020,-0.077646,0.070167,0.769756,8.732251,-5.172924,0.847129,-3.574341,-0.225005,172.595875,-98.796166,-176.355334,0.755582,-0.071233,-0.647433,0.069661,1832.073242,81681.867188,-0.713352,-0.431816,0.857422,0.434448,0.473764,18.000000,22.196964,0,2.900000,0,0,0, 202
32, 101,80079,80067,211,1,1,1.936046,9.683982,0.252890,-0.079889,0.006898,0.077527,1.250281,8.732251,-4.692398,0.240297,-0.845339,-0.307372,173.331295,-98.773654,-175.175911,0.755572,-0.071463,-0.647413,0.069721,1832.040771,81681.726562,-1.161832,-0.425895,0.857422,0.401978,0.438770,18.000000,22.201498,0,2.900000,0,0,0, 202
33, 101,80179,80177,217,1,1,1.929475,9.652365,0.187088,-0.012584,0.008500,0.044090,1.250281,9.212777,-5.172924,2.150621,-3.337285,1.793553,173.151497,-98.617782,-175.407837,0.754714,-0.071326,-0.648480,0.069234,1832.147461,81681.585938,1.298458,-0.695601,0.857422,0.508667,0.404982,18.000000,22.206032,0,2.900000,0,0,0, 202
34, 101,80279,80268,225,1,1,1.978052,9.655432,0.220253,-0.054555,-0.006917,0.057273,1.730806,10.173829,-5.172924,0.034187,0.562806,2.460199,173.554465,-98.589348,-174.788871,0.754426,-0.072174,-0.648527,0.071033,1832.249023,81678.781250,1.116935,-0.087391,0.857422,0.610229,0.467825,18.000000,22.201498,0,2.900000,0,0,0, 202
35, 101,80380,80377,230,1,1,1.922553,9.650605,0.167478,0.010587,0.032697,0.040609,2.691859,9.212777,-4.692398,-0.446268,-0.807978,-1.452354,172.868837,-98.604975,-175.605857,0.754584,-0.072066,-0.648517,0.069532,1832.107178,81680.609375,-1.525452,0.538432,0.857422,0.468384,0.572518,18.000000,22.206032,0,2.900000,0,0,0, 202
36, 101,80480,80468,236,1,1,1.958041,9.763788,0.204527,-0.030718,-0.018727,0.159222,2.211333,8.732251,-4.692398,0.406697,-1.978929,1.314047,173.300368,-98.482394,-175.367948,0.754011,-0.070562,-0.649440,0.068676,1832.107422,81683.406250,-0.299113,-0.229898,0.857422,0.468628,0.489998,18.000000,22.210567,0,2.900000,0,0,0, 202
37, 101,80580,80577,244,1,1,1.969786,9.647012,0.186401,0.031963,-0.049764,0.046646,2.691859,8.251725,-5.172924,-1.208419,2.165255,-0.265477,171.660112,-98.484819,-177.023149,0.753985,-0.071975,-0.649481,0.067080,1832.084229,81681.585938,-0.900266,-0.908877,0.857422,0.445435,0.361293,18.000000,22.206032,0,2.900000,0,0,0, 202
38, 101,80680,80668,250,1,1,1.413523,10.612577,0.062425,0.104298,0.416784,0.896858,5.094488,8.251725,-2.770295,12.026085,46.895983,-8.628027,172.295866,-99.318839,-177.904462,0.759566,-0.063007,-0.644823,0.057387,1832.281006,81678.781250,2.682478,0.085697,0.857422,0.642212,0.430600,18.000000,22.201498,0,2.900000,0,0,0, 202
39, 101,80779,80777,256,1,1,1.823880,8.338189,0.156515,0.050850,0.159286,-1.265868,1.730806,7.771200,-4.692398,54.526145,-27.756410,-15.180060,171.638925,-100.983343,-174.885846,0.766644,-0.084496,-0.631357,0.080662,1832.305054,81681.171875,1.287712,0.587592,0.857422,0.666260,0.516870,18.000000,22.219635,0,2.900000,0,0,0, 202
40, 101,80880,80868,262,1,1,2.023063,9.225322,0.317197,0.026019,-0.132035,-0.352093,3.172385,9.212777,-4.211873,8.566742,1.185852,-2.330266,169.724504,-100.882604,-178.542087,0.767087,-0.077105,-0.633380,0.066796,1832.093994,81682.570312,-2.228217,-0.075093,0.857422,0.455200,0.495149,18.000000,22.206032,0,2.900000,0,0,0, 202
41, 101,80979,80977,268,1,1,1.899760,9.695403,0.077196,0.181927,0.083004,0.077052,1.250281,10.173829,-5.172924,-1.820284,-3.143859,2.244824,171.550651,-100.771484,-176.938291,0.766732,-0.073718,-0.634140,0.067479,1832.309814,81677.382812,1.862649,-0.001655,0.857422,0.671021,0.529507,18.000000,22.215101,0,2.900000,0,0,0, 202
42, 101,81080,81067,275,1,1,1.893192,9.671695,0.219685,0.028943,0.051078,0.056519,2.211333,8.251725,-5.172924,1.251461,1.883661,-0.886069,171.986786,-100.804481,-176.537044,0.767036,-0.070400,-0.634171,0.067275,1832.104736,81680.468750,-1.704380,-0.554908,0.857422,0.465942,0.505587,17.875000,22.210567,0,2.900000,0,0,0, 202
43, 101,81179,81176,282,1,1,2.021447,9.629358,0.309831,-0.047331,-0.157891,0.041744,1.730806,9.212777,-5.172924,0.119661,-2.163187,-0.036834,172.671704,-100.747640,-176.198008,0.766486,-0.077216,-0.633841,0.069153,1832.111938,81681.304688,0.346792,-0.262465,0.857422,0.473145,0.493361,17.875000,22.215101,0,2.900000,0,0,0, 202
44, 101,81280,81267,287,1,1,2.028829,9.652864,0.171673,0.136315,0.005566,0.063319,1.250281,8.251725,-5.172924,0.156750,0.622573,0.213511,170.491262,-100.844253,-177.587582,0.766825,-0.077235,-0.633449,0.068965,1832.156250,81682.289062,0.854370,-0.258717,0.857422,0.517456,0.472178,17.875000,22.215101,0,2.900000,0,0,0, 202
45, 101,81379,81375,294,1,1,1.991696,9.645780,0.184655,0.018117,0.005300,0.049972,1.730806,9.693303,-4.211873,0.983948,-0.227138,1.882152,173.670155,-100.795957,-174.541345,0.766767,-0.072798,-0.633731,0.071787,1832.217285,81682.148438,1.454168,0.281826,0.857422,0.578491,0.543312,17.875000,22.219635,0,2.900000,0,0,0, 202
46, 101,81480,81466,302,1,1,1.981131,9.649024,0.216590,-0.006878,0.060432,0.051500,1.250281,8.251725,-5.172924,-1.114794,-1.006751,0.858431,173.069357,-100.712102,-174.855479,0.766111,-0.075078,-0.634118,0.073021,1832.319580,81678.367188,0.794060,0.734894,0.857422,0.680786,0.634512,17.875000,22.215101,0,2.910000,0,0,0, 202
47, 101,81579,81575,309,1,1,1.955194,9.643893,0.185395,0.043447,0.036586,0.040677,1.250281,9.693303,-5.653450,-1.755489,0.966501,-1.751627,172.591312,-100.662563,-175.658423,0.766027,-0.073825,-0.634673,0.070309,1832.225830,81680.046875,-1.310561,0.358693,0.857422,0.587036,0.594691,17.875000,22.224171,0,2.900000,0,0,0, 202
48, 101,81679,81666,315,1,1,1.943300,9.658947,0.192534,0.057167,0.001756,0.053211,2.211333,8.251725,-5.172924,-1.309560,-2.721678,1.836424,172.090919,-100.583592,-176.451080,0.765744,-0.072766,-0.635408,0.067804,1832.128418,81679.203125,-1.608053,0.038632,0.857422,0.489624,0.520739,17.875000,22.219635,0,2.900000,0,0,0, 202
49, 101,81780,81774,321,1,1,1.960889,9.664431,0.211409,0.004573,0.010930,0.062613,1.250281,8.251725,-4.211873,-0.308679,0.829701,0.554185,173.080846,-100.566278,-175.275864,0.765568,-0.072666,-0.635375,0.070172,1831.937500,81684.953125,-1.615803,-0.051404,0.857422,0.298706,0.527529,17.875000,22.224171,0,2.900000,0,0,0, 202
50, 101,81880,81865,326,1,1,1.922919,9.679770,0.209184,0.007626,0.022305,0.070107,2.211333,8.251725,-4.692398,-0.674567,0.234467,-0.034097,172.981876,-100.545473,-175.545724,0.765553,-0.071829,-0.635624,0.068921,1831.843018,81687.898438,-1.331857,-0.530792,0.857422,0.204224,0.455306,17.875000,22.224171,0,2.900000,0,0,0, 202
51, 101,81980,81974,334,1,1,1.960771,9.653421,0.187153,-0.010908,0.014200,0.051303,1.250281,9.212777,-5.172924,1.090246,-1.483150,0.894977,174.196325,-100.348231,-174.135769,0.764347,-0.071548,-0.636809,0.071615,1832.006348,81683.968750,1.845068,-0.018169,0.857422,0.367554,0.489960,17.875000,22.224171,0,2.900000,0,0,0, 202
52, 101,82079,82065,340,1,1,1.931451,9.684204,0.193913,-0.004564,0.023785,0.075808,1.250281,8.251725,-5.172924,0.095093,-1.531601,2.028258,173.765067,-100.402975,-174.713452,0.764742,-0.071214,-0.636536,0.070153,1832.273438,81678.085938,2.362592,0.410144,0.857422,0.634644,0.524648,17.875000,22.224171,0,2.890000,0,0,0, 202
53, 101,82180,82174,346,1,1,1.931358,9.660832,0.213811,0.001649,0.032516,0.053262,0.769756,8.251725,-5.653450,0.269143,1.187875,-0.970692,172.948764,-100.542878,-175.443832,0.765456,-0.072615,-0.635557,0.069786,1832.125732,81681.031250,-0.986104,-0.040692,0.857422,0.486938,0.501483,17.875000,22.224171,0,2.900000,0,0,0, 202
54, 101,82280,82265,352,1,1,1.989659,9.657721,0.210256,0.001178,-0.020513,0.061763,1.250281,9.693303,-4.692398,2.780183,-2.997486,-0.653016,173.341377,-100.464590,-175.026248,0.764941,-0.072988,-0.635996,0.071046,1832.376221,81677.242188,2.372516,0.741202,0.857422,0.737427,0.590831,17.875000,22.219635,0,2.900000,0,0,0, 202
55, 101,82380,82374,360,1,1,1.952634,9.691538,0.224043,-0.010858,0.020292,0.087799,1.250281,8.732251,-4.692398,-0.968585,0.358564,-2.905010,173.032188,-100.421949,-175.335614,0.764869,-0.072258,-0.636379,0.069103,1832.182373,81680.046875,-1.674978,-0.042424,0.857422,0.543579,0.573025,17.875000,22.224171,0,2.900000,0,0,0, 202
56, 101,82480,82465,367,1,1,1.960516,9.654973,0.214708,-0.011205,-0.006417,0.053342,1.250281,9.212777,-5.172924,0.707758,2.958614,0.588523,173.479551,-100.427393,-174.960377,0.764851,-0.071748,-0.636351,0.070088,1832.272217,81676.125000,0.470949,-0.037356,0.857422,0.633423,0.569738,17.875000,22.224171,0,2.900000,0,0,0, 202
57, 101,82580,82574,373,1,1,1.922272,9.667940,0.204845,0.014303,0.026471,0.058272,0.769756,8.251725,-5.172924,-0.605525,0.302632,-2.760291,172.795508,-100.421539,-175.704991,0.764840,-0.072178,-0.636443,0.068918,1832.246338,81679.765625,0.214305,0.507473,0.857422,0.607544,0.656233,17.875000,22.233238,0,2.900000,0,0,0, 202
58, 101,82679,82664,379,1,1,1.956799,9.639103,0.194719,0.016014,-0.024674,0.036602,1.250281,7.771200,-5.172924,0.743867,-0.868537,0.987241,173.307676,-100.354829,-175.266916,0.764524,-0.071189,-0.636924,0.069008,1832.125000,81682.429688,-0.436441,0.485098,0.857422,0.486206,0.664067,17.875000,22.242308,0,2.900000,0,0,0, 202
59, 101,82779,82774,385,1,1,1.852008,9.506077,0.186653,-0.198502,0.245333,-0.119539,0.289230,8.251725,-5.653450,-1.389323,-5.339587,-0.215675,178.846127,-100.064382,-168.477162,0.761846,-0.072159,-0.638305,0.083368,1832.053955,81682.710938,-1.879112,-0.247091,0.857422,0.415161,0.573910,17.875000,22.233238,0,2.900000,0,0,0, 202
60, 101,83198,83169,396,1,1,1.769265,9.704084,0.293527,-0.118266,0.016534,0.066697,2.691859,8.732251,-3.731347,-1.096585,-0.005669,0.528050,172.871678,-98.402289,-176.525174,0.753965,-0.066811,-0.650415,0.063508,1832.035400,81682.984375,-0.614226,-0.701058,0.857422,0.396606,0.456564,17.875000,22.160688,2,2.900000,0,0,0, 202
61, 101,83410,83396,606,1,1,1.928985,9.675341,0.187030,0.036950,-0.110207,0.065847,2.691859,8.732251,-4.692398,-0.955755,-0.545877,0.974612,171.813777,-98.491840,-177.486919,0.754383,-0.068336,-0.649806,0.063154,1832.121338,81681.171875,1.199363,0.078860,0.857422,0.482544,0.447072,17.875000,22.251375,2,2.900000,0,0,0, 202
62, 101,83515,83513,710,1,1,2.290402,9.662477,0.243952,0.039440,-0.460174,0.121479,2.691859,7.771200,-4.692398,-2.244152,-11.753085,-0.247344,170.828536,-97.990812,-178.410784,0.751441,-0.069400,-0.653120,0.062884,1832.049561,81683.414062,-0.322593,0.337372,0.857422,0.410767,0.460190,17.875000,22.242308,2,2.900000,0,0,0, 202
63, 101,83620,83613,815,1,1,1.937721,9.622292,0.202404,0.045799,-0.120081,0.015706,1.730806,9.212777,-5.653450,-0.136897,-1.718216,0.961976,170.022205,-97.828178,-179.231308,0.750469,-0.069936,-0.654246,0.062187,1832.364258,81676.125000,1.725538,0.786636,0.857422,0.725464,0.556786,18.000000,22.224171,2,2.900000,0,0,0, 202
64, 101,83724,83713,919,1,1,1.825317,9.677251,0.210759,0.036410,-0.025887,0.049045,1.730806,7.290674,-5.172924,0.545838,-1.367665,-1.264804,169.536988,-97.819497,-179.863852,0.750464,-0.069498,-0.654427,0.060820,1832.302002,81678.226562,0.717555,0.766899,0.857422,0.663208,0.592411,18.000000,22.251375,2,2.900000,0,0,0, 202
65, 101,83829,83829,1024,1,1,2.022622,9.626714,0.178749,0.096011,-0.212644,0.034758,1.250281,9.693303,-5.172924,-1.136531,-0.426379,0.509759,169.105457,-97.612187,179.763831,0.749214,-0.070082,-0.655781,0.060978,1832.214111,81681.445312,0.167628,0.572541,0.857422,0.575317,0.585969,18.000000,22.242308,2,2.900000,0,0,0, 202
66, 101,83934,83927,1129,1,1,2.377045,9.598636,0.146526,0.189984,-0.554312,0.071298,2.211333,6.329622,-4.692398,2.766621,6.050505,-1.050887,168.482339,-97.652396,179.161504,0.749380,-0.070734,-0.655558,0.060578,1832.233643,81679.765625,-0.286662,0.576415,0.857422,0.594849,0.636476,18.000000,22.233238,2,2.900000,0,0,0, 202
67, 101,84038,84027,1234,1,1,1.940780,9.640029,0.225178,0.057266,-0.139885,0.033869,1.250281,10.173829,-5.172924,1.088135,3.901199,-0.853652,168.647903,-97.815925,179.281278,0.750353,-0.070436,-0.654503,0.060301,1832.073975,81686.078125,-0.061480,0.567942,0.857422,0.435181,0.633222,18.000000,22.251375,2,2.900000,0,0,0, 202
68, 101,84142,84126,1338,1,1,1.903240,9.683000,0.200107,0.089498,-0.144912,0.044123,1.250281,9.212777,-5.172924,-0.335365,0.270856,0.897314,169.040092,-97.859317,179.613170,0.750665,-0.069788,-0.654222,0.060207,1832.294800,81677.664062,0.968701,0.092595,0.857422,0.656006,0.572451,18.000000,22.237774,2,2.900000,0,0,0, 202
69, 101,84411,84402,1606,1,1,1.901871,9.696273,0.231590,0.048183,-0.103118,0.082092,2.211333,9.212777,-3.250821,0.066340,0.986804,-2.972265,168.796132,-97.942181,179.367980,0.751118,-0.070035,-0.653701,0.059938,1832.215576,81678.367188,-2.924171,-0.989964,0.857422,0.576782,0.608985,18.000000,22.278582,2,2.900000,0,0,0, 202
70, 101,84515,84497,1710,1,1,1.928881,9.657899,0.187048,0.111916,-0.202857,0.050057,1.730806,10.654355,-5.172924,-1.814930,-1.505420,-0.684774,169.068328,-97.914184,179.591396,0.751007,-0.069510,-0.653890,0.059867,1831.927002,81688.460938,-2.014335,-0.984392,0.857422,0.288208,0.526224,18.000000,22.269514,2,2.900000,0,0,0, 202
71, 101,84620,84615,1815,1,1,1.961250,9.657069,0.200098,0.073736,-0.162831,0.053622,1.730806,9.693303,-5.653450,1.640807,-1.247105,1.152756,169.188034,-97.816109,179.770579,0.750426,-0.069693,-0.654487,0.060421,1832.191162,81681.171875,1.005613,-0.657105,0.857422,0.552368,0.509610,18.000000,22.251375,2,2.900000,0,0,0, 202
72, 101,84725,84715,1920,1,1,1.971809,9.667991,0.193841,0.082434,-0.175379,0.066021,2.211333,8.732251,-5.172924,-0.512966,0.555853,-1.758168,168.998838,-97.705057,179.550661,0.749793,-0.069612,-0.655247,0.060134,1832.233398,81681.171875,1.712819,0.020016,0.857422,0.594604,0.538062,18.000000,22.251375,2,2.900000,0,0,0, 202
73, 101,84828,84812,2024,1,1,1.898344,9.590476,0.200324,0.063795,-0.109728,-0.017197,2.691859,8.251725,-5.172924,0.927601,-1.904311,0.874211,169.138638,-97.701737,179.584962,0.749840,-0.068892,-0.655321,0.059561,1832.153564,81679.484375,-0.967007,0.024509,0.857422,0.514771,0.539965,18.000000,22.242308,2,2.900000,0,0,0, 202
74, 101,84933,84931,2129,1,1,1.646998,9.723547,0.242248,0.003108,0.108681,0.063422,-0.671822,7.771200,-5.653450,-1.899126,-1.388216,-3.787016,168.766188,-97.767744,179.103789,0.750241,-0.068618,-0.654987,0.058497,1832.239258,81678.789062,0.915889,-0.298410,0.857422,0.600464,0.503979,18.000000,22.233238,2,2.900000,0,0,0, 202
75, 101,85038,85031,2233,1,1,2.256978,9.599094,0.268667,0.050761,-0.519477,0.049701,0.769756,8.732251,-5.172924,-2.067080,-4.178753,-1.649701,166.744274,-96.628353,177.027247,0.743553,-0.069032,-0.662615,0.057492,1832.095337,81681.445312,-0.909995,0.104413,0.857422,0.456543,0.559234,18.000000,22.242308,2,2.900000,0,0,0, 202
76, 101,85143,85131,2338,1,1,1.927915,9.697566,0.245876,0.025054,-0.187544,0.087594,0.769756,8.251725,-5.172924,1.158426,-4.004499,-0.286465,166.814776,-96.376182,177.041358,0.742138,-0.068445,-0.664267,0.057402,1832.189209,81679.765625,-0.032549,-0.669292,0.857422,0.550415,0.462571,18.000000,22.264978,2,2.900000,0,0,0, 202
77, 101,85413,85406,2609,1,1,1.956898,9.635865,0.203196,0.092788,-0.229837,0.030541,2.211333,8.732251,-4.692398,-0.782591,0.076272,2.253175,165.540945,-96.334819,175.715783,0.741794,-0.068969,-0.664697,0.056245,1832.008057,81684.671875,-1.982218,-0.609265,0.857422,0.369263,0.484431,18.000000,22.296719,2,2.900000,0,0,0, 202
78, 101,85518,85502,2713,1,1,2.001563,9.652440,0.134543,0.157403,-0.270446,0.052732,1.250281,9.212777,-5.172924,1.717338,-2.816520,-0.807124,165.670937,-96.186159,175.806897,0.740973,-0.068513,-0.665659,0.056233,1832.097778,81680.328125,-0.746905,-0.607324,0.857422,0.458984,0.432527,18.000000,22.278582,2,2.900000,0,0,0, 202
79, 101,85622,85620,2818,1,1,2.011925,9.644491,0.238973,0.053077,-0.299177,0.049322,2.691859,4.888044,-5.172924,-0.412808,1.900066,-0.387671,165.650857,-96.132344,175.750234,0.740679,-0.068262,-0.666028,0.056038,1832.377686,81676.125000,2.129589,-0.372695,0.857422,0.738892,0.468059,18.000000,22.255911,2,2.900000,0,0,0, 202
80, 101,85727,85720,2922,1,1,2.125918,9.668677,-0.049548,0.331379,-0.370706,0.086268,2.691859,8.732251,-3.731347,1.525122,1.196935,-1.416040,166.545707,-96.039864,176.687172,0.740216,-0.067843,-0.666507,0.056980,1832.261719,81678.226562,0.371870,0.477383,0.857422,0.622925,0.622133,18.000000,22.251375,2,2.900000,0,0,0, 202
newfile
index, checksum,uptime mp,uptime nav,missiontime,  errorflag mp,errorflag NAV,  accel x, accel y, accel z, accelworld x, accelworld y, accelworld z, accelhighg x, accelhighg y, accelhighg z, gyro x, gyro y, gyro z, euler x, euler y, euler z, quat w, quat x, quat y, quat z, altitude, presusre, verticalvel,filtered vvel, maxalt, altitudeagl, filtered alt, imutemp, barotemp,state,battstate,pyros fired,pyros cont,pyros state, checksum2
81, 101,121741,121720,1,1,1,1.470287,9.489303,0.765453,-0.739417,0.621755,-0.216575,1.250281,9.212777,-4.692398,-1.047990,-6.713449,4.892367,174.545102,-95.878480,-172.474953,0.742235,-0.080636,-0.664321,0.035517,1832.355225,81681.546875,-0.520857,0.093021,1.171997,0.716431,0.754138,18.375000,22.586905,0,2.900000,0,0,0, 202
82, 101,121842,121831,7,1,1,1.962150,9.638716,0.173147,0.578638,-0.327474,0.014436,1.250281,9.212777,-4.692398,-1.294727,-0.491004,1.391322,145.620412,-97.383369,155.093160,0.740298,-0.074304,-0.664956,0.065350,1832.312012,81680.562500,-0.632538,-0.082872,1.171997,0.673218,0.730840,18.375000,22.586905,0,2.900000,0,0,0, 202
83, 101,121945,121938,13,1,1,1.914367,9.715391,0.152108,0.076829,0.045472,0.101969,1.250281,9.212777,-4.692398,-0.281096,1.126004,0.194359,167.334621,-96.167076,178.767661,0.740248,-0.071081,-0.665206,0.066939,1832.190674,81683.085938,-1.084352,-0.325655,1.171997,0.551880,0.679349,18.375000,22.600506,0,2.900000,0,0,0, 202
84, 101,122053,122048,22,1,1,1.884506,9.686713,0.217111,-0.034774,0.021720,0.069625,1.250281,9.212777,-4.692398,-1.852463,3.505314,-0.649398,170.314401,-96.393995,-178.469851,0.742137,-0.072112,-0.663243,0.064353,1832.266602,81679.437500,-1.061429,-0.504025,1.171997,0.627808,0.664513,18.375000,22.591438,0,2.900000,0,0,0, 202
85, 101,122155,122131,28,1,1,1.922784,9.661167,0.225614,-0.011605,-0.059192,0.052046,1.250281,9.212777,-4.692398,0.750438,0.092362,-2.099890,169.033754,-96.360357,-179.979241,0.741662,-0.073687,-0.663514,0.065249,1832.175781,81680.140625,-0.176179,-0.424547,1.171997,0.536987,0.627813,18.375000,22.600506,0,2.900000,0,0,0, 202
86, 101,122285,122265,34,1,1,1.927961,9.674185,0.263994,-0.017795,-0.019997,0.066921,1.250281,9.212777,-4.692398,-1.582163,0.579633,0.590861,167.145876,-96.385089,178.389515,0.741664,-0.075334,-0.663428,0.064208,1832.118042,81682.242188,-0.853893,-0.528631,1.171997,0.479248,0.585070,18.375000,22.595972,0,2.900000,0,0,0, 202
87, 101,122385,122375,40,1,1,1.936984,9.657646,0.175716,0.093029,-0.002375,0.050104,1.250281,9.212777,-4.692398,-0.634495,-0.342940,-0.000956,165.953093,-96.433187,177.306547,0.741497,-0.072871,-0.663585,0.067282,1832.505615,81675.367188,1.968684,0.076779,1.171997,0.866821,0.666200,18.375000,22.595972,0,2.900000,0,0,0, 202
88, 101,122487,122482,49,1,1,1.722856,9.731209,0.570343,-0.404612,0.196539,0.087762,1.250281,9.212777,-4.692398,-0.696342,2.954795,-3.080102,169.967454,-96.314458,-178.546049,0.743074,-0.079136,-0.662767,0.048156,1832.438477,81677.476562,1.474630,0.415652,1.171997,0.799683,0.704607,18.375000,22.591438,0,2.890000,0,0,0, 202
89, 101,122596,122594,56,1,1,1.894918,9.568090,0.031162,0.520333,-0.132212,-0.061810,1.250281,9.212777,-4.692398,-1.632968,-9.510952,1.519217,152.787930,-96.882081,163.059824,0.740483,-0.067704,-0.665077,0.069097,1832.361084,81681.265625,0.078615,0.333946,1.171997,0.722290,0.709698,18.375000,22.595972,0,2.910000,0,0,0, 202
90, 101,122698,122677,61,1,1,2.065309,9.660909,0.142892,0.028713,-0.195441,0.014849,1.250281,9.212777,-4.692398,0.839309,-0.844943,-1.778491,175.099577,-96.042083,-173.782265,0.740067,-0.067975,-0.665539,0.068832,1832.492065,81679.296875,0.494011,0.332058,1.171997,0.853271,0.735219,18.375000,22.595972,0,2.900000,0,0,0, 202
91, 101,122800,122785,67,1,1,1.965827,9.648232,0.240851,-0.088610,0.057106,0.047846,1.250281,9.212777,-4.692398,-1.977253,2.465373,-0.310015,171.403734,-96.194663,-176.645016,0.740404,-0.075253,-0.664071,0.071759,1832.463745,81679.296875,0.668705,0.376568,1.171997,0.824951,0.778436,18.375000,22.595972,0,2.900000,0,0,0, 202
92, 101,122913,122893,76,1,1,1.924769,9.670430,0.218555,-0.012498,0.042006,0.061444,1.250281,9.212777,-4.692398,-0.403266,0.274736,-1.492706,168.737952,-96.278401,-179.688904,0.740994,-0.074881,-0.663902,0.067491,1832.202759,81682.945312,-1.836337,0.305581,1.171997,0.563965,0.792069,18.375000,22.605040,0,2.900000,0,0,0, 202
93, 101,123014,123004,84,1,1,1.946464,9.652994,0.203818,-0.012858,-0.010638,0.048380,1.250281,9.212777,-4.692398,-0.464570,0.314894,-0.998974,169.912826,-96.319519,-178.680098,0.741398,-0.073145,-0.663675,0.067187,1832.228760,81680.835938,-1.589021,-0.286638,1.171997,0.589966,0.684075,18.375000,22.609573,0,2.910000,0,0,0, 202
94, 101,123144,123141,91,1,1,1.943129,9.653131,0.181838,0.018231,0.029813,0.047378,1.250281,9.212777,-4.692398,-0.385722,-3.350341,-0.237056,169.091373,-96.257781,-179.302779,0.740921,-0.073259,-0.664146,0.067665,1832.394531,81678.031250,1.269730,0.033534,1.171997,0.755737,0.719773,18.375000,22.605040,0,2.900000,0,0,0, 202
95, 101,123245,123224,97,1,1,1.922757,9.663988,0.256891,-0.164879,0.084203,0.057858,1.250281,9.212777,-4.692398,0.813641,-1.455431,0.177409,170.198260,-96.057404,-178.305558,0.739836,-0.073362,-0.665301,0.068080,1832.382812,81679.015625,0.633433,0.039868,1.171997,0.744019,0.722403,18.375000,22.605040,0,2.900000,0,0,0, 202
96, 101,123347,123333,103,1,1,1.913439,9.632117,0.198118,0.057292,0.010939,0.021158,1.250281,9.212777,-4.692398,-1.231952,-1.807295,-0.080833,165.684980,-96.055867,177.026564,0.739591,-0.075387,-0.665737,0.064160,1832.181519,81680.976562,-1.321617,0.183336,1.171997,0.542725,0.740133,18.375000,22.605040,0,2.900000,0,0,0, 202
97, 101,123459,123441,109,1,1,1.981997,9.653058,0.221568,-0.063743,-0.038276,0.055643,1.250281,9.212777,-4.692398,0.776041,-1.334836,0.445284,171.158243,-95.845695,-177.377718,0.738659,-0.072487,-0.666653,0.068575,1832.391846,81677.195312,0.219816,-0.196905,1.171997,0.753052,0.673540,18.375000,22.600506,0,2.900000,0,0,0, 202
98, 101,123560,123550,118,1,1,1.962937,9.626422,0.150517,0.079967,-0.036770,0.024275,1.250281,9.212777,-4.692398,0.235792,0.090961,-0.204024,167.207430,-95.971275,178.539178,0.739243,-0.074285,-0.666152,0.065146,1832.537231,81677.054688,1.866634,0.079094,1.171997,0.898438,0.725584,18.375000,22.605040,0,2.900000,0,0,0, 202
99, 101,123663,123657,124,1,1,1.989627,9.657667,0.196293,0.052096,-0.014676,0.061289,1.250281,9.212777,-4.692398,0.227896,-3.482348,1.611336,165.567747,-95.760181,177.164233,0.737727,-0.076680,-0.667474,0.066012,1832.603516,81676.070312,1.000768,0.375924,1.171997,0.964722,0.758154,18.375000,22.605040,0,2.900000,0,0,0, 202
100, 101,123771,123768,130,1,1,1.976092,9.644970,0.215614,-0.034773,0.024517,0.046592,1.250281,9.212777,-4.692398,0.054006,1.913070,0.091411,169.032798,-95.616733,-179.175656,0.737031,-0.075609,-0.668012,0.069484,1832.529053,81681.679688,1.027407,0.551070,1.171997,0.890259,0.858069,18.375000,22.614109,0,2.900000,0,0,0, 202
101, 101,123872,123851,137,1,1,1.990878,9.648746,0.216228,0.003911,0.023590,0.068998,1.250281,9.212777,-4.692398,0.575460,0.085823,-1.239866,167.151504,-95.660296,178.795269,0.737253,-0.075910,-0.667950,0.067368,1832.580933,81675.085938,-0.647573,0.527780,1.171997,0.942139,0.858974,18.375000,22.605040,0,2.900000,0,0,0, 202
102, 101,123975,123959,146,1,1,1.929814,9.664243,0.194954,0.007898,0.032230,0.055910,1.250281,9.212777,-4.692398,0.245574,-1.059336,0.440952,167.741701,-95.646499,179.274120,0.737280,-0.074894,-0.668070,0.067019,1832.488770,81678.031250,-0.532355,0.269294,1.171997,0.849976,0.851592,18.375000,22.605040,0,2.900000,0,0,0, 202
103, 101,124085,124065,153,1,1,1.981873,9.666557,0.158184,0.039324,-0.052252,0.067683,1.250281,9.212777,-4.692398,-0.329342,0.643656,1.299876,168.577579,-95.646014,179.893973,0.737457,-0.073129,-0.668158,0.066134,1832.406250,81677.750000,-0.715382,0.119022,1.171997,0.767456,0.852288,18.375000,22.614109,0,2.900000,0,0,0, 202
104, 101,124187,124175,161,1,1,1.965424,9.649928,0.198271,-0.013388,0.001926,0.049032,1.250281,9.212777,-4.692398,-1.104860,-0.891108,-0.995068,168.817496,-95.561416,-179.600521,0.736822,-0.074486,-0.668517,0.068040,1832.484375,81675.789062,-0.528548,-0.226983,1.171997,0.845581,0.793472,18.375000,22.614109,0,2.900000,0,0,0, 202
105, 101,124315,124308,167,1,1,2.004775,9.672602,0.191348,-0.006082,-0.046316,0.078918,1.250281,9.212777,-4.692398,1.905649,-1.251346,-0.030421,168.934347,-95.475868,-179.571042,0.736381,-0.073861,-0.669118,0.067599,1832.436279,81676.906250,0.047388,-0.103520,1.171997,0.797485,0.807992,18.375000,22.609573,0,2.900000,0,0,0, 202
106, 101,124417,124417,173,1,1,1.986744,9.651185,0.217377,-0.013646,-0.006896,0.054940,1.250281,9.212777,-4.692398,-1.426752,2.143814,-3.300464,167.670776,-95.539224,179.326289,0.736578,-0.075583,-0.668683,0.067846,1832.569824,81676.765625,1.057705,-0.095808,1.171997,0.931030,0.806726,18.375000,22.614109,0,2.900000,0,0,0, 202
107, 101,124546,124526,183,1,1,1.927437,9.646283,0.175810,0.009418,0.039005,0.037450,1.250281,9.212777,-4.692398,0.377847,1.272584,-0.375343,168.637521,-95.592951,-179.789348,0.737001,-0.074560,-0.668331,0.067856,1832.434448,81675.789062,-0.806868,0.094895,1.171997,0.795654,0.812561,18.375000,22.614109,0,2.900000,0,0,0, 202
108, 101,124647,124637,188,1,1,1.974351,9.626108,0.193271,-0.047041,-0.014051,0.027274,1.250281,9.212777,-4.692398,-1.892483,-0.405449,-0.054807,171.254303,-95.572180,-177.169397,0.736995,-0.073001,-0.668345,0.069454,1832.404297,81677.609375,0.008748,-0.132439,1.171997,0.765503,0.803732,18.375000,22.618643,0,2.900000,0,0,0, 202
109, 101,124776,124774,195,1,1,1.943470,9.706051,0.190304,0.027421,0.032204,0.099451,1.250281,9.212777,-4.692398,-1.039367,2.949284,-0.534716,167.267125,-95.806476,178.822931,0.738188,-0.073520,-0.667251,0.066702,1832.444458,81676.484375,-0.085630,-0.127872,1.171997,0.805664,0.799797,18.375000,22.623177,0,2.900000,0,0,0, 202
110, 101,124879,124856,201,1,1,1.965563,9.630486,0.305885,-0.007326,-0.025422,0.073125,1.250281,9.212777,-4.692398,1.138584,-3.534171,-0.912428,169.022907,-95.670303,-179.583350,0.737580,-0.073324,-0.667926,0.066887,1832.439331,81678.734375,0.223952,-0.121835,1.171997,0.800537,0.790312,18.375000,22.614109,0,2.900000,0,0,0, 202
111, 101,125010,124991,211,1,1,2.001301,9.673915,0.183185,0.106059,-0.026628,0.078850,1.250281,9.212777,-4.692398,-0.925826,-1.434104,-1.086152,162.509339,-95.532907,174.063765,0.735699,-0.075682,-0.669568,0.068533,1832.343262,81680.695312,-0.471883,-0.146655,1.171997,0.704468,0.772526,18.375000,22.614109,0,2.890000,0,0,0, 202
112, 101,125110,125101,218,1,1,1.994323,9.635175,0.209986,-0.024481,-0.023945,0.040587,1.250281,9.212777,-4.692398,0.181332,-3.285669,-0.305538,167.794812,-95.060701,179.408497,0.733809,-0.076506,-0.671610,0.067907,1832.455811,81675.929688,-0.248897,-0.171441,1.171997,0.817017,0.785337,18.375000,22.609573,0,2.900000,0,0,0, 202
113, 101,125212,125208,227,1,1,1.987807,9.667180,0.227289,-0.022759,0.014611,0.071015,1.250281,9.212777,-4.692398,-1.182723,2.366875,-0.965654,166.294807,-95.049555,178.061256,0.733680,-0.076857,-0.671806,0.066961,1832.387817,81681.398438,0.932507,0.096183,1.171997,0.749023,0.774889,18.375000,22.623177,0,2.900000,0,0,0, 202
114, 101,125322,125319,233,1,1,1.955465,9.668171,0.204823,0.027101,0.031108,0.064983,1.250281,9.212777,-4.692398,0.468711,-0.195381,0.496190,164.501855,-95.102932,176.161152,0.733809,-0.075165,-0.671910,0.066418,1832.323730,81677.468750,-1.450628,-0.278802,1.171997,0.684937,0.748996,18.375000,22.623177,0,2.890000,0,0,0, 202
115, 101,125424,125401,239,1,1,1.919495,9.647950,0.131673,0.032071,-0.020965,0.039826,1.250281,9.212777,-4.692398,0.102801,1.313230,-1.675263,165.822172,-95.121640,177.326929,0.734096,-0.075431,-0.671591,0.066173,1832.443359,81677.187500,0.569028,-0.275178,1.171997,0.804565,0.728043,18.375000,22.632244,0,2.900000,0,0,0, 202
116, 101,125556,125536,246,1,1,1.961663,9.631285,0.181864,-0.029496,-0.041700,0.029576,1.250281,9.212777,-4.692398,-0.229426,-0.420604,0.967024,170.148345,-95.077046,-178.528605,0.734153,-0.074285,-0.671504,0.067691,1832.305908,81680.968750,-0.282682,-0.124034,1.171997,0.667114,0.736833,18.375000,22.636778,0,2.900000,0,0,0, 202
117, 101,125657,125649,254,1,1,1.946239,9.656935,0.199338,-0.022508,0.016007,0.052081,1.250281,9.212777,-4.692398,1.353561,-2.365227,-1.404840,168.374682,-95.152998,179.919286,0.734555,-0.074440,-0.671162,0.066558,1832.325439,81682.093750,0.052456,-0.081249,1.171997,0.686646,0.722375,18.375000,22.632244,0,2.900000,0,0,0, 202
118, 101,125759,125756,260,1,1,1.960949,9.626953,0.204888,0.007904,-0.020425,0.025752,1.250281,9.212777,-4.692398,-1.335979,-1.596086,-1.493575,166.346361,-95.217891,177.791395,0.734638,-0.075319,-0.670940,0.066885,1832.401123,81678.445312,0.271137,0.004178,1.171997,0.762329,0.733872,18.375000,22.623177,0,2.900000,0,0,0, 202
119, 101,125866,125836,265,1,1,1.959963,9.624994,0.176227,0.028917,0.023252,0.023034,1.250281,9.212777,-4.692398,1.234622,0.408110,-0.125082,166.676956,-95.248614,178.360828,0.734797,-0.076112,-0.670596,0.067682,1832.441284,81673.398438,-0.180002,-0.040472,1.171997,0.802490,0.753629,18.375000,22.627710,0,2.900000,0,0,0, 202
120, 101,125968,125947,275,1,1,1.962427,9.643340,0.199754,-0.058370,0.028383,0.066939,1.250281,9.212777,-4.692398,1.065108,-1.688042,1.481097,169.785198,-95.155798,-178.552046,0.734447,-0.074201,-0.671025,0.069339,1832.457764,81676.898438,0.706501,-0.037630,1.171997,0.818970,0.750713,18.375000,22.641312,0,2.900000,0,0,0, 202
121, 101,126223,126211,283,1,1,1.927060,9.663500,0.210284,-0.011563,0.015420,0.054995,1.250281,9.212777,-4.692398,-0.615935,-0.415262,0.031616,167.183374,-95.252357,178.608504,0.735007,-0.074317,-0.670706,0.066303,1832.332397,81680.820312,0.301697,-0.127972,1.171997,0.693604,0.756006,18.375000,22.673050,0,2.900000,0,0,0, 202
122, 101,126336,126317,293,1,1,1.986652,9.649936,0.201925,0.017729,-0.072446,0.053098,1.250281,9.212777,-4.692398,-1.830479,2.568463,-2.683478,166.815691,-95.435296,178.076952,0.735839,-0.075600,-0.669509,0.067703,1832.380127,81678.296875,-0.272520,-0.169878,1.171997,0.741333,0.752707,18.375000,22.659449,0,2.900000,0,0,0, 202
123, 101,126437,126427,299,1,1,1.971237,9.630381,0.208379,0.009505,0.000630,0.031260,1.250281,9.212777,-4.692398,-0.203778,-0.738486,-0.285919,166.119585,-95.300578,177.743392,0.735065,-0.075804,-0.670382,0.067238,1832.414917,81675.773438,-0.266782,-0.193370,1.171997,0.776123,0.759449,18.375000,22.645845,0,2.900000,0,0,0, 202
124, 101,126539,126534,306,1,1,1.958735,9.646729,0.168192,0.061533,-0.000711,0.043823,1.250281,9.212777,-4.692398,-0.496588,1.249630,-2.405734,165.494951,-95.337993,176.996498,0.735138,-0.073926,-0.670450,0.067855,1832.600342,81672.968750,1.624274,0.247271,1.171997,0.961548,0.817600,18.375000,22.641312,0,2.900000,0,0,0, 202
125, 101,126647,126644,312,1,1,1.934529,9.642329,0.186452,0.016389,0.012537,0.035222,1.250281,9.212777,-4.692398,-1.376720,0.720295,0.137813,167.200271,-95.369289,178.663187,0.735661,-0.073690,-0.670025,0.066630,1832.226318,81681.523438,-0.907466,-0.032665,1.171997,0.587524,0.751366,18.375000,22.650379,0,2.900000,0,0,0, 202
126, 101,126748,126726,321,1,1,1.942871,9.647212,0.157888,0.021188,-0.035333,0.052052,1.250281,9.212777,-4.692398,-2.100927,0.497473,-2.298905,166.747717,-95.317585,178.104149,0.735395,-0.074210,-0.670365,0.065563,1832.548218,81674.093750,0.361087,-0.029819,1.171997,0.909424,0.748992,18.375000,22.636778,0,2.900000,0,0,0, 202
127, 101,126850,126835,327,1,1,1.945763,9.661160,0.181170,-0.019811,-0.008104,0.055794,1.250281,9.212777,-4.692398,1.331696,-1.302185,-0.834555,169.869359,-95.318521,-178.737267,0.735566,-0.072650,-0.670148,0.067577,1832.356934,81681.523438,1.169929,0.066587,1.171997,0.718140,0.801542,18.375000,22.650379,0,2.900000,0,0,0, 202
128, 101,126962,126943,333,1,1,1.982785,9.636847,0.186987,-0.009321,-0.004073,0.039484,1.250281,9.212777,-4.692398,1.970710,-1.277474,-0.753968,168.841402,-95.343082,-179.503601,0.735504,-0.074779,-0.669872,0.068655,1832.415649,81676.062500,-0.947538,0.153532,1.171997,0.776855,0.769289,18.375000,22.636778,0,2.900000,0,0,0, 202
129, 101,127063,127053,342,1,1,1.960167,9.635803,0.205131,0.013397,0.024713,0.034255,1.250281,9.212777,-4.692398,-1.895663,-0.020072,0.803344,166.274740,-95.427865,177.968707,0.735804,-0.076543,-0.669474,0.067364,1832.421631,81678.867188,0.689385,0.038416,1.171997,0.782837,0.779749,18.375000,22.641312,0,2.900000,0,0,0, 202
130, 101,127192,127191,349,1,1,1.986242,9.661041,0.154806,0.056648,-0.024021,0.063130,1.250281,9.212777,-4.692398,-1.248845,1.418320,-0.453720,167.184343,-95.480198,178.689141,0.736031,-0.074026,-0.669313,0.069271,1832.301147,81677.742188,-0.766476,0.008545,1.171997,0.662354,0.771658,18.375000,22.645845,0,2.900000,0,0,0, 202
131, 101,127294,127274,359,1,1,1.960145,9.658786,0.203753,0.002913,-0.025157,0.030457,1.250281,9.212777,-4.692398,2.532435,-1.137565,0.251057,169.628281,-95.374979,-178.730710,0.735738,-0.074261,-0.669637,0.069000,1832.384766,81676.898438,-0.294667,0.012603,1.171997,0.745972,0.772434,18.375000,22.641312,0,2.900000,0,0,0, 202
132, 101,127427,127409,365,1,1,1.961813,9.652472,0.168436,0.064514,-0.006272,0.050046,1.250281,9.212777,-4.692398,-3.185213,1.084279,0.040880,165.736261,-95.486714,177.216416,0.736007,-0.073895,-0.669486,0.067986,1832.247925,81681.523438,0.035159,-0.040689,1.171997,0.609131,0.719632,18.375000,22.650379,0,2.900000,0,0,0, 202
133, 101,127529,127519,371,1,1,1.944574,9.656791,0.182583,0.017562,0.000114,0.051310,1.250281,9.212777,-4.692398,0.026172,1.272974,-0.829304,167.746099,-95.490430,179.177049,0.736377,-0.073655,-0.669197,0.067070,1832.220459,81680.406250,-0.913984,-0.252397,1.171997,0.581665,0.679908,18.375000,22.654913,0,2.900000,0,0,0, 202
134, 101,127631,127626,377,1,1,1.905143,9.648808,0.193590,-0.005646,0.033080,0.035941,1.250281,9.212777,-4.692398,-0.900382,2.487218,-0.212537,168.155473,-95.429040,179.571342,0.736236,-0.072887,-0.669596,0.065465,1832.262451,81681.382812,-0.094943,-0.214226,1.171997,0.623657,0.663722,18.375000,22.654913,0,2.900000,0,0,0, 202
135, 101,127738,127738,387,1,1,1.964453,9.669694,0.190388,0.023541,-0.037815,0.067957,1.250281,9.212777,-4.692398,-3.006293,1.273639,0.326311,167.352516,-95.583163,178.662722,0.736813,-0.074341,-0.668613,0.067347,1832.163330,81681.382812,-0.955432,-0.393913,1.171997,0.524536,0.623644,18.375000,22.654913,0,2.900000,0,0,0, 202
136, 101,127840,127820,393,1,1,1.958051,9.662683,0.198023,0.038778,-0.026502,0.050894,1.250281,9.212777,-4.692398,1.076747,-1.497242,0.384732,167.809511,-95.769217,179.251935,0.738051,-0.074410,-0.667335,0.066392,1832.151123,81678.437500,-0.821173,-0.388379,1.171997,0.512329,0.594126,18.375000,22.654913,0,2.900000,0,0,0, 202
137, 101,127970,127954,399,1,1,1.987140,9.638838,0.181495,0.012047,-0.038054,0.042133,1.250281,9.212777,-4.692398,0.776284,0.800673,0.086893,168.846880,-95.719938,-179.677442,0.737644,-0.074852,-0.667487,0.068844,1832.464355,81674.656250,2.081562,0.127734,1.171997,0.825562,0.658915,18.375000,22.650379,0,2.900000,0,0,0, 202
138, 101,128072,128063,407,1,1,1.942924,9.653962,0.219859,-0.058031,0.025131,0.048786,1.250281,9.212777,-4.692398,0.750385,-0.044136,-1.082808,170.104359,-95.577132,-178.292690,0.737230,-0.074773,-0.668219,0.066214,1832.353638,81681.101562,1.682140,0.504559,1.171997,0.714844,0.675016,18.375000,22.663982,0,2.900000,0,0,0, 202
139, 101,128201,128200,416,1,1,1.955573,9.639774,0.191135,-0.008269,0.009917,0.036982,1.250281,9.212777,-4.692398,0.483749,-0.803920,-0.407181,168.975369,-95.608325,-179.443331,0.737105,-0.074413,-0.668207,0.068102,1832.241333,81681.242188,-0.548994,0.320165,1.171997,0.602539,0.676676,18.375000,22.659449,0,2.900000,0,0,0, 202
140, 101,128303,128284,426,1,1,2.024882,9.622814,0.248207,-0.053087,-0.055544,0.035382,1.250281,9.212777,-4.692398,-1.027913,2.267207,0.558457,168.925058,-95.768446,-179.428673,0.737969,-0.078403,-0.666776,0.068297,1832.216309,81681.945312,-1.008108,-0.003127,1.171997,0.577515,0.641930,18.375000,22.668516,0,2.900000,0,0,0, 202
141, 101,128793,128783,436,1,1,1.923358,9.643523,0.163880,0.083175,0.045384,0.033365,1.250281,9.212777,-4.692398,-1.077831,-1.288348,0.094695,165.371160,-95.801647,176.938031,0.737965,-0.076666,-0.667247,0.065660,1832.295898,81678.593750,0.109623,-0.038491,1.171997,0.657104,0.618097,18.375000,22.618643,2,2.900000,0,0,0, 202
142, 101,129040,129032,684,1,1,1.787728,9.689233,0.150872,0.083838,0.217570,0.050173,1.250281,9.212777,-4.692398,-0.712289,0.084274,-0.705537,165.816748,-96.103999,177.556109,0.739654,-0.077654,-0.665149,0.066767,1832.458496,81676.320312,0.784779,-0.120230,1.171997,0.819702,0.587713,18.375000,22.691185,2,2.900000,0,0,0, 202
143, 101,129150,129147,793,1,1,1.877796,9.657437,0.128492,0.123620,0.104006,0.036816,1.250281,9.212777,-4.692398,-0.171392,0.659294,-0.680972,166.066405,-96.362918,177.676976,0.741245,-0.076961,-0.663547,0.065864,1832.151367,81683.054688,0.117843,0.338742,1.171997,0.512573,0.693215,18.375000,22.695719,2,2.900000,0,0,0, 202
144, 101,129259,129237,902,1,1,1.990248,9.683597,0.243823,0.088467,0.022741,0.072005,1.250281,9.212777,-4.692398,-0.654172,-0.184106,0.329883,165.886211,-96.378689,177.456279,0.741341,-0.076862,-0.663490,0.065465,1832.236450,81681.796875,-0.924508,0.112322,1.171997,0.597656,0.671023,18.500000,22.673050,2,2.900000,0,0,0, 202
145, 101,129369,129352,1012,1,1,1.886723,9.641730,0.177887,0.083864,0.086831,0.024465,1.250281,9.212777,-4.692398,1.179347,1.131538,0.518712,165.590533,-96.352673,177.198302,0.741140,-0.077258,-0.663662,0.065533,1832.305786,81680.820312,0.002338,0.040691,1.171997,0.666992,0.684300,18.500000,22.673050,2,2.900000,0,0,0, 202
146, 101,129481,129468,1123,1,1,1.929888,9.664957,0.170213,0.100644,0.026501,0.055673,1.250281,9.212777,-4.692398,-0.369153,0.228623,-1.997114,165.774592,-96.474209,177.243067,0.741937,-0.076433,-0.662955,0.064642,1832.322266,81678.296875,-0.361519,0.027663,1.171997,0.683472,0.678378,18.500000,22.659449,2,2.900000,0,0,0, 202
147, 101,129595,129574,1238,1,1,1.921848,9.679482,0.172808,0.113771,0.017798,0.068270,1.250281,9.212777,-4.692398,-2.651159,1.304172,0.242503,165.137582,-96.527976,176.489766,0.742242,-0.076250,-0.662754,0.063395,1832.473145,81676.335938,0.843225,-0.022179,1.171997,0.834351,0.665031,18.500000,22.659449,2,2.900000,0,0,0, 202
148, 101,129722,129716,1365,1,1,1.889187,9.634959,0.215319,0.063093,0.052771,0.019441,1.250281,9.212777,-4.692398,-0.292183,0.989724,-0.547772,165.047054,-96.428911,176.496815,0.741610,-0.076783,-0.663336,0.064066,1832.304565,81679.835938,-0.217066,0.016548,1.171997,0.665771,0.629476,18.500000,22.673050,2,2.900000,0,0,0, 202
149, 101,130055,130038,1699,1,1,1.913738,9.689919,0.182642,0.065832,0.090190,0.068771,1.250281,9.212777,-4.692398,0.253224,-1.256950,0.004084,165.403385,-96.173086,176.846042,0.740182,-0.076264,-0.664946,0.064515,1832.347412,81680.664062,-0.313368,0.000280,1.171997,0.708618,0.739724,18.500000,22.709320,2,2.900000,0,0,0, 202
150, 101,130166,130151,1809,1,1,1.720432,9.759646,0.177805,0.091590,0.230461,0.107617,1.250281,9.212777,-4.692398,-3.751676,-11.377326,0.093595,162.242729,-95.507485,173.595501,0.736046,-0.076969,-0.669607,0.062749,1832.457520,81678.429688,0.829187,-0.087792,1.171997,0.818726,0.722627,18.500000,22.686651,2,2.900000,0,0,0, 202
151, 101,130274,130263,1917,1,1,1.978294,9.647247,0.218313,0.050992,-0.028654,0.049242,1.250281,9.212777,-4.692398,1.453995,-1.301864,0.289397,162.381232,-95.131278,173.844693,0.733840,-0.077068,-0.671892,0.064029,1832.599731,81675.070312,1.378448,0.116563,1.171997,0.960938,0.773528,18.500000,22.668516,2,2.900000,0,0,0, 202
152, 101,130382,130375,2026,1,1,2.035079,9.609695,0.168045,0.088437,-0.080576,0.022529,1.250281,9.212777,-4.692398,0.856537,1.236778,0.557149,163.907997,-95.247514,175.415514,0.734651,-0.076624,-0.670963,0.065007,1832.570801,81679.695312,1.086869,0.397148,1.171997,0.932007,0.839757,18.500000,22.677584,2,2.900000,0,0,0, 202
153, 101,130492,130489,2135,1,1,1.957866,9.622870,0.171952,0.099841,0.004425,0.020021,1.250281,9.212777,-4.692398,-2.426405,2.238516,-0.349343,162.796739,-95.368203,174.341794,0.735206,-0.077605,-0.670293,0.064480,1832.521362,81680.250000,-0.401770,0.342599,1.171997,0.882568,0.820631,18.500000,22.691185,2,2.900000,0,0,0, 202
154, 101,130610,130602,2253,1,1,2.130102,9.602235,0.175491,0.106749,-0.172539,0.034135,1.250281,9.212777,-4.692398,0.016920,2.497876,-0.396780,163.343960,-95.417654,174.864577,0.735566,-0.077208,-0.669934,0.064574,1832.686035,81672.820312,0.697994,0.131934,1.171997,1.047241,0.797126,18.500000,22.677584,2,2.900000,0,0,0, 202
155, 101,130738,130716,2381,1,1,1.950695,9.658044,0.187305,0.097032,0.022727,0.053348,1.250281,9.212777,-4.692398,-1.023183,-0.116114,-0.427841,163.598603,-95.900869,175.175487,0.738342,-0.077924,-0.666795,0.064518,1832.499756,81676.890625,0.634723,0.347322,1.171997,0.860962,0.871179,18.500000,22.673050,2,2.900000,0,0,0, 202
156, 101,131071,131065,2715,1,1,1.844594,9.657887,0.199186,0.069729,0.112870,0.032585,1.250281,9.212777,-4.692398,-0.022343,-0.421132,0.480687,164.438484,-96.094130,175.947804,0.739586,-0.077203,-0.665511,0.064399,1832.386475,81675.609375,0.038993,-0.221114,1.171997,0.747681,0.753118,18.500000,22.713854,2,2.900000,0,0,0, 202
157, 101,131183,131178,2825,1,1,1.849798,9.642662,0.160955,0.102557,0.107334,0.017684,1.250281,9.212777,-4.692398,-1.042744,-3.897143,0.249482,164.362874,-95.934877,175.865637,0.738666,-0.077050,-0.666542,0.064481,1832.408203,81675.195312,0.635900,-0.013353,1.171997,0.769409,0.757804,18.500000,22.695719,2,2.910000,0,0,0, 202
158, 101,131292,131268,2935,1,1,1.938981,9.669249,0.205439,0.091872,0.036389,0.062390,1.250281,9.212777,-4.692398,-2.091403,0.435718,0.404772,163.312678,-96.090311,174.896884,0.739390,-0.078360,-0.665617,0.064160,1832.484619,81677.445312,1.710691,0.404597,1.171997,0.845825,0.783133,18.500000,22.686651,2,2.900000,0,0,0, 202
159, 101,131402,131382,3045,1,1,1.965720,9.600895,0.195851,0.103201,0.004127,0.000476,1.250281,9.212777,-4.692398,-0.740424,-0.729787,1.565127,162.926581,-95.962040,174.548694,0.738586,-0.078678,-0.666456,0.064315,1832.585938,81677.726562,2.263069,0.407908,1.171997,0.947144,0.815619,18.500000,22.677584,2,2.900000,0,0,0, 202
160, 101,131512,131498,3154,1,1,1.998278,9.650784,0.177252,0.126888,-0.036860,0.055201,1.250281,9.212777,-4.692398,0.041343,-0.633247,-1.139931,162.553748,-95.825225,174.051935,0.737825,-0.078025,-0.667457,0.063457,1832.595947,81675.625000,0.568663,0.740757,1.171997,0.957153,0.877192,18.500000,22.682117,2,2.900000,0,0,0, 202
161, 101,131624,131606,3267,1,1,1.915444,9.751200,0.212171,0.056922,0.041601,0.138561,1.250281,9.212777,-4.692398,0.051469,0.356605,-1.392835,163.894296,-95.677228,175.290002,0.737192,-0.076443,-0.668308,0.063791,1832.412354,81677.585938,-0.613108,0.692083,1.171997,0.773560,0.915406,18.500000,22.682117,2,2.900000,0,0,0, 202
162, 101,131753,131747,3396,1,1,2.193202,9.733352,0.201217,0.095905,-0.251781,0.174779,1.250281,9.212777,-4.692398,-1.695287,-5.838004,-2.218698,162.819702,-95.341593,174.098940,0.735203,-0.076005,-0.670637,0.062821,1832.351318,81687.539062,0.160905,0.184016,1.171997,0.712524,0.777679,18.500000,22.709320,2,2.900000,0,0,0, 202
163, 101,132085,132069,3729,1,1,1.998825,9.623581,0.238851,0.032044,-0.092951,0.030378,1.250281,9.212777,-4.692398,-0.691344,-0.961640,-3.730697,161.847261,-94.929234,173.088277,0.732739,-0.075787,-0.673374,0.062591,1832.285034,81677.851562,-2.212926,-0.583186,1.171997,0.646240,0.726446,18.500000,22.736525,2,2.900000,0,0,0, 202
164, 101,132197,132181,3840,1,1,2.025877,9.633761,0.193115,0.072868,-0.148749,0.043968,1.250281,9.212777,-4.692398,-1.593893,1.506605,-1.906655,162.631749,-94.947744,173.670496,0.733044,-0.074215,-0.673301,0.061681,1832.487549,81675.757812,1.181165,-0.155465,1.171997,0.848755,0.761645,18.500000,22.709320,2,2.900000,0,0,0, 202
165, 101,132307,132294,3949,1,1,2.085613,9.636806,0.098292,0.175469,-0.206123,0.055683,1.250281,9.212777,-4.692398,0.024654,0.340373,-0.042447,162.202663,-94.882529,173.198298,0.732643,-0.074101,-0.673787,0.061269,1832.356934,81680.945312,0.517483,0.007674,1.171997,0.718140,0.749123,18.500000,22.700253,2,2.900000,0,0,0, 202
166, 101,132416,132405,4059,1,1,2.116439,9.603721,0.239154,0.026034,-0.258162,0.032648,1.250281,9.212777,-4.692398,-0.239715,2.562056,0.027650,162.880054,-94.840681,173.853969,0.732487,-0.073574,-0.673991,0.061531,1832.358032,81678.140625,-0.172543,-0.036015,1.171997,0.719238,0.740521,18.500000,22.695719,2,2.900000,0,0,0, 202
newfile
index, checksum,uptime mp,uptime nav,missiontime,  errorflag mp,errorflag NAV,  accel x, accel y, accel z, accelworld x, accelworld y, accelworld z, accelhighg x, accelhighg y, accelhighg z, gyro x, gyro y, gyro z, euler x, euler y, euler z, quat w, quat x, quat y, quat z, altitude, presusre, verticalvel,filtered vvel, maxalt, altitudeagl, filtered alt, imutemp, barotemp,state,battstate,pyros fired,pyros cont,pyros state, checksum2
167, 101,12102,12086,-5960,1,1,0.860807,-9.914372,0.518009,0.184882,-0.062573,0.162233,0.769756,-9.212777,5.653450,-12.906687,-5.407389,-17.764364,177.287436,-175.536476,-6.262813,0.053649,-0.040165,0.021489,0.997520,1833.381714,81675.460938,-1.372131,-0.082935,1.135864,0.703125,0.932841,16.250000,20.255816,0,2.900000,0,0,0, 202
168, 101,12201,12189,-5861,1,1,0.758076,-10.497371,0.250712,-0.001654,0.042469,0.726608,0.769756,-9.693303,6.133976,7.196599,-8.725381,-5.726712,178.401427,-175.914172,-4.218954,0.036285,-0.036134,0.012619,0.998608,1833.519775,81667.382812,-0.494260,-0.133277,1.135864,0.841187,0.944214,16.250000,20.264889,0,2.900000,0,0,0, 202
169, 101,12302,12291,-5760,1,1,0.682658,-9.945326,0.018019,-0.018572,-0.225776,0.165169,0.289230,-8.251725,5.172924,-5.631464,-2.041544,-0.699810,1.200971,-3.744973,176.173514,0.033709,-0.032306,-0.011560,0.998843,1833.742188,81663.609375,2.127120,0.440425,1.135864,1.063599,1.022014,16.250000,20.260353,0,2.900000,0,0,0, 202
170, 101,12401,12393,-5661,1,1,1.094357,-10.012950,-0.089423,-0.516593,-0.059907,0.258539,0.769756,-9.693303,4.692398,-13.393548,0.234546,4.479985,1.018510,-3.251566,176.736172,0.028718,-0.028106,-0.009689,0.999145,1833.691650,81664.718750,-0.173900,0.697173,1.135864,1.013062,1.058834,16.250000,20.255816,0,2.900000,0,0,0, 202
171, 101,12501,12495,-5561,1,1,0.866084,-10.385729,-0.230360,0.338872,0.048477,0.617702,0.289230,-8.732251,5.172924,8.461669,-5.234891,14.905513,0.912416,-2.744688,173.428298,0.057490,-0.023453,-0.009320,0.998027,1833.554932,81669.468750,-0.562788,0.734767,1.135864,0.876343,1.074343,16.250000,20.260353,0,2.900000,0,0,0, 202
172, 101,12602,12596,-5460,1,1,0.839936,-9.962167,-0.034995,-0.136024,-0.050669,0.195520,-0.191296,-8.732251,5.172924,2.260308,0.384227,0.167779,0.529924,-2.841119,175.971136,0.035255,-0.024613,-0.005492,0.999060,1833.668213,81663.476562,-0.644380,-0.197010,1.135864,0.989624,0.956014,16.250000,20.264889,0,2.900000,0,0,0, 202
173, 101,12701,12698,-5361,1,1,0.773293,-9.821163,-0.022299,0.005412,0.025671,0.050550,1.250281,-8.732251,4.692398,0.881492,-0.854341,-0.473384,179.979036,-177.262083,-4.527339,0.039483,-0.023879,-0.000761,0.998935,1833.584473,81667.117188,0.278972,0.040427,1.135864,0.905884,0.987788,16.250000,20.273962,0,2.900000,0,0,0, 202
174, 101,12802,12800,-5260,1,1,0.815566,-9.794630,-0.004746,-0.046768,0.011566,0.027409,1.250281,-9.212777,4.692398,-0.106899,-0.831028,-0.491888,179.973094,-177.306014,-4.485608,0.039118,-0.023499,-0.000685,0.998958,1833.750854,81663.476562,1.253196,-0.286179,1.135864,1.072266,0.963720,16.250000,20.264889,0,2.900000,0,0,0, 202
175, 101,12901,12886,-5161,1,1,0.779963,-9.833535,-0.019214,0.008854,0.007777,0.063430,0.289230,-9.212777,5.172924,-0.795086,-1.248709,-0.596198,0.064276,-2.523900,175.418423,0.039974,-0.021983,-0.001441,0.998958,1833.697266,81663.921875,-0.190784,0.125434,1.135864,1.018677,1.017828,16.250000,20.283035,0,2.900000,0,0,0, 202
176, 101,13001,12988,-5061,1,1,0.797146,-9.813489,-0.002588,0.005282,0.042125,0.044720,1.250281,-9.212777,5.653450,1.010425,1.510072,0.223291,179.768585,-177.478723,-4.674022,0.040723,-0.022065,0.001120,0.998926,1833.538330,81664.187500,-3.581247,-0.770148,1.135864,0.859741,0.835100,16.250000,20.273962,0,2.910000,0,0,0, 202
177, 101,13101,13090,-4961,1,1,0.686383,-9.533719,-0.079942,0.227781,0.061663,-0.245184,0.289230,-8.251725,5.172924,-1.564096,-5.107371,-4.680088,0.055731,-2.274415,174.534515,0.047677,-0.019801,-0.001432,0.998665,1833.576904,81667.960938,1.676538,-0.431007,1.135864,0.898315,0.868043,16.250000,20.278498,0,2.900000,0,0,0, 202
178, 101,13202,13192,-4860,1,1,0.980639,-9.997355,-0.066805,-0.562208,0.189681,0.227019,0.289230,-8.251725,5.172924,-13.085200,1.342038,3.761558,179.432539,-177.607335,-2.375110,0.020617,-0.020976,0.004517,0.999557,1833.557983,81668.804688,0.461374,-0.066687,1.135864,0.879395,0.878314,16.250000,20.283035,0,2.900000,0,0,0, 202
179, 101,13302,13294,-4760,1,1,0.775690,-9.885270,0.109954,-0.553844,0.214580,0.097463,1.250281,-9.212777,5.172924,7.515327,8.780704,0.597604,178.279248,-177.174165,-1.312325,0.011077,-0.024825,0.014728,0.999522,1833.730957,81665.875000,2.784231,0.507583,1.142090,1.052368,0.982959,16.250000,20.283035,0,2.900000,0,0,0, 202
180, 101,13401,13397,-4661,1,1,0.796934,-9.758733,0.004827,-0.167709,0.183300,-0.012932,-0.191296,-8.251725,5.653450,13.800923,0.724544,5.275929,178.946107,-177.244433,-3.687408,0.031941,-0.024327,0.008416,0.999158,1833.603638,81664.898438,-1.999377,-0.281103,1.142090,0.925049,0.922123,16.250000,20.283035,0,2.900000,0,0,0, 202
181, 101,13501,13499,-4561,1,1,0.815841,-9.813556,0.119346,-0.020647,0.083243,0.046759,0.769756,-8.251725,4.692398,-18.284090,-2.190816,-0.010958,178.826333,-177.224981,-4.665687,0.040443,-0.024610,0.009245,0.998836,1833.897827,81659.039062,3.252242,0.716717,1.219238,1.219238,1.041087,16.250000,20.283035,0,2.900000,0,0,0, 202
182, 101,13602,13601,-4460,1,1,0.785357,-9.950824,0.261096,0.008285,-0.060434,0.183995,0.769756,-9.693303,5.172924,3.130366,-1.927216,0.826066,178.844282,-177.193958,-4.633717,0.040165,-0.024871,0.009084,0.998842,1833.979248,81660.726562,1.503188,1.123604,1.300659,1.300659,1.112716,16.250000,20.292107,0,2.900000,0,0,0, 202
183, 101,13702,13686,-4360,1,1,0.794539,-9.806687,0.112642,-0.009988,0.041160,0.038375,0.769756,-8.732251,5.653450,1.033803,0.865681,0.578619,179.106452,-177.169001,-4.606197,0.039980,-0.024995,0.006796,0.998865,1833.768066,81665.343750,-2.216492,0.465392,1.300659,1.089478,1.064174,16.250000,20.301180,0,2.900000,0,0,0, 202
184, 101,13802,13789,-4260,1,1,0.834054,-9.816937,0.130932,-0.039306,0.025125,0.052064,-0.671822,-9.693303,5.653450,-5.359529,-0.880148,0.521773,179.102873,-177.168782,-4.665019,0.040492,-0.025002,0.006814,0.998844,1833.677124,81665.343750,-1.166815,-0.109986,1.300659,0.998535,1.031937,16.375000,20.301180,0,2.900000,0,0,0, 202
185, 101,13901,13891,-4161,1,1,0.763618,-9.831683,0.100708,0.014441,-0.039903,0.060716,0.769756,-9.693303,5.172924,-10.808200,-0.127655,-4.152588,179.642144,-177.316137,-4.552621,0.039634,-0.023524,0.002189,0.998935,1833.754517,81664.500000,1.189190,-0.111611,1.300659,1.075928,1.059238,16.375000,20.296644,0,2.900000,0,0,0, 202
186, 101,14002,13993,-4060,1,1,0.712905,-9.796341,0.003202,0.003530,0.009714,0.021242,0.769756,-9.212777,6.133976,-0.991163,-0.758691,2.645571,179.923671,-177.306520,-4.183718,0.036476,-0.023512,-0.000192,0.999058,1833.582764,81669.968750,-0.912734,-0.068869,1.300659,0.904175,1.039283,16.375000,20.310253,0,2.900000,0,0,0, 202
187, 101,14102,14095,-3960,1,1,0.736546,-9.814541,0.019366,-0.019220,-0.022013,0.041115,-0.191296,-9.212777,5.172924,-0.349959,1.876305,2.125440,0.020641,-2.744857,175.814820,0.036508,-0.023929,-0.001055,0.999046,1833.589111,81668.015625,0.014388,-0.224059,1.300659,0.910522,1.041834,16.375000,20.310253,0,2.900000,0,0,0, 202
188, 101,14201,14197,-3861,1,1,0.799036,-9.789516,0.052598,-0.015440,-0.011386,0.021194,1.250281,-8.732251,5.172924,-1.817949,-1.356289,-0.566327,179.763544,-177.269965,-4.590689,0.039990,-0.023885,0.001107,0.998914,1833.777100,81665.796875,1.092560,-0.085509,1.300659,1.098511,1.021796,16.375000,20.319324,0,2.900000,0,0,0, 202
189, 101,14301,14299,-3761,1,1,0.763970,-9.911331,0.072156,0.010318,-0.038070,0.139915,1.250281,-8.732251,4.211873,-1.501280,0.055153,2.245708,179.800113,-177.188781,-4.487634,0.039097,-0.024579,0.000782,0.998933,1833.675781,81668.726562,-0.680250,-0.190024,1.300659,0.997192,1.019319,16.375000,20.319324,0,2.900000,0,0,0, 202
190, 101,14401,14401,-3661,1,1,0.767917,-9.873380,-0.000580,-0.075880,0.076667,0.101610,-0.191296,-8.732251,5.653450,3.934490,0.566659,0.449662,179.581670,-177.146202,-4.007585,0.034864,-0.025014,0.002777,0.999075,1833.680786,81663.968750,-0.896518,-0.830623,1.300659,1.002197,0.972575,16.375000,20.314789,0,2.900000,0,0,0, 202
191, 101,14501,14486,-3561,1,1,0.781619,-9.840054,0.029064,-0.034593,0.005903,0.015584,0.769756,-8.732251,5.172924,1.611182,-0.959866,-1.480919,179.860205,-177.093500,-4.543884,0.039599,-0.025390,0.000213,0.998893,1833.637329,81663.703125,-0.462976,-0.367241,1.300659,0.958740,0.995685,16.375000,20.323862,0,2.900000,0,0,0, 202
192, 101,14601,14588,-3461,1,1,0.738758,-9.811726,-0.040098,0.035312,0.010475,0.038511,0.289230,-9.693303,5.172924,-1.757098,-5.226681,-4.906278,0.163021,-2.710996,175.499334,0.039288,-0.023582,-0.002350,0.998947,1833.669678,81665.796875,0.816833,0.037303,1.300659,0.991089,1.000013,16.375000,20.319324,0,2.910000,0,0,0, 202
193, 101,14701,14689,-3361,1,1,0.789555,-9.868494,-0.049439,-0.023853,-0.007796,0.099121,-0.191296,-8.732251,5.172924,-1.121633,-2.593348,8.770080,0.337487,-2.480065,175.576214,0.038650,-0.021511,-0.003777,0.999014,1833.439331,81671.390625,-1.977901,-0.243380,1.300659,0.760742,0.959640,16.375000,20.328398,0,2.900000,0,0,0, 202
194, 101,14802,14791,-3260,1,1,0.840558,-9.817636,-0.015207,0.018368,-0.002685,0.052547,0.289230,-8.732251,5.172924,-1.219829,-2.865355,-0.300013,0.099561,-2.443489,175.003312,0.043599,-0.021264,-0.001797,0.998821,1833.483154,81668.195312,0.092550,-0.504886,1.300659,0.804565,0.905410,16.375000,20.337471,0,2.900000,0,0,0, 202
195, 101,14901,14893,-3161,1,1,0.667541,-9.678475,-0.099252,-0.024793,0.308229,-0.103953,0.289230,-10.654355,5.653450,5.366921,-0.432578,9.250793,178.772333,-177.562884,-3.774034,0.032692,-0.021606,0.010005,0.999182,1833.747437,81663.312500,2.649753,0.456841,1.300659,1.068848,0.953875,16.375000,20.337471,0,2.900000,0,0,0, 202
196, 101,15002,14995,-3060,1,1,0.761595,-9.845231,0.073120,-0.048525,-0.028591,0.073754,0.769756,-8.732251,5.172924,2.735257,-0.508661,-2.656458,179.753326,-177.541902,-4.159802,0.036239,-0.021513,0.001372,0.999111,1833.820557,81664.289062,1.914305,0.930869,1.300659,1.141968,1.037259,16.375000,20.337471,0,2.900000,0,0,0, 202
197, 101,15101,15097,-2961,1,1,0.785526,-9.756293,0.049332,0.015509,-0.044965,-0.013126,0.769756,-8.251725,5.653450,-1.721959,-1.014870,-0.393697,179.970075,-177.432414,-4.707060,0.041049,-0.022396,-0.000659,0.998906,1833.814575,81665.265625,0.114925,0.524611,1.300659,1.135986,1.090313,16.375000,20.337471,0,2.900000,0,0,0, 202
198, 101,15202,15199,-2860,1,1,0.789757,-9.862971,0.023052,0.036885,-0.021646,0.093474,0.769756,-8.732251,5.172924,0.397098,2.149046,-1.483962,179.982192,-177.444654,-4.797835,0.041843,-0.022285,-0.000778,0.998875,1833.527466,81667.218750,-3.965333,-0.817785,1.300659,0.848877,0.982156,16.375000,20.337471,0,2.900000,0,0,0, 202
199, 101,15302,15301,-2760,1,1,0.816108,-9.776311,-0.021676,-0.016313,0.027803,0.009286,0.769756,-8.732251,5.172924,0.176339,0.514616,3.882737,179.968641,-177.415885,-4.670792,0.040733,-0.022541,-0.000645,0.998916,1833.651123,81667.929688,2.173512,0.356333,1.300659,0.972534,1.025601,16.375000,20.346542,0,2.900000,0,0,0, 202
200, 101,15401,15387,-2661,1,1,0.841214,-9.846972,-0.019691,-0.072101,0.031969,0.081544,0.769756,-10.654355,5.172924,-0.221056,0.628270,1.153143,179.948997,-177.253354,-4.458881,0.042194,-0.023911,-0.001863,0.998822,1833.835205,81661.085938,0.318210,0.343103,1.300659,1.156616,1.071365,16.375000,20.346542,0,2.900000,0,0,0, 202
201, 101,15501,15489,-2561,1,1,0.837399,-9.809846,-0.009173,0.075665,-0.021393,0.044213,0.769756,-7.771200,3.731347,-1.475112,-3.263531,-15.183828,0.157380,-2.673621,174.682552,0.042929,-0.023278,-0.001558,0.998806,1833.665894,81665.843750,-1.053752,-0.109931,1.300659,0.987305,1.039700,16.375000,20.351080,0,2.900000,0,0,0, 202
202, 101,15602,15590,-2460,1,1,0.707112,-9.747561,0.013126,0.183112,-0.040407,-0.029616,0.289230,-9.212777,5.172924,0.597190,3.387839,2.873236,0.110383,-2.639760,174.772629,0.037146,-0.023033,-0.000348,0.999044,1833.671143,81661.937500,-0.497095,-0.235498,1.300659,0.992554,1.021940,16.375000,20.351080,0,2.900000,0,0,0, 202
203, 101,15702,15693,-2360,1,1,0.705975,-9.812293,-0.012720,0.007234,0.018612,0.036645,-0.191296,-7.771200,4.692398,-1.173012,0.812811,-4.063121,179.963832,-177.361653,-4.153988,0.035915,-0.022987,-0.001377,0.999089,1833.714111,81663.046875,0.685893,0.063332,1.300659,1.035522,1.027056,16.375000,20.346542,0,2.900000,0,0,0, 202
204, 101,15802,15794,-2260,1,1,0.697915,-9.800650,0.005205,0.031125,-0.028909,0.024377,0.289230,-9.212777,5.653450,1.124385,1.182554,-1.275186,0.129884,-2.621966,175.743704,0.035696,-0.022867,-0.000692,0.999101,1833.668213,81663.625000,-0.762596,-0.204537,1.300659,0.989624,1.012955,16.375000,20.360151,0,2.900000,0,0,0, 202
205, 101,15902,15896,-2160,1,1,0.700723,-9.827267,-0.011019,0.010463,0.010625,0.051212,0.289230,-8.732251,5.653450,0.533733,-0.094398,-0.965113,179.999595,-177.402088,-4.136515,0.035614,-0.022637,-0.001310,0.999108,1833.655273,81666.421875,1.191640,0.248277,1.300659,0.976685,0.999293,16.375000,20.364689,0,2.900000,0,0,0, 202
206, 101,16001,15998,-2061,1,1,0.800170,-9.643559,-0.031557,-0.197156,0.075243,-0.126550,1.730806,-9.693303,5.172924,7.499917,4.241088,9.391861,179.799826,-177.141079,-3.564997,0.040300,-0.024870,-0.002298,0.998875,1833.705322,81661.804688,-0.974823,-0.148404,1.300659,1.026733,1.009630,16.375000,20.355616,0,2.900000,0,0,0, 202
207, 101,16102,16100,-1960,1,1,0.880729,-9.869936,0.539053,-0.229095,-0.131388,0.119290,0.769756,-9.212777,5.653450,-29.678217,1.164769,17.067186,177.713053,-176.816167,-3.945798,0.044058,-0.028448,0.025226,0.998305,1833.631104,81664.601562,-0.915720,-0.397263,1.300659,0.952515,0.988114,16.375000,20.360151,0,2.900000,0,0,0, 202
208, 101,16202,16185,-1860,1,1,0.894109,-9.766818,0.445524,-0.026473,0.114737,0.016066,0.769756,-8.251725,6.133976,9.254824,-0.252469,1.095568,176.734013,-176.854115,-5.218760,0.044709,-0.028707,0.027208,0.998217,1833.693115,81667.132812,1.706031,0.284886,1.300659,1.014526,0.998064,16.375000,20.373760,0,2.900000,0,0,0, 202
209, 101,16302,16287,-1760,1,1,0.920396,-9.789108,0.495616,-0.029652,-0.037736,0.043648,0.769756,-9.212777,5.172924,-1.643473,1.626883,1.009639,177.339100,-176.759818,-5.361734,0.046086,-0.029319,0.021862,0.998268,1833.676270,81666.289062,-0.433024,0.289602,1.300659,0.997681,1.020748,16.375000,20.369225,0,2.900000,0,0,0, 202
210, 101,16401,16390,-1661,1,1,0.907981,-9.759222,0.484314,-0.024703,-0.028210,0.012256,0.769756,-8.732251,5.172924,-2.086523,-1.514518,-1.235180,177.339523,-176.905533,-5.323834,0.045787,-0.028042,0.021928,0.998317,1833.604492,81669.085938,-0.256008,0.187612,1.300659,0.925903,1.039415,16.375000,20.373760,0,2.900000,0,0,0, 202
211, 101,16501,16492,-1561,1,1,0.961475,-9.802628,0.538357,-0.041987,-0.055492,0.063123,1.250281,-8.732251,5.172924,-4.186113,1.341498,2.561107,177.202496,-176.834527,-5.530429,0.047537,-0.028757,0.023041,0.998190,1833.601074,81668.109375,-0.669857,0.115752,1.300659,0.922485,1.031286,16.375000,20.373760,0,2.900000,0,0,0, 202
212, 101,16602,16594,-1460,1,1,0.925489,-9.781837,0.418911,0.001102,0.019998,0.033426,0.769756,-8.732251,5.653450,-1.913866,0.817706,1.377412,177.437810,-176.726582,-5.550987,0.047753,-0.029604,0.020939,0.998201,1833.777588,81663.226562,1.028295,-0.096159,1.300659,1.098999,1.012266,16.375000,20.373760,0,2.900000,0,0,0, 202
213, 101,16701,16696,-1361,1,1,0.938295,-9.821877,0.433871,-0.010405,-0.009488,0.075118,0.289230,-9.693303,6.133976,-5.291021,1.276589,2.370960,177.536369,-176.639006,-5.544409,0.047704,-0.030324,0.020045,0.998200,1833.358887,81670.648438,-4.545588,0.229194,1.300659,0.680298,1.039259,16.375000,20.387369,0,2.900000,0,0,0, 202
214, 101,16801,16798,-1261,1,1,0.932091,-9.793431,0.442546,0.059075,-0.020972,0.046437,0.289230,-8.251725,5.653450,1.436437,1.267555,-1.104298,177.522026,-176.686120,-5.930640,0.051073,-0.029988,0.020089,0.998042,1833.877441,81660.875000,4.155460,-0.784549,1.300659,1.198853,0.948283,16.375000,20.387369,0,2.900000,0,0,0, 202
215, 101,16902,16900,-1160,1,1,0.924885,-9.798639,0.478057,0.071473,-0.016917,0.052522,0.289230,-8.732251,5.172924,0.270071,-1.282562,-4.152084,177.290209,-176.831412,-5.962909,0.051325,-0.028832,0.022167,0.998020,1833.712402,81665.757812,-0.806589,0.522495,1.300659,1.033813,1.108969,16.375000,20.387369,0,2.900000,0,0,0, 202
216, 101,17001,16986,-1061,1,1,0.854199,-9.882165,0.383247,0.117031,-0.077509,0.124423,0.769756,-8.732251,5.653450,-28.221466,-4.041011,-2.700450,178.195128,-176.927595,-5.736115,0.049590,-0.027559,0.014383,0.998286,1833.584229,81666.734375,-2.752349,0.042875,1.300659,0.905640,1.031485,16.375000,20.387369,0,2.900000,0,0,0, 202
217, 101,17101,17088,-961,1,1,0.839964,-9.789078,0.248189,0.030582,0.025014,0.027104,-0.191296,-9.212777,5.653450,20.436875,3.286165,-0.647766,178.395348,-176.898457,-5.161349,0.044627,-0.027663,0.012765,0.998539,1833.677979,81667.445312,1.780695,-0.041787,1.300659,0.999390,1.024615,16.375000,20.396442,0,2.900000,0,0,0, 202
218, 101,17202,17191,-860,1,1,0.862692,-9.808014,0.333260,-0.035019,-0.027996,0.050418,1.730806,-9.693303,5.653450,-6.555626,-1.264875,2.080790,178.232543,-176.829786,-4.929996,0.042561,-0.028296,0.014214,0.998592,1833.707764,81667.312500,1.271934,0.526196,1.300659,1.029175,1.081364,16.375000,20.400978,0,2.900000,0,0,0, 202
219, 101,17301,17292,-761,1,1,0.823205,-9.760283,0.443186,0.046779,-0.020945,0.003824,0.289230,-9.212777,5.172924,10.933940,1.324018,4.148264,177.512286,-176.789734,-5.240522,0.045080,-0.028967,0.020396,0.998355,1833.645508,81669.140625,-1.067421,0.462145,1.300659,0.966919,1.078889,16.375000,20.405514,0,2.900000,0,0,0, 202
220, 101,17401,17395,-661,1,1,0.894468,-9.818250,0.426497,-0.020470,0.042376,0.067018,1.250281,-7.290674,5.172924,3.343971,0.206679,0.869228,177.279677,-176.845591,-5.222880,0.044880,-0.028569,0.022450,0.998331,1833.490723,81670.250000,-2.257722,-0.233410,1.300659,0.812134,0.996980,16.375000,20.400978,0,2.900000,0,0,0, 202
221, 101,17502,17497,-560,1,1,0.878999,-9.772694,0.478411,-0.007384,-0.065923,0.022577,0.769756,-8.732251,5.653450,0.623576,0.381839,-0.225061,177.591298,-176.865372,-5.249411,0.045192,-0.028279,0.019736,0.998383,1833.507690,81666.203125,-0.741926,-0.596042,1.300659,0.829102,0.939976,16.375000,20.405514,0,2.900000,0,0,0, 202
222, 101,17602,17599,-460,1,1,0.916888,-9.803061,0.463066,-0.045627,-0.001757,0.055624,1.250281,-9.212777,6.614501,-0.577672,-0.288916,-0.474557,177.328049,-176.822683,-5.227037,0.044923,-0.028750,0.022018,0.998334,1833.510986,81668.742188,0.978472,-0.679278,1.300659,0.832397,0.892108,16.375000,20.419123,0,2.900000,0,0,0, 202
223, 101,17702,17701,-360,1,1,0.957766,-9.937167,0.446229,-0.055335,-0.045240,0.191928,0.289230,-9.212777,5.653450,-7.686779,-4.254048,-7.237232,177.713326,-176.952757,-5.323592,0.045885,-0.027481,0.018691,0.998394,1833.670654,81669.984375,3.618616,-0.204344,1.300659,0.992065,0.937927,16.375000,20.410051,0,2.900000,0,0,0, 202
224, 101,17801,17787,-261,1,1,0.841250,-9.433781,-0.053449,-0.015357,0.209035,-0.331953,1.250281,-8.732251,5.172924,-4.802107,1.428982,2.871453,179.064119,-176.947184,-4.985555,0.043259,-0.026967,0.006998,0.998675,1833.822632,81665.937500,2.313851,0.705562,1.300659,1.144043,1.017077,16.375000,20.414587,0,2.900000,0,0,0, 202
225, 101,17901,17889,-161,1,1,0.883037,-9.798664,0.475278,-0.092911,-0.107857,0.047817,0.769756,-8.251725,5.653450,-13.773553,-0.509581,6.390971,177.886526,-176.944547,-4.755360,0.040973,-0.027398,0.017314,0.998634,1833.634033,81664.828125,-3.187619,0.609198,1.300659,0.955444,1.029951,16.375000,20.419123,0,2.900000,0,0,0, 202
226, 101,18002,17991,-60,1,1,0.975489,-10.071815,0.472524,-0.006986,-0.141568,0.327979,0.769756,-8.732251,5.653450,-22.656310,-4.593814,-9.646767,178.125596,-177.028559,-5.631307,0.048676,-0.026696,0.015058,0.998344,1833.822998,81661.187500,1.089559,-0.211700,1.300659,1.144409,0.966488,16.375000,20.410051,0,2.900000,0,0,0, 202
227, 101,18381,18371,319,1,1,0.877224,-9.756371,0.330254,-0.058334,0.054136,-0.000030,0.289230,-9.212777,6.133976,-5.569706,-3.127338,-1.670083,177.768049,-176.936447,-4.899509,0.042200,-0.027534,0.018309,0.998562,1833.670166,81664.421875,-0.423442,0.186355,1.300659,0.991577,1.010662,16.375000,20.332933,2,2.910000,0,0,0, 202
228, 101,18591,18587,529,1,1,0.816961,-9.711277,-0.118418,0.019446,0.175362,-0.056298,0.289230,-9.212777,5.172924,2.754547,-1.505152,7.736842,179.660982,-177.571436,-4.893583,0.042619,-0.021298,0.002050,0.998862,1833.545654,81667.945312,-0.902890,-0.035407,1.300659,0.867065,0.928967,16.375000,20.446341,2,2.900000,0,0,0, 202
229, 101,18695,18682,633,1,1,0.811872,-9.720248,-0.057471,0.051601,0.147900,-0.047994,-0.191296,-9.212777,6.133976,-0.151237,-0.768147,-1.244697,179.456773,-177.676525,-5.064136,0.044073,-0.020464,0.003839,0.998811,1833.768799,81663.585938,2.215291,0.204177,1.300659,1.090210,0.966538,16.375000,20.428196,2,2.910000,0,0,0, 202
230, 101,18799,18793,737,1,1,0.570035,-9.506111,0.034937,0.412794,0.019654,-0.286720,0.289230,-8.732251,5.172924,-3.013669,0.082829,-13.088377,179.563064,-177.512833,-5.927452,0.051609,-0.021871,0.002685,0.998424,1833.520020,81667.625000,-2.365830,-0.018384,1.300659,0.841431,0.947195,16.375000,20.423660,2,2.910000,0,0,0, 202
231, 101,18902,18888,840,1,1,0.779451,-9.894135,-0.066440,0.178356,0.115546,0.121736,0.769756,-8.732251,5.172924,-3.787803,-0.703112,13.827290,179.672211,-177.519417,-5.518463,0.048066,-0.021758,0.001815,0.998605,1833.680420,81661.187500,0.085067,-0.622211,1.300659,1.001831,0.850890,16.375000,20.410051,2,2.900000,0,0,0, 202
232, 101,19007,19000,945,1,1,0.585688,-9.697101,0.093451,0.408309,-0.073921,-0.094644,0.289230,-8.251725,5.172924,-3.799677,3.609395,4.391771,179.772232,-177.342214,-5.893403,0.051347,-0.023263,0.000792,0.998410,1833.420288,81670.429688,-0.906722,0.051897,1.300659,0.741699,0.867719,16.375000,20.428196,2,2.910000,0,0,0, 202
233, 101,19110,19111,1048,1,1,0.778006,-9.882867,0.380618,0.153045,-0.025380,0.118534,-0.191296,-8.251725,5.653450,1.901003,3.312614,5.204706,177.900077,-177.107229,-5.498079,0.047476,-0.026087,0.017087,0.998385,1833.544678,81665.718750,0.146946,0.506319,1.300659,0.866089,0.931907,16.375000,20.455412,2,2.900000,0,0,0, 202
234, 101,19214,19206,1152,1,1,0.902230,-9.928132,0.436194,-0.006916,0.068276,0.177346,1.250281,-8.732251,5.172924,16.843209,1.583103,1.859538,177.101409,-177.116012,-5.279046,0.045387,-0.026295,0.024099,0.998333,1833.617920,81669.320312,0.573168,0.530977,1.300659,0.939331,0.983400,16.375000,20.432732,2,2.900000,0,0,0, 202
235, 101,19318,19313,1256,1,1,0.865390,-9.767184,0.380372,0.008198,0.050306,0.011689,0.769756,-9.693303,5.172924,-2.371059,-0.051938,1.771292,177.479706,-177.176009,-5.220881,0.044979,-0.025611,0.020840,0.998442,1833.875244,81662.476562,1.921214,0.969542,1.300659,1.196655,1.055439,16.375000,20.432732,2,2.900000,0,0,0, 202
236, 101,19592,19589,1530,1,1,0.912014,-9.797798,0.423047,-0.056342,0.078835,0.047766,1.250281,-8.251725,5.653450,-0.583491,-0.143583,-3.111080,177.092776,-177.179834,-5.110858,0.043934,-0.025706,0.024238,0.998409,1833.739624,81663.945312,-0.435873,1.319547,1.300659,1.061035,1.146554,16.375000,20.482630,2,2.900000,0,0,0, 202
237, 101,19696,19683,1634,1,1,0.878727,-9.821420,0.417893,-0.004172,0.039306,0.068423,0.289230,-8.732251,5.653450,-4.903174,0.686091,-0.372038,177.343389,-177.217632,-5.206404,0.044831,-0.025299,0.022048,0.998431,1833.640625,81663.367188,-1.766269,0.391723,1.300659,0.962036,1.044120,16.375000,20.469021,2,2.900000,0,0,0, 202
238, 101,19799,19794,1737,1,1,0.779399,-9.717214,0.002462,0.124838,0.083986,-0.053740,0.289230,-7.290674,5.172924,-43.426210,-1.856250,4.070479,179.457032,-177.283611,-5.321023,0.046292,-0.023897,0.003632,0.998635,1833.561646,81668.390625,0.110612,0.540372,1.300659,0.883057,1.024336,16.375000,20.464485,2,2.900000,0,0,0, 202
done
'