index, checksum,uptime mp,uptime nav,missiontime,  errorflag mp,errorflag NAV,  accel x, accel y, accel z, accelworld x, accelworld y, accelworld z, accelhighg x, accelhighg y, accelhighg z, gyro x, gyro y, gyro z, euler x, euler y, euler z, quat w, quat x, quat y, quat z, altitude, presusre, verticalvel,filtered vvel, maxalt, altitudeagl, filtered alt, imutemp, barotemp,state,battstate,pyros fired,pyros cont,pyros state, checksum2
0, 101,11655,11654,-9239,1,1,2.904660,9.398309,0.542909,-0.039255,-0.008202,0.050822,13.263428,1.524364,-5.653450,-1.328000,0.240815,0.191957,176.896463,-176.866041,-162.769760,0.987874,-0.030859,-0.022972,0.150417,1992.925537,80070.960938,1.797335,0.440073,0.172607,-0.312012,-0.329446,14.500000,19.645260,0,2.890000,0,0,0, 202
1, 101,11706,11703,-9188,1,1,2.921561,9.460248,0.531888,-0.028137,0.012648,0.114330,13.743954,0.563312,-6.133976,1.417850,0.225771,-0.948289,176.856233,-176.897282,-162.841791,0.987966,-0.031151,-0.022669,0.149798,1992.822754,80072.085938,0.946937,0.442918,0.172607,-0.414795,-0.309518,14.500000,19.640713,0,2.890000,0,0,0, 202
2, 101,11756,11753,-9138,1,1,2.924923,9.425876,0.536381,-0.005546,0.008158,0.082821,13.263428,1.524364,-6.133976,-0.113651,0.874628,0.068051,176.838952,-176.881750,-162.897867,0.988079,-0.030948,-0.022844,0.149063,1992.851318,80071.937500,-1.649979,-0.310670,0.172607,-0.386230,-0.356932,14.500000,19.645260,0,2.890000,0,0,0, 202
3, 101,11806,11803,-9088,1,1,2.931431,9.400323,0.555907,0.005454,-0.030251,0.061426,14.705005,1.524364,-6.614501,1.724084,-1.639790,1.207221,176.938004,-176.889209,-162.887813,0.988046,-0.030448,-0.022858,0.149387,1992.993164,80069.828125,1.353535,-0.306567,0.172607,-0.244385,-0.371060,14.500000,19.649809,0,2.890000,0,0,0, 202
4, 101,11856,11852,-9038,1,1,2.951622,9.389851,0.508800,0.034698,0.012688,0.054906,13.743954,2.485415,-5.172924,0.447832,-0.011119,-1.182017,176.951459,-176.844417,-162.915462,0.988073,-0.030384,-0.023269,0.149154,1992.890137,80066.734375,-0.621927,-0.302216,0.172607,-0.347412,-0.384739,14.500000,19.654356,0,2.890000,0,0,0, 202
5, 101,11906,11902,-8988,1,1,2.936968,9.414332,0.536061,0.002990,-0.015754,0.075363,13.743954,1.524364,-5.653450,0.131040,-2.135058,-1.641998,176.974259,-176.824035,-162.863976,0.988006,-0.030224,-0.023461,0.149598,1992.832764,80070.960938,-1.094000,-0.699627,0.172607,-0.404785,-0.389461,14.500000,19.645260,0,2.890000,0,0,0, 202
6, 101,11956,11951,-8938,1,1,2.890296,9.428477,0.562859,-0.033393,-0.039753,0.076455,13.263428,1.043838,-6.133976,-0.439273,1.004691,-2.116370,176.969628,-176.846903,-162.942933,0.988114,-0.030218,-0.023279,0.148913,1992.830566,80071.640625,-0.295209,-0.695872,0.172607,-0.406982,-0.420820,14.500000,19.654356,0,2.890000,0,0,0, 202
7, 101,12005,12001,-8889,1,1,2.932176,9.428539,0.544269,-0.000373,-0.012985,0.087937,14.224480,1.043838,-6.614501,1.669661,0.737231,0.150164,176.915669,-176.898320,-162.893824,0.988050,-0.030627,-0.022752,0.149338,1992.905273,80070.515625,0.666165,-0.304261,0.172607,-0.332275,-0.356558,14.500000,19.658905,0,2.890000,0,0,0, 202
8, 101,12056,12051,-8838,1,1,2.927620,9.455210,0.561852,-0.019030,-0.029505,0.112949,14.224480,2.485415,-7.095027,-0.176068,0.508348,-0.112331,176.922882,-176.902528,-162.861571,0.988011,-0.030566,-0.022717,0.149614,1993.000977,80067.718750,1.692231,-0.299937,0.172607,-0.236572,-0.370142,14.500000,19.654356,0,2.890000,0,0,0, 202
9, 101,12106,12100,-8788,1,1,2.916206,9.441285,0.525696,-0.021881,0.006900,0.094350,14.705005,2.004889,-6.614501,0.234340,-0.031393,-1.840418,176.917131,-176.872721,-162.874699,0.988176,-0.030364,-0.022986,0.148517,1992.982910,80071.640625,2.415140,0.671394,0.172607,-0.254639,-0.311622,14.500000,19.654356,0,2.890000,0,0,0, 202
10, 101,12156,12150,-8738,1,1,2.930081,9.456062,0.553142,0.011698,-0.031086,0.114006,14.224480,2.004889,-7.575553,0.207823,-2.597558,-0.697245,176.972892,-176.827655,-163.028993,0.988221,-0.030197,-0.023472,0.148174,1993.130127,80067.718750,2.105036,0.675931,0.172607,-0.107422,-0.280787,14.500000,19.654356,0,2.890000,0,0,0, 202
11, 101,12205,12199,-8689,1,1,2.941113,9.436573,0.529836,0.018879,-0.014400,0.097445,13.743954,2.965941,-6.133976,0.717767,-0.475688,1.885725,177.003724,-176.725271,-162.974570,0.988131,-0.030074,-0.024381,0.148657,1992.971436,80069.679688,0.589066,0.680017,0.172607,-0.266113,-0.250118,14.500000,19.654356,0,2.890000,0,0,0, 202
12, 101,12256,12249,-8638,1,1,2.922556,9.457783,0.560574,-0.013009,0.007988,0.113888,14.224480,1.524364,-6.133976,0.005195,-1.752301,1.048650,176.711706,-176.736513,-162.937878,0.988006,-0.032585,-0.023894,0.149032,1993.017334,80067.421875,-1.128964,0.143615,0.172607,-0.220215,-0.311802,14.500000,19.663452,0,2.890000,0,0,0, 202
13, 101,12306,12299,-8588,1,1,2.935852,9.439273,0.545928,0.006480,0.014898,0.099347,13.743954,1.524364,-6.133976,1.965020,-0.717084,0.602379,176.745379,-176.711829,-162.942400,0.988015,-0.032326,-0.024152,0.148991,1992.911377,80068.695312,-0.965424,0.146374,0.172607,-0.326172,-0.305274,14.500000,19.654356,0,2.890000,0,0,0, 202
14, 101,12355,12349,-8539,1,1,2.951703,9.420493,0.543820,0.009824,0.011017,0.086050,13.263428,2.004889,-7.095027,-1.879352,3.345561,1.558841,176.774954,-176.790431,-162.836873,0.987908,-0.031991,-0.023483,0.149879,1992.748413,80071.195312,-3.461437,-0.399618,0.172607,-0.489136,-0.375135,14.500000,19.667999,0,2.890000,0,0,0, 202
15, 101,12405,12399,-8489,1,1,2.898396,9.410526,0.541647,-0.041615,0.010084,0.060554,14.224480,2.485415,-5.653450,1.463635,-1.521633,-0.607003,176.801550,-176.721637,-162.819415,0.987873,-0.031855,-0.024106,0.150038,1992.668335,80072.476562,-3.530126,-0.395924,0.172607,-0.569214,-0.393118,14.500000,19.658905,0,2.890000,0,0,0, 202
16, 101,12455,12449,-8439,1,1,2.922632,9.407229,0.538042,0.034894,-0.021214,0.064372,14.224480,1.524364,-7.095027,0.728431,-2.399384,2.900595,176.979627,-176.654332,-163.127307,0.988302,-0.030340,-0.025001,0.147358,1992.901123,80070.515625,1.253858,-0.782120,0.172607,-0.336426,-0.393869,14.500000,19.658905,0,2.890000,0,0,0, 202
17, 101,12505,12499,-8389,1,1,2.896901,9.450211,0.528563,-0.005693,-0.000555,0.097377,14.224480,1.524364,-6.614501,-0.655231,1.259378,1.529972,176.939028,-176.698742,-163.101092,0.988270,-0.030639,-0.024559,0.147584,1992.795166,80073.304688,2.165550,-0.778232,0.172607,-0.442383,-0.429061,14.500000,19.663452,0,2.890000,0,0,0, 202
18, 101,12556,12549,-8338,1,1,2.918540,9.449609,0.531333,-0.018595,0.000819,0.103289,13.743954,2.004889,-6.614501,-0.171846,-1.498148,0.492837,176.921065,-176.630632,-162.909847,0.987998,-0.030923,-0.025072,0.149251,1992.829590,80068.250000,-1.964356,-0.768732,0.172607,-0.407959,-0.450064,14.500000,19.667999,0,2.900000,0,0,0, 202
19, 101,12606,12598,-8288,1,1,2.888487,9.451952,0.537036,-0.040500,-0.000221,0.096955,13.743954,1.524364,-6.614501,0.701876,-1.051174,-1.582592,176.899454,-176.649415,-162.954093,0.988055,-0.031075,-0.024894,0.148870,1992.844482,80072.031250,0.074225,-0.764431,0.172607,-0.393066,-0.484525,14.500000,19.672548,0,2.890000,0,0,0, 202
20, 101,12655,12648,-8239,1,1,2.905874,9.454348,0.560607,-0.031848,-0.032909,0.105613,12.782902,2.004889,-6.133976,1.577763,-2.191851,1.036185,176.951528,-176.591017,-162.923371,0.988180,-0.032222,-0.025190,0.147743,1992.850342,80069.085938,-0.089052,-0.525776,0.172607,-0.387207,-0.417021,14.500000,19.672548,0,2.890000,0,0,0, 202
21, 101,12706,12698,-8188,1,1,2.906032,9.428645,0.547440,-0.005095,0.001256,0.080500,12.782902,1.524364,-7.575553,-0.046783,-1.023760,1.817509,176.812697,-176.481857,-163.035823,0.988088,-0.032020,-0.026249,0.148218,1992.831787,80072.179688,0.605583,-0.521981,0.172607,-0.405762,-0.440927,14.500000,19.667999,0,2.890000,0,0,0, 202
22, 101,12756,12747,-8138,1,1,2.917583,9.423588,0.564100,0.011584,-0.014247,0.080000,13.743954,2.004889,-7.575553,-0.862618,-0.850884,-1.988953,176.799283,-176.429332,-163.069114,0.988111,-0.032195,-0.026694,0.147945,1992.754639,80074.820312,-0.644998,-0.517533,0.172607,-0.482910,-0.464420,14.500000,19.677095,0,2.890000,0,0,0, 202
23, 101,12822,12804,-8072,1,1,2.902828,9.408664,0.552591,-0.004367,0.001643,0.060780,13.263428,2.004889,-7.095027,-0.457899,-1.061726,0.414062,176.773301,-176.328355,-163.034457,0.988028,-0.032556,-0.027522,0.148270,1992.768188,80069.625000,-2.194817,-0.847207,0.172607,-0.469360,-0.486707,14.500000,19.686192,0,2.890000,0,0,0, 202
24, 101,12895,12883,-7999,1,1,2.933074,9.418246,0.539378,0.015229,0.012340,0.078111,13.263428,1.524364,-5.653450,-0.076110,-0.834648,0.312654,176.786019,-176.228197,-162.997315,0.987866,-0.032009,-0.028497,0.149276,1992.935303,80069.976562,0.289131,-0.524335,0.172607,-0.302246,-0.405470,14.500000,19.645260,0,2.890000,0,0,0, 202
25, 101,12965,12962,-7929,1,1,2.912917,9.449894,0.555085,-0.029089,-0.003543,0.103183,14.224480,1.524364,-6.133976,-1.206071,0.981865,-0.586645,176.811823,-176.290570,-162.907771,0.987862,-0.032303,-0.027862,0.149360,1992.847656,80070.718750,0.781320,-0.518496,0.172607,-0.389893,-0.443734,14.500000,19.622520,0,2.890000,0,0,0, 202
26, 101,13034,13014,-7860,1,1,2.935143,9.403129,0.548538,0.006446,0.022910,0.064811,13.743954,1.524364,-6.614501,0.494744,0.659186,-2.117314,176.670984,-176.395072,-162.903072,0.987848,-0.033384,-0.026776,0.149413,1992.895020,80072.976562,0.490867,-0.193909,0.172607,-0.342529,-0.361621,14.500000,19.613424,0,2.890000,0,0,0, 202
27, 101,13108,13094,-7786,1,1,2.886680,9.475546,0.515638,-0.062771,0.054940,0.117559,13.743954,2.004889,-6.133976,1.702741,0.957939,1.149412,176.719670,-176.391220,-162.881188,0.988334,-0.030588,-0.027145,0.146710,1992.738037,80071.460938,-0.487341,-0.266269,0.172607,-0.499512,-0.398106,14.500000,19.599779,0,2.890000,0,0,0, 202
28, 101,13177,13172,-7717,1,1,2.959109,9.410466,0.547137,0.061469,-0.040725,0.078632,13.743954,1.043838,-5.172924,-0.035547,1.525202,1.320673,177.033449,-176.469152,-163.098101,0.988224,-0.030118,-0.026661,0.147632,1992.913818,80069.351562,-0.639128,-0.259583,0.172607,-0.323730,-0.417088,14.500000,19.604328,0,2.890000,0,0,0, 202
29, 101,13247,13224,-7647,1,1,2.923324,9.427301,0.536956,0.037826,-0.000477,0.083671,13.743954,2.485415,-6.133976,0.972661,0.902917,-0.920234,176.869716,-176.523084,-163.181156,0.988303,-0.031442,-0.026007,0.146944,1992.804443,80074.101562,0.433118,-0.132229,0.172607,-0.433105,-0.378272,14.500000,19.608875,0,2.890000,0,0,0, 202
30, 101,13321,13304,-7573,1,1,2.906137,9.387152,0.543071,0.038201,-0.013148,0.040623,14.224480,0.563312,-5.653450,-0.384932,0.323460,-1.864624,176.893826,-176.509942,-163.214446,0.988072,-0.031792,-0.026127,0.148395,1992.719238,80070.476562,-0.926594,-0.326845,0.172607,-0.518311,-0.416361,14.500000,19.599779,0,2.890000,0,0,0, 202
31, 101,13393,13381,-7501,1,1,2.914419,9.440658,0.553390,0.004694,-0.026515,0.094725,13.743954,2.965941,-7.575553,0.551538,-0.406904,-0.762671,176.939821,-176.428007,-163.071654,0.988153,-0.030984,-0.026888,0.147890,1992.889648,80070.476562,-0.081086,-0.322257,0.172607,-0.347900,-0.439537,14.500000,19.599779,0,2.890000,0,0,0, 202
32, 101,13463,13462,-7431,1,1,2.918293,9.445025,0.532821,0.020670,0.017337,0.098905,13.743954,2.965941,-6.614501,-1.916320,-1.281313,-0.613799,176.801045,-176.439523,-163.142251,0.988209,-0.032150,-0.026629,0.147311,1992.901245,80068.367188,1.163989,-0.077687,0.172607,-0.336304,-0.413935,14.500000,19.604328,0,2.890000,0,0,0, 202
33, 101,13538,13513,-7356,1,1,2.915462,9.446950,0.517689,0.020812,0.048251,0.099001,13.263428,1.043838,-6.133976,-2.079754,1.880836,0.067809,176.710354,-176.503426,-163.153193,0.988146,-0.030656,-0.026318,0.148102,1992.917725,80069.351562,0.696923,0.107028,0.172607,-0.319824,-0.384168,14.500000,19.604328,0,2.890000,0,0,0, 202
34, 101,13611,13594,-7283,1,1,2.910963,9.423436,0.548629,0.005178,-0.014168,0.077037,14.705005,1.524364,-8.056079,-0.402746,1.875521,1.223279,176.890889,-176.595402,-163.053472,0.988166,-0.031196,-0.025376,0.148026,1992.764648,80075.085938,0.141463,0.113115,0.172607,-0.472900,-0.376138,14.500000,19.608875,0,2.890000,0,0,0, 202
35, 101,13685,13672,-7209,1,1,2.911036,9.379271,0.532533,0.018010,-0.009764,0.034040,12.782902,2.004889,-6.614501,1.993655,-1.470062,0.627944,176.941351,-176.615687,-163.046260,0.988176,-0.030737,-0.025264,0.148073,1992.739014,80074.101562,-1.119771,0.021474,0.172607,-0.498535,-0.404370,14.500000,19.608875,0,2.890000,0,0,0, 202
36, 101,13756,13753,-7138,1,1,2.893117,9.455420,0.570135,-0.024994,-0.014701,0.103509,14.224480,2.004889,-6.614501,-0.656618,0.035677,-0.260593,176.787972,-176.718085,-163.031602,0.988144,-0.031932,-0.024178,0.148212,1992.635986,80073.273438,-1.523627,-0.324001,0.172607,-0.601562,-0.467761,14.500000,19.604328,0,2.890000,0,0,0, 202
37, 101,13825,13803,-7069,1,1,2.901502,9.456143,0.529467,-0.014839,0.024845,0.104395,12.782902,2.485415,-6.133976,1.159447,-0.008752,-1.171926,176.792138,-176.719848,-163.031684,0.988146,-0.031894,-0.024169,0.148210,1992.679932,80075.085938,-1.230753,-0.319589,0.172607,-0.557617,-0.482391,14.500000,19.608875,0,2.890000,0,0,0, 202
38, 101,13899,13883,-6995,1,1,2.905674,9.463473,0.533849,-0.017608,0.017830,0.112861,14.705005,3.446467,-6.614501,0.892660,-1.007713,-2.261080,176.810812,-176.634197,-163.011002,0.988100,-0.031847,-0.024926,0.148402,1992.707764,80074.101562,-0.035560,-0.424368,0.172607,-0.529785,-0.459964,14.500000,19.608875,0,2.890000,0,0,0, 202
39, 101,13975,13962,-6919,1,1,2.914528,9.421625,0.523607,0.010110,0.028468,0.074968,13.743954,2.004889,-6.614501,-0.398714,-0.435668,-0.617170,176.787398,-176.732060,-163.043364,0.988163,-0.031916,-0.024060,0.148108,1992.674683,80075.625000,-0.476381,-0.252871,0.172607,-0.562866,-0.445953,14.500000,19.622520,0,2.890000,0,0,0, 202
40, 101,14043,14016,-6851,1,1,2.934412,9.413541,0.520487,0.025202,0.014690,0.072985,13.743954,1.524364,-6.614501,1.415084,-5.039065,-1.108567,176.878732,-176.535474,-163.016384,0.988097,-0.031386,-0.025867,0.148360,1992.838623,80068.070312,-0.537854,-0.323460,0.172607,-0.398926,-0.428152,14.500000,19.613424,0,2.890000,0,0,0, 202
41, 101,14113,14093,-6781,1,1,2.908628,9.409422,0.533891,-0.012787,0.000289,0.062175,13.263428,1.524364,-7.095027,-3.165956,-0.822668,-1.547325,176.894154,-176.501241,-162.938015,0.987989,-0.031315,-0.026161,0.149039,1992.661011,80075.773438,-0.290137,-0.320403,0.172607,-0.576538,-0.442830,14.500000,19.617971,0,2.890000,0,0,0, 202
42, 101,14189,14172,-6705,1,1,2.938884,9.424853,0.541386,0.004732,0.023869,0.086234,14.224480,2.485415,-6.133976,-0.874030,0.520749,0.362751,176.714916,-176.407366,-162.906132,0.987869,-0.032988,-0.026728,0.149374,1992.668579,80071.843750,-0.899796,-0.357202,0.172607,-0.568970,-0.488744,14.500000,19.617971,0,2.890000,0,0,0, 202
43, 101,14260,14251,-6634,1,1,2.908480,9.465816,0.533725,-0.038605,0.042507,0.115778,13.263428,1.043838,-6.614501,0.607719,-2.266649,0.283753,176.677255,-176.299900,-162.895695,0.988134,-0.031597,-0.027832,0.147711,1992.508301,80075.179688,-1.188643,-0.560654,0.172607,-0.729248,-0.551977,14.500000,19.636164,0,2.890000,0,0,0, 202
44, 101,14331,14331,-6563,1,1,2.934665,9.428079,0.536513,0.017343,-0.017495,0.087790,13.743954,1.043838,-6.614501,0.529974,0.339399,0.824239,176.977892,-176.230150,-163.016262,0.988030,-0.030922,-0.028628,0.148396,1992.611206,80073.515625,-0.772705,-0.554179,0.172607,-0.626343,-0.592927,14.500000,19.627068,0,2.890000,0,0,0, 202
45, 101,14403,14382,-6491,1,1,2.902916,9.453881,0.533022,-0.025108,0.017974,0.102835,14.224480,2.004889,-6.614501,1.078247,2.048918,0.163051,176.813858,-176.312085,-162.983613,0.987968,-0.032239,-0.027700,0.148702,1992.583008,80071.546875,-0.448788,-0.624549,0.172607,-0.654541,-0.621827,14.500000,19.627068,0,2.890000,0,0,0, 202
46, 101,14479,14462,-6415,1,1,2.958128,9.427290,0.558226,0.046552,-0.001966,0.095149,13.743954,2.004889,-7.095027,-1.742304,1.550899,-2.539157,176.753657,-176.320773,-163.057666,0.987731,-0.032759,-0.027624,0.150170,1992.499756,80074.492188,-0.962635,-0.708220,0.172607,-0.737793,-0.644967,14.500000,19.627068,0,2.890000,0,0,0, 202
47, 101,14551,14540,-6343,1,1,2.898386,9.465725,0.561764,-0.057152,0.013182,0.114277,13.743954,2.004889,-6.133976,0.354069,0.154500,1.620484,176.690464,-176.327767,-162.852733,0.987767,-0.033314,-0.027367,0.149857,1992.701538,80070.570312,0.154485,-0.700958,0.172607,-0.536011,-0.695730,14.500000,19.627068,0,2.890000,0,0,0, 202
48, 101,14622,14621,-6272,1,1,2.925663,9.451283,0.562330,-0.012520,-0.024249,0.108678,13.263428,2.485415,-6.614501,-1.836883,-2.317384,0.357874,176.884838,-176.204045,-162.943383,0.987901,-0.031776,-0.028713,0.149052,1992.702637,80073.515625,1.347323,-0.332759,0.172607,-0.534912,-0.621350,14.500000,19.627068,0,2.890000,0,0,0, 202
49, 101,14694,14671,-6200,1,1,2.909831,9.368954,0.555658,-0.011278,-0.024475,0.025110,14.224480,1.043838,-5.653450,0.260231,-0.678550,0.777349,176.898034,-176.141317,-162.899001,0.987868,-0.032877,-0.029075,0.148966,1992.596436,80077.289062,0.565037,-0.118443,0.172607,-0.641113,-0.615831,14.500000,19.631617,0,2.890000,0,0,0, 202
50, 101,14768,14750,-6126,1,1,2.888802,9.409481,0.514564,-0.048824,0.039237,0.055184,13.743954,0.082786,-5.653450,0.646377,1.476402,0.830046,176.791674,-176.147792,-162.849851,0.987735,-0.032675,-0.029050,0.149893,1992.534790,80077.140625,-0.856020,-0.116180,0.172607,-0.702759,-0.624413,14.500000,19.636164,0,2.890000,0,0,0, 202
51, 101,14841,14829,-6053,1,1,2.919723,9.470880,0.545711,0.011910,-0.007604,0.124721,13.263428,0.082786,-7.095027,0.864963,1.912113,0.001903,176.880781,-176.218566,-163.143822,0.988164,-0.031742,-0.028638,0.147322,1992.821289,80067.625000,-0.239452,-0.347085,0.172607,-0.416260,-0.614640,14.500000,19.627068,0,2.890000,0,0,0, 202
52, 101,14913,14912,-5981,1,1,2.919132,9.444152,0.551392,0.017252,-0.007756,0.099354,12.782902,3.446467,-7.095027,-0.307174,0.621420,-1.239684,176.838502,-176.197092,-163.136582,0.988136,-0.032136,-0.028767,0.147399,1992.809082,80073.070312,1.421635,0.057813,0.172607,-0.428467,-0.527532,14.500000,19.640713,0,2.890000,0,0,0, 202
53, 101,14983,14962,-5911,1,1,2.931550,9.435274,0.558725,0.028110,-0.015915,0.094934,15.185531,1.524364,-8.536605,-0.142151,-1.307883,-0.972926,176.837245,-176.156207,-163.120996,0.988103,-0.032203,-0.029113,0.147542,1992.681641,80075.031250,0.567645,0.062794,0.172607,-0.555908,-0.524838,14.500000,19.640713,0,2.890000,0,0,0, 202
54, 101,15056,15041,-5838,1,1,2.844512,9.484253,0.577461,-0.076409,-0.035740,0.117097,13.743954,2.485415,-5.653450,0.703703,2.404337,2.107805,176.890425,-176.265572,-163.080015,0.988100,-0.031615,-0.028227,0.147861,1992.672607,80072.234375,-0.981596,0.068936,0.172607,-0.564941,-0.518981,14.500000,19.636164,0,2.890000,0,0,0, 202
55, 101,15127,15120,-5767,1,1,2.960636,9.467459,0.547076,0.021399,0.002664,0.133635,13.743954,2.004889,-6.133976,0.026691,0.895509,1.014997,176.813380,-176.310911,-162.962248,0.987940,-0.032250,-0.027704,0.148886,1992.800781,80072.921875,0.231736,0.051526,0.172607,-0.436768,-0.478327,14.500000,19.645260,0,2.890000,0,0,0, 202
56, 101,15197,15172,-5697,1,1,2.871630,9.461696,0.546599,0.013241,0.010174,0.111872,12.782902,1.524364,-5.653450,-0.659822,3.603243,-0.521709,176.795471,-176.286554,-162.980594,0.987951,-0.032431,-0.027896,0.148737,1992.745361,80071.109375,0.378764,0.057851,0.172607,-0.492188,-0.475808,14.500000,19.640713,0,2.890000,0,0,0, 202
57, 101,15270,15251,-5624,1,1,2.916863,9.429799,0.525562,0.043529,0.012976,0.083501,13.743954,2.485415,-6.133976,1.540274,0.100408,-0.257165,176.855031,-176.405427,-163.256725,0.988360,-0.031700,-0.027024,0.146318,1992.754028,80071.109375,-0.235776,0.133252,0.172607,-0.483521,-0.477245,14.500000,19.640713,0,2.890000,0,0,0, 202
58, 101,15344,15329,-5550,1,1,2.947505,9.452390,0.541485,0.019566,-0.000894,0.115062,12.782902,1.043838,-6.614501,0.640776,-2.173918,1.013351,176.861274,-176.349201,-162.994528,0.988007,-0.031780,-0.027445,0.148589,1992.700439,80071.937500,-0.256157,0.065022,0.172607,-0.537109,-0.503872,14.500000,19.645260,0,2.890000,0,0,0, 202
59, 101,15413,15411,-5481,1,1,2.958133,9.405514,0.547730,0.046455,-0.035739,0.073756,12.782902,1.043838,-6.133976,0.720057,-3.608536,0.690979,177.003246,-176.260162,-163.019677,0.987683,-0.032213,-0.028227,0.150492,1992.750244,80069.679688,-0.429595,-0.056508,0.172607,-0.487305,-0.500144,14.500000,19.654356,0,2.890000,0,0,0, 202
60, 101,15482,15461,-5412,1,1,2.942884,9.448840,0.559461,-0.022527,-0.008953,0.111293,12.302376,2.004889,-7.575553,-2.370572,0.666473,-0.729096,176.817724,-176.202830,-162.784827,0.987675,-0.032396,-0.028591,0.150436,1992.764648,80069.679688,0.098623,-0.051733,0.172607,-0.472900,-0.502744,14.500000,19.654356,0,2.890000,0,0,0, 202
61, 101,15557,15541,-5337,1,1,2.938807,9.378881,0.572095,0.074644,-0.040588,0.043800,13.263428,1.524364,-6.133976,1.086176,0.866702,-0.997767,176.868992,-176.236065,-163.257476,0.988312,-0.031793,-0.028503,0.146342,1992.733398,80072.921875,0.557342,0.168533,0.172607,-0.504150,-0.487736,14.500000,19.645260,0,2.890000,0,0,0, 202
62, 101,15626,15622,-5268,1,1,2.917906,9.447142,0.584195,0.034932,-0.031069,0.103633,12.302376,1.043838,-7.575553,-1.603658,2.291463,-0.012242,176.778478,-176.338914,-163.255277,0.988036,-0.033796,-0.027345,0.147969,1992.705200,80072.476562,-0.382458,0.033349,0.172607,-0.532349,-0.503346,14.625000,19.658905,0,2.890000,0,0,0, 202
63, 101,15697,15673,-5197,1,1,2.927227,9.406419,0.528607,0.007230,0.059907,0.077841,12.782902,2.004889,-6.614501,-0.436377,-1.439690,-0.385718,176.590457,-176.360867,-163.036957,0.987988,-0.034090,-0.027005,0.148285,1992.749512,80071.640625,-0.544418,0.037932,0.172607,-0.488037,-0.501700,14.625000,19.654356,0,2.890000,0,0,0, 202
64, 101,15771,15752,-5123,1,1,2.928390,9.411314,0.533730,0.010159,0.035722,0.069754,14.705005,2.485415,-6.133976,-2.977108,-0.293640,0.770242,176.682336,-176.205029,-162.981127,0.987893,-0.033511,-0.028452,0.148777,1992.887207,80070.515625,0.944212,0.104361,0.172607,-0.350342,-0.458242,14.625000,19.658905,0,2.890000,0,0,0, 202
65, 101,15846,15832,-5048,1,1,2.907955,9.448640,0.540477,-0.020259,0.027206,0.099705,13.743954,2.965941,-7.095027,0.580503,-1.952470,1.557391,176.714056,-176.143093,-162.987001,0.988067,-0.032121,-0.029182,0.147786,1992.701172,80069.382812,0.259205,0.140323,0.172607,-0.536377,-0.482385,14.625000,19.663452,0,2.890000,0,0,0, 202
66, 101,15915,15910,-4979,1,1,2.923677,9.455281,0.578564,-0.017810,-0.042217,0.112772,13.263428,2.004889,-6.133976,0.384655,0.617055,0.903233,176.897624,-176.102248,-162.942687,0.987871,-0.031797,-0.029607,0.149074,1992.831787,80069.679688,0.076465,0.147163,0.172607,-0.405762,-0.472074,14.625000,19.654356,0,2.890000,0,0,0, 202
67, 101,15983,15962,-4911,1,1,2.880121,9.425659,0.555539,-0.038558,-0.000551,0.070438,13.263428,2.965941,-6.614501,-1.334319,1.193753,-0.277607,176.784830,-176.022048,-163.008748,0.987898,-0.032855,-0.030171,0.148550,1992.739990,80071.343750,0.629201,0.257960,0.172607,-0.497559,-0.490082,14.625000,19.663452,0,2.900000,0,0,0, 202
68, 101,16058,16043,-4836,1,1,2.933922,9.399127,0.564746,0.020151,0.003518,0.061556,12.782902,2.485415,-7.095027,-2.777663,-0.657365,-1.495212,176.680355,-175.944334,-163.014882,0.987718,-0.033666,-0.030762,0.149443,1992.729736,80074.140625,0.095673,0.217287,0.172607,-0.507812,-0.499364,14.625000,19.667999,0,2.890000,0,0,0, 202
69, 101,16128,16119,-4766,1,1,2.927315,9.442403,0.545593,-0.019933,0.048891,0.099658,12.782902,1.043838,-6.614501,-1.463931,2.017714,0.021155,176.558437,-175.975152,-162.882308,0.987651,-0.034900,-0.030243,0.149709,1992.745850,80071.343750,0.218269,0.222310,0.172607,-0.491699,-0.483825,14.625000,19.663452,0,2.890000,0,0,0, 202
70, 101,16198,16172,-4696,1,1,2.898711,9.463425,0.581515,-0.009481,-0.013155,0.120002,14.224480,2.485415,-6.614501,-1.133139,-0.989914,0.198649,176.794392,-175.998306,-162.992274,0.987872,-0.032807,-0.030383,0.148694,1992.905518,80066.140625,0.253146,0.111295,0.172607,-0.332031,-0.503246,14.625000,19.672548,0,2.890000,0,0,0, 202
71, 101,16269,16249,-4625,1,1,2.918936,9.446181,0.548596,-0.005227,0.004251,0.101093,13.263428,2.004889,-6.614501,1.607054,1.739577,-0.082955,176.793914,-176.025258,-163.019021,0.987957,-0.032586,-0.030179,0.148218,1992.700928,80076.789062,0.365905,0.172274,0.172607,-0.536621,-0.514611,14.625000,19.677095,0,2.890000,0,0,0, 202
72, 101,16343,16328,-4551,1,1,2.912723,9.389544,0.531720,0.006832,0.003170,0.044312,14.224480,2.485415,-5.653450,-0.688590,0.600526,-0.383355,176.875562,-176.059628,-163.018994,0.987950,-0.032022,-0.029967,0.148430,1992.722900,80073.992188,-0.416604,0.177864,0.172607,-0.514648,-0.501926,14.625000,19.672548,0,2.890000,0,0,0, 202
73, 101,16412,16407,-4482,1,1,2.933260,9.431494,0.533861,0.006170,0.018767,0.090497,12.782902,1.043838,-6.614501,-0.183514,-1.449627,2.770936,176.787480,-176.024425,-162.975048,0.987856,-0.032838,-0.030144,0.148839,1992.679688,80069.773438,-1.186044,-0.102588,0.172607,-0.557861,-0.522126,14.625000,19.681644,0,2.890000,0,0,0, 202
74, 101,16485,16458,-4409,1,1,2.919674,9.421114,0.533331,-0.017882,0.016984,0.054728,13.743954,2.004889,-6.614501,-1.922836,-0.689257,1.200558,176.749737,-175.960044,-162.948001,0.987935,-0.032512,-0.030731,0.148265,1992.744141,80072.710938,-0.086762,-0.113385,0.172607,-0.493408,-0.502163,14.625000,19.681644,0,2.890000,0,0,0, 202
75, 101,16557,16538,-4337,1,1,2.916620,9.417575,0.519177,-0.014532,0.039145,0.071446,14.224480,1.043838,-6.614501,-1.258293,-1.895829,2.256309,176.756539,-175.846239,-162.926718,0.987723,-0.033346,-0.031626,0.149299,1992.731689,80072.562500,0.403055,-0.108580,0.172607,-0.505859,-0.510186,14.625000,19.686192,0,2.890000,0,0,0, 202
76, 101,16630,16617,-4264,1,1,2.922610,9.421326,0.530113,0.002373,0.019242,0.077445,13.743954,2.004889,-6.614501,-0.158905,0.075965,0.667799,176.803108,-175.844313,-163.003011,0.987835,-0.032926,-0.031726,0.148629,1992.677979,80070.898438,-0.910737,-0.233769,0.172607,-0.559570,-0.516102,14.625000,19.677095,0,2.890000,0,0,0, 202
77, 101,16701,16699,-4193,1,1,2.920635,9.435918,0.520637,-0.000033,-0.003216,0.090295,12.782902,2.004889,-6.133976,0.821858,-1.496945,0.235933,176.993520,-175.856293,-163.020086,0.987915,-0.031265,-0.031874,0.148427,1992.822021,80070.750000,0.166962,-0.236571,0.172607,-0.415527,-0.491899,14.625000,19.681644,0,2.890000,0,0,0, 202
78, 101,16769,16748,-4125,1,1,2.888473,9.438039,0.545511,-0.027893,-0.016910,0.084159,12.782902,1.524364,-6.614501,-1.488092,1.082109,0.896261,176.937990,-175.867153,-163.049962,0.987942,-0.031721,-0.031717,0.148183,1992.758667,80072.562500,0.805474,-0.232468,0.172607,-0.478882,-0.502568,14.625000,19.686192,0,2.890000,0,0,0, 202
79, 101,16842,16827,-4052,1,1,2.898361,9.401717,0.534519,-0.004708,0.001963,0.051841,14.224480,-0.397740,-5.172924,-1.623601,-1.566852,1.276410,176.872284,-175.772760,-163.069100,0.987916,-0.032403,-0.032451,0.148054,1992.676758,80072.414062,-0.461357,-0.004388,0.172607,-0.560791,-0.480204,14.625000,19.690741,0,2.890000,0,0,0, 202
80, 101,16912,16906,-3982,1,1,2.937312,9.472048,0.557969,0.016927,0.014167,0.131690,13.263428,1.524364,-6.133976,-0.660970,1.210419,1.162940,176.682159,-175.805354,-163.105669,0.987919,-0.033990,-0.031935,0.147785,1992.664307,80072.414062,-1.039960,-0.257137,0.172607,-0.573242,-0.518146,14.625000,19.690741,0,2.890000,0,0,0, 202
81, 101,16982,16958,-3912,1,1,2.932563,9.380184,0.527603,-0.020374,0.029929,0.103835,13.263428,0.563312,-6.133976,-1.414300,-2.762619,0.115142,176.603571,-175.766435,-163.058745,0.987821,-0.034730,-0.032155,0.148220,1992.784668,80068.492188,0.392764,-0.251930,0.172607,-0.452881,-0.530229,14.625000,19.690741,0,2.890000,0,0,0, 202
82, 101,17056,17038,-3838,1,1,2.893215,9.406012,0.520548,-0.035598,0.017540,0.053600,14.705005,2.485415,-6.614501,-0.463967,-2.145666,-1.609804,176.877079,-175.597771,-162.927961,0.987671,-0.032626,-0.033926,0.149301,1992.595337,80076.195312,-0.043071,-0.098711,0.172607,-0.642212,-0.499586,14.625000,19.695288,0,2.890000,0,0,0, 202
83, 101,17131,17118,-3763,1,1,2.878357,9.456034,0.531073,-0.047279,0.009177,0.097547,12.782902,2.004889,-6.133976,-1.708404,3.148219,-3.141264,176.883349,-175.650896,-163.029348,0.987824,-0.032474,-0.033505,0.148416,1992.694336,80071.289062,-0.678459,-0.177499,0.172607,-0.543213,-0.528549,14.625000,19.695288,0,2.890000,0,0,0, 202
84, 101,17199,17200,-3695,1,1,2.888162,9.393321,0.544102,-0.021952,-0.013122,0.041325,13.743954,1.524364,-5.653450,1.601213,0.372633,0.376626,176.907978,-175.671619,-163.020674,0.987956,-0.032864,-0.033234,0.147508,1992.745605,80075.062500,0.513056,-0.011437,0.172607,-0.491943,-0.515058,14.625000,19.699837,0,2.890000,0,0,0, 202
85, 101,17269,17249,-3625,1,1,2.898050,9.422626,0.521070,0.010101,0.024291,0.070949,14.224480,2.004889,-6.614501,0.068912,-0.802182,-1.531581,176.820142,-175.644721,-163.193573,0.988015,-0.032979,-0.033524,0.147020,1992.758667,80070.156250,0.502934,-0.007593,0.172607,-0.478882,-0.515569,14.625000,19.699837,0,2.890000,0,0,0, 202
86, 101,17345,17329,-3549,1,1,2.942483,9.513404,0.575596,0.036121,-0.019373,0.173602,14.224480,1.524364,-6.133976,-0.951782,0.725190,-3.709629,176.777563,-175.626280,-163.274975,0.988100,-0.033346,-0.033652,0.146334,1992.772583,80069.179688,-0.329645,-0.176376,0.172607,-0.464966,-0.536830,14.625000,19.699837,0,2.890000,0,0,0, 202
87, 101,17415,17409,-3479,1,1,2.948798,9.398451,0.530578,0.082187,0.034096,0.063070,13.743954,2.485415,-6.133976,-0.865348,1.700418,1.188112,176.674714,-175.761599,-163.288663,0.987633,-0.032400,-0.032712,0.149872,1992.919678,80067.210938,1.021927,0.111842,0.172607,-0.317871,-0.470875,14.625000,19.699837,0,2.890000,0,0,0, 202
88, 101,17485,17460,-3409,1,1,2.991375,9.535195,0.573354,0.023400,0.021173,0.066905,12.782902,2.004889,-6.133976,-0.438318,2.139310,-1.715411,176.786620,-175.771681,-162.894957,0.987664,-0.033192,-0.032299,0.149579,1992.974487,80065.937500,1.587055,0.114864,0.172607,-0.263062,-0.465448,14.625000,19.708933,0,2.890000,0,0,0, 202
89, 101,17559,17539,-3335,1,1,2.917631,9.324393,0.514484,-0.029276,0.022333,-0.017329,13.263428,1.043838,-6.133976,1.013318,-0.127052,-2.377843,176.859375,-175.812006,-162.673728,0.987409,-0.032575,-0.031984,0.151458,1992.888916,80071.820312,1.041460,0.486200,0.172607,-0.348633,-0.409337,14.625000,19.708933,0,2.890000,0,0,0, 202
90, 101,17632,17619,-3262,1,1,2.951375,9.458264,0.549698,-0.026320,0.003774,0.122247,13.743954,2.485415,-6.133976,-1.266552,1.501547,-0.515387,176.805430,-175.895020,-162.745431,0.987702,-0.032780,-0.031204,0.149655,1992.682495,80070.843750,-1.248516,0.065173,0.172607,-0.555054,-0.459252,14.625000,19.708933,0,2.890000,0,0,0, 202
91, 101,17700,17697,-3194,1,1,3.021272,9.378007,0.510287,0.124683,0.026410,0.064052,12.302376,0.082786,-6.614501,2.798873,-0.800817,-3.126584,176.822137,-175.909569,-163.082009,0.987966,-0.032657,-0.031210,0.147930,1992.823730,80069.859375,0.160271,0.075132,0.172607,-0.413818,-0.454303,14.625000,19.708933,0,2.890000,0,0,0, 202
92, 101,17770,17748,-3124,1,1,2.987979,9.413537,0.503269,0.042021,-0.013261,0.088087,13.263428,1.524364,-6.614501,3.534958,-0.495915,-2.087844,177.134522,-175.871989,-162.845015,0.987730,-0.030078,-0.031875,0.149894,1992.693848,80077.414062,0.873369,0.334793,0.172607,-0.543701,-0.415504,14.625000,19.718027,0,2.890000,0,0,0, 202
93, 101,17845,17828,-3049,1,1,3.080483,9.357430,0.527229,0.149451,-0.076086,0.063112,13.263428,2.485415,-6.614501,2.473568,-2.767844,0.981868,177.305045,-175.747461,-162.878032,0.986626,-0.031960,-0.032856,0.156426,1992.795898,80064.804688,-0.248739,0.191062,0.172607,-0.441650,-0.428373,14.625000,19.713480,0,2.890000,0,0,0, 202
94, 101,17915,17906,-2979,1,1,3.032004,9.388656,0.487548,-0.034565,0.022078,0.077053,12.782902,1.043838,-6.133976,1.718741,-0.926345,-1.688849,177.049951,-175.646647,-162.116712,0.986655,-0.031311,-0.033509,0.156231,1992.875000,80070.546875,0.567840,0.195876,0.172607,-0.362549,-0.414550,14.625000,19.718027,0,2.890000,0,0,0, 202
95, 101,17985,17959,-2909,1,1,3.020772,9.405030,0.485219,-0.009331,0.012902,0.094255,13.263428,2.485415,-6.133976,0.000091,-2.164554,-1.980570,177.046836,-175.599888,-162.352845,0.986957,-0.031331,-0.033972,0.154206,1992.861450,80070.250000,0.074535,0.492870,0.172607,-0.376099,-0.404974,14.625000,19.727123,0,2.890000,0,0,0, 202
96, 101,18056,18037,-2838,1,1,3.031208,9.398046,0.506153,0.014165,-0.002257,0.086744,13.743954,-0.397740,-7.095027,0.599880,0.360627,-1.063532,177.063543,-175.548470,-162.434698,0.986951,-0.031310,-0.034464,0.154145,1992.939331,80073.335938,0.694660,0.540605,0.172607,-0.298218,-0.382308,14.625000,19.722576,0,2.890000,0,0,0, 202
97, 101,18131,18115,-2763,1,1,3.062642,9.405047,0.514785,0.023808,-0.018709,0.103483,13.263428,1.524364,-5.653450,1.929976,1.258530,3.174532,177.109387,-175.579083,-162.331644,0.986938,-0.030827,-0.034230,0.154374,1992.762817,80073.335938,-0.151220,0.547046,0.172607,-0.474731,-0.343062,14.625000,19.722576,0,2.890000,0,0,0, 202
98, 101,18200,18194,-2694,1,1,3.075635,9.385553,0.482549,-0.000334,0.036674,0.087360,13.263428,1.524364,-6.133976,-1.500550,-0.383196,1.580265,176.981949,-175.516505,-162.073641,0.986530,-0.032085,-0.034525,0.156644,1992.792725,80073.187500,-1.184128,0.133719,0.172607,-0.444824,-0.397557,14.625000,19.727123,0,2.890000,0,0,0, 202
99, 101,18273,18246,-2621,1,1,3.071687,9.393202,0.482580,-0.015061,0.036803,0.040062,14.224480,2.485415,-7.095027,-1.481233,-0.129979,1.187209,176.985651,-175.525084,-162.023002,0.986625,-0.030420,-0.034684,0.156340,1993.024536,80070.781250,1.324428,0.297501,0.172607,-0.213013,-0.329689,14.625000,19.740768,0,2.890000,0,0,0, 202
100, 101,18344,18325,-2550,1,1,3.075205,9.404574,0.487837,-0.018128,0.004128,0.105591,13.743954,1.524364,-6.133976,-0.391375,0.051536,-0.132416,177.153059,-175.499293,-162.009819,0.986483,-0.030655,-0.034890,0.157145,1992.884766,80073.875000,1.197174,0.303508,0.172607,-0.352783,-0.308414,14.625000,19.736219,0,2.890000,0,0,0, 202
101, 101,18418,18405,-2476,1,1,3.036244,9.412010,0.492828,-0.015990,-0.003950,0.100885,13.743954,1.524364,-7.095027,-1.026931,0.685177,-0.318209,177.168523,-175.524483,-162.251253,0.986825,-0.030414,-0.034759,0.155057,1992.842041,80071.914062,-0.936231,0.380124,0.172607,-0.395508,-0.290222,14.625000,19.736219,0,2.890000,0,0,0, 202
102, 101,18489,18486,-2405,1,1,3.154941,9.283541,0.487507,0.062340,0.005341,0.015900,13.743954,1.043838,-7.575553,-1.854345,1.100149,6.906341,177.085167,-175.529373,-161.818205,0.986212,-0.031256,-0.034486,0.158809,1992.883423,80067.304688,-1.508797,-0.136369,0.172607,-0.354126,-0.365775,14.625000,19.727123,0,2.890000,0,0,0, 202
103, 101,18556,18536,-2338,1,1,2.523286,9.309395,-0.229881,-0.806301,0.789436,-0.219178,14.705005,2.485415,-6.614501,0.337275,2.901833,56.941163,177.038408,-175.550260,-159.918088,0.983438,-0.032193,-0.033712,0.175150,1992.754028,80074.851562,-0.954151,-0.138493,0.172607,-0.483521,-0.372000,14.625000,19.736219,0,2.890000,0,0,0, 202
104, 101,18631,18616,-2263,1,1,2.143479,9.644452,1.023528,-0.979490,-0.715296,0.057322,12.782902,2.004889,-5.653450,-0.845583,1.557521,21.026410,178.617903,-175.706384,-162.211611,0.987140,-0.017699,-0.035144,0.154937,1992.667480,80074.703125,-1.066818,-0.283295,0.172607,-0.570068,-0.436817,14.625000,19.740768,0,2.890000,0,0,0, 202
105, 101,18702,18695,-2192,1,1,2.150166,9.655326,0.622436,-0.184899,0.025661,0.108647,12.782902,3.446467,-5.653450,1.165292,-0.770081,6.244107,176.317891,-175.907410,-166.629746,0.991922,-0.036043,-0.031708,0.117418,1992.871094,80069.796875,0.233656,-0.367852,0.172607,-0.366455,-0.428117,14.625000,19.740768,0,2.890000,0,0,0, 202
106, 101,18772,18747,-2122,1,1,2.159978,9.614601,0.542310,-0.038992,0.088997,0.052975,13.263428,1.043838,-6.614501,-0.144055,-2.832499,-7.646321,176.362574,-175.841144,-166.922378,0.992209,-0.035640,-0.032419,0.114888,1992.951904,80069.648438,1.680203,-0.362485,0.172607,-0.285645,-0.445408,14.625000,19.745316,0,2.890000,0,0,0, 202
107, 101,18844,18826,-2050,1,1,2.331216,9.558294,0.489540,0.316478,0.050990,0.044428,12.782902,3.926993,-6.614501,-1.163147,6.948664,-22.121197,176.718222,-176.025313,-168.339492,0.993720,-0.031991,-0.031578,0.102467,1993.051514,80069.648438,1.971451,0.131013,0.172607,-0.186035,-0.375198,14.625000,19.745316,0,2.890000,0,0,0, 202
108, 101,18918,18905,-1976,1,1,2.624482,9.472383,0.490008,0.245393,0.121861,0.036631,12.782902,2.004889,-6.614501,-2.289042,4.156509,-14.549505,176.330404,-176.069245,-166.143996,0.991473,-0.035900,-0.030168,0.121579,1992.925781,80072.593750,1.017490,0.527077,0.172607,-0.311768,-0.319373,14.625000,19.745316,0,2.890000,0,0,0, 202
109, 101,18986,18958,-1908,1,1,2.671559,9.519507,0.536852,0.328910,0.093488,0.094935,12.782902,2.485415,-6.133976,-0.789512,2.989389,-3.261967,176.218580,-176.282292,-166.436369,0.990070,-0.031931,-0.029348,0.133718,1992.821045,80070.484375,-1.923909,-0.067024,0.172607,-0.416504,-0.356129,14.625000,19.749863,0,2.890000,0,0,0, 202
110, 101,19057,19037,-1837,1,1,2.666252,9.505725,0.569800,0.037782,-0.020621,0.087909,12.782902,2.004889,-7.095027,-1.822818,-0.462423,-2.787061,176.794283,-176.181929,-164.772221,0.990122,-0.032122,-0.029302,0.133295,1992.834839,80073.429688,-1.590973,-0.062938,0.172607,-0.402710,-0.359219,14.625000,19.749863,0,2.890000,0,0,0, 202
111, 101,19132,19116,-1762,1,1,2.681071,9.455193,0.555938,0.072662,0.016964,0.042389,13.743954,2.485415,-6.133976,-1.427041,-0.724812,-0.736135,176.627531,-176.131850,-164.812765,0.990105,-0.033609,-0.029553,0.132998,1992.770264,80074.257812,-0.756875,-0.213679,0.172607,-0.467285,-0.362374,14.625000,19.754412,0,2.890000,0,0,0, 202
112, 101,19201,19196,-1693,1,1,2.667140,9.498772,0.576885,0.066297,0.008357,0.081744,13.263428,1.524364,-6.133976,-0.151497,1.826702,-2.763734,176.571906,-176.174648,-164.925791,0.989843,-0.033547,-0.029305,0.135004,1992.845947,80072.984375,-0.558936,-0.298118,0.172607,-0.391602,-0.367273,14.625000,19.763508,0,2.890000,0,0,0, 202
113, 101,19272,19247,-1622,1,1,2.668262,9.519538,0.580210,0.011551,0.021132,0.057812,12.782902,2.004889,-7.095027,-0.513725,0.851030,-0.503931,176.632981,-176.164444,-164.571537,0.989835,-0.033587,-0.029207,0.135073,1993.026611,80064.296875,0.913615,-0.293683,0.172607,-0.210938,-0.381459,14.625000,19.758959,0,2.890000,0,0,0, 202
114, 101,19346,19326,-1548,1,1,2.663171,9.517633,0.543257,0.009433,0.037540,0.097053,13.263428,2.004889,-5.653450,-1.666402,2.236815,-0.925508,176.626015,-176.229836,-164.629948,0.989923,-0.033556,-0.028651,0.134557,1992.851562,80072.984375,0.461897,-0.067869,0.172607,-0.385986,-0.349214,14.625000,19.763508,0,2.890000,0,0,0, 202
115, 101,19420,19407,-1474,1,1,2.680581,9.504817,0.560363,0.030439,0.023237,0.090390,12.302376,1.524364,-6.133976,0.243834,0.777506,-0.551885,176.599117,-176.234576,-164.641259,0.989778,-0.032694,-0.028770,0.135805,1993.057495,80068.078125,0.853181,0.153816,0.172607,-0.180054,-0.299414,14.625000,19.763508,0,2.890000,0,0,0, 202
116, 101,19489,19486,-1405,1,1,2.655973,9.509501,0.575647,-0.009236,-0.017575,0.089186,12.782902,2.485415,-6.614501,0.648669,2.060215,-0.412765,176.761826,-176.385401,-164.552439,0.989919,-0.032221,-0.027444,0.135160,1992.965576,80069.054688,0.700208,0.161005,0.172607,-0.271973,-0.287985,14.625000,19.763508,0,2.890000,0,0,0, 202
117, 101,19558,19537,-1336,1,1,2.673886,9.553038,0.536071,-0.019409,0.019871,0.133626,13.743954,2.004889,-5.653450,0.314736,-0.096572,0.125210,176.793177,-176.414292,-164.444823,0.989810,-0.031942,-0.027201,0.136076,1992.943604,80069.054688,-0.443894,0.123718,0.172607,-0.293945,-0.307506,14.625000,19.763508,0,2.890000,0,0,0, 202
118, 101,19632,19618,-1262,1,1,2.688577,9.538505,0.594804,-0.029658,-0.055859,0.126805,14.224480,1.524364,-5.653450,0.219393,-0.368341,1.572789,176.891613,-176.413555,-164.302413,0.989768,-0.033669,-0.026896,0.136021,1992.942993,80068.078125,-0.745420,-0.088821,0.172607,-0.294556,-0.305754,14.625000,19.763508,0,2.890000,0,0,0, 202
119, 101,19701,19695,-1193,1,1,2.682788,9.493795,0.565115,0.002966,0.029262,0.080700,14.224480,2.485415,-7.575553,-0.619071,0.985056,-1.033886,176.544667,-176.481010,-164.439673,0.989752,-0.034012,-0.026328,0.136164,1993.177734,80065.132812,1.353717,-0.081139,0.172607,-0.059814,-0.311906,14.625000,19.763508,0,2.890000,0,0,0, 202
120, 101,21488,21446,594,1,1,2.512341,9.574639,0.556964,-0.303178,0.047875,0.108671,12.782902,2.485415,-8.056079,2.837040,-0.723933,-0.558120,176.627066,-175.590940,-163.785641,0.988685,-0.034537,-0.033919,0.141981,1992.830688,80073.429688,-0.626212,-0.576184,0.172607,-0.406860,-0.289343,14.500000,19.749863,2,2.900000,0,0,0, 202
121, 101,21729,21711,835,1,1,2.489604,9.569405,0.563250,-0.378896,0.091028,0.077751,12.302376,0.563312,-7.575553,-1.174006,-1.391472,0.452121,176.418828,-175.657152,-163.644639,0.988470,-0.036293,-0.033044,0.143244,1993.116821,80068.039062,0.865148,0.442383,0.172607,-0.120728,-0.159664,14.500000,19.854464,2,2.900000,0,0,0, 202
122, 101,21787,21772,893,1,1,2.475125,9.569860,0.572265,-0.356805,0.085701,0.093508,13.743954,2.485415,-6.133976,-1.770702,2.129023,-1.146141,176.335445,-175.668996,-163.675744,0.988486,-0.036989,-0.032848,0.142997,1993.054932,80070.382812,0.272296,0.576540,0.172607,-0.182617,-0.152384,14.500000,19.872656,2,2.890000,0,0,0, 202
123, 101,21843,21827,949,1,1,2.476716,9.595646,0.592564,-0.356812,0.060183,0.120227,13.263428,3.446467,-5.653450,2.703273,-1.156818,-1.198645,176.374691,-175.675034,-163.717339,0.988553,-0.036631,-0.032858,0.142625,1993.139771,80066.671875,0.001267,0.580988,0.172607,-0.097778,-0.123407,14.500000,19.836273,2,2.890000,0,0,0, 202
124, 101,21902,21890,1008,1,1,2.494138,9.563098,0.573343,-0.330973,0.094848,0.092622,12.782902,2.004889,-6.614501,-2.872279,-1.066301,0.194621,176.265381,-175.640814,-163.711192,0.988497,-0.037618,-0.033015,0.142718,1993.071289,80068.632812,-0.170211,0.419512,0.172607,-0.166260,-0.158310,14.500000,19.836273,2,2.890000,0,0,0, 202
125, 101,21957,21945,1063,1,1,2.490043,9.521651,0.566641,-0.323472,0.104921,0.051289,12.782902,2.485415,-6.133976,-1.830819,-1.627264,-0.049136,176.228702,-175.580845,-163.710537,0.988462,-0.038008,-0.033487,0.142748,1993.098877,80070.210938,0.224199,0.424252,0.172607,-0.138672,-0.137556,14.625000,19.818081,2,2.890000,0,0,0, 202
126, 101,22015,22004,1121,1,1,2.469958,9.545233,0.564786,-0.365652,0.102452,0.067483,13.743954,2.004889,-5.653450,1.364814,-1.961451,1.791775,176.281281,-175.510986,-163.618097,0.988338,-0.037668,-0.034125,0.143546,1993.167603,80067.117188,0.481035,0.357652,0.172607,-0.069946,-0.141572,14.625000,19.822630,2,2.890000,0,0,0, 202
127, 101,22070,22058,1176,1,1,2.468634,9.575587,0.566117,-0.377025,0.093200,0.096256,12.782902,2.004889,-7.095027,0.678270,-0.521756,1.362712,176.344747,-175.461358,-163.612277,0.988332,-0.037183,-0.034631,0.143589,1993.217163,80067.265625,0.745165,0.361610,0.172607,-0.020386,-0.123865,14.625000,19.818081,2,2.890000,0,0,0, 202
128, 101,22130,22114,1236,1,1,2.488650,9.553433,0.545321,-0.358487,0.103513,0.079264,12.782902,2.004889,-6.133976,0.384052,-0.622903,1.262571,176.392053,-175.437288,-163.564152,0.988278,-0.036819,-0.034882,0.143995,1993.120117,80070.601562,0.593091,0.492883,0.172607,-0.117432,-0.100934,14.625000,19.836273,2,2.900000,0,0,0, 202
129, 101,22187,22173,1293,1,1,2.467591,9.576526,0.562542,-0.393415,0.086469,0.096123,13.263428,2.485415,-6.614501,0.243067,-0.100496,0.204210,176.413322,-175.423177,-163.524714,0.988230,-0.036665,-0.035018,0.144331,1993.225098,80064.179688,0.206484,0.497864,0.172607,-0.012451,-0.074692,14.625000,19.822630,2,2.900000,0,0,0, 202
130, 101,22251,22229,1357,1,1,2.488066,9.598073,0.577526,-0.377031,0.074341,0.123683,13.743954,1.524364,-5.653450,-0.442982,-0.475612,-0.381536,176.400167,-175.381978,-163.550792,0.988242,-0.036822,-0.035365,0.144120,1993.384277,80065.304688,1.104487,0.546418,0.172607,0.146729,-0.029585,14.625000,19.818081,2,2.900000,0,0,0, 202
131, 101,22309,22293,1415,1,1,2.481914,9.592651,0.564977,-0.372821,0.088803,0.116216,13.743954,2.485415,-6.614501,0.705272,1.693576,0.254489,176.381876,-175.470346,-163.589806,0.988319,-0.036858,-0.034593,0.143769,1993.369507,80067.117188,2.222497,0.552893,0.187378,0.131958,0.002476,14.625000,19.822630,2,2.900000,0,0,0, 202
132, 101,22373,22353,1479,1,1,2.497946,9.565251,0.567731,-0.331527,0.103384,0.095236,13.743954,0.563312,-6.133976,-2.920504,1.220570,-1.675878,176.255559,-175.446454,-163.698515,0.988405,-0.037944,-0.034676,0.142875,1993.215576,80069.914062,0.983166,0.886531,0.187378,-0.021973,0.017371,14.625000,19.827177,2,2.900000,0,0,0, 202
133, 101,22430,22415,1536,1,1,2.501702,9.560565,0.579618,-0.329422,0.114648,0.092291,13.743954,2.485415,-6.133976,-1.305358,0.456786,0.351628,176.117903,-175.488351,-163.685361,0.988358,-0.039084,-0.034139,0.143020,1993.396362,80064.179688,0.377975,0.891837,0.187378,0.158813,0.066779,14.625000,19.822630,2,2.900000,0,0,0, 202
134, 101,22493,22471,1599,1,1,2.530534,9.598983,0.567956,-0.318515,0.128600,0.136236,13.263428,1.524364,-6.614501,-1.303554,-0.346841,0.698171,176.117944,-175.464514,-163.647070,0.988301,-0.039125,-0.034331,0.143356,1993.427246,80061.382812,0.155300,0.643306,0.189697,0.189697,0.018162,14.625000,19.818081,2,2.890000,0,0,0, 202
135, 101,22731,22728,1837,1,1,2.471488,9.586104,0.550138,-0.375980,0.152173,0.105552,13.263428,2.485415,-6.133976,0.417015,-0.106694,-0.452127,176.101073,-175.421401,-163.614449,0.988238,-0.039333,-0.034671,0.143653,1993.151123,80066.015625,-1.829803,-0.567570,0.287598,-0.086426,-0.049551,14.625000,19.886299,2,2.890000,0,0,0, 202
136, 101,22788,22765,1894,1,1,2.479584,9.579077,0.543846,-0.362958,0.134805,0.102979,12.782902,1.524364,-6.133976,-0.321366,3.119643,-1.177201,176.160769,-175.372046,-163.633629,0.988263,-0.038873,-0.035178,0.143481,1993.104980,80068.273438,-0.727030,-0.564122,0.287598,-0.132568,-0.068091,14.625000,19.877203,2,2.900000,0,0,0, 202
137, 101,22845,22823,1951,1,1,2.474372,9.584390,0.542179,-0.354101,0.173768,0.089545,13.263428,2.965941,-6.614501,-0.474981,1.871881,0.577666,176.092782,-175.478092,-163.710660,0.988377,-0.039306,-0.034204,0.142812,1993.183105,80067.054688,0.269308,-0.614326,0.287598,-0.054443,-0.073267,14.625000,19.854464,2,2.890000,0,0,0, 202
138, 101,22903,22884,2009,1,1,2.493814,9.584454,0.561936,-0.339818,0.151297,0.111531,13.743954,2.004889,-6.133976,-1.321730,2.031336,0.275842,176.019070,-175.559658,-163.695701,0.988364,-0.039846,-0.033403,0.142942,1993.265503,80064.945312,0.487577,-0.609383,0.287598,0.027954,-0.104210,14.625000,19.859013,2,2.900000,0,0,0, 202
139, 101,22962,22942,2068,1,1,2.485514,9.537992,0.555324,-0.323875,0.156473,0.064600,13.743954,1.524364,-7.575553,-0.474435,1.519287,-0.892927,176.001312,-175.564931,-163.755903,0.988435,-0.039976,-0.033357,0.142427,1992.994629,80072.945312,-0.079599,-0.375738,0.287598,-0.242920,-0.077632,14.625000,19.854464,2,2.900000,0,0,0, 202
140, 101,23019,23003,2125,1,1,2.489887,9.525539,0.574656,-0.312109,0.144605,0.055335,13.743954,2.485415,-5.653450,-0.516102,0.411891,-1.285234,175.948487,-175.557718,-163.789015,0.988455,-0.040430,-0.033365,0.142159,1993.246338,80063.429688,-0.001991,-0.371584,0.287598,0.008789,-0.097180,14.625000,19.845369,2,2.900000,0,0,0, 202
141, 101,23078,23062,2184,1,1,2.465943,9.558990,0.564328,-0.359166,0.160957,0.079219,12.782902,2.485415,-6.133976,1.262673,1.853776,0.733720,175.942367,-175.637577,-163.693652,0.988364,-0.040413,-0.032635,0.142962,1993.290771,80067.210938,0.637635,-0.242885,0.287598,0.053223,-0.031663,14.625000,19.849916,2,2.900000,0,0,0, 202
142, 101,23134,23120,2240,1,1,2.455317,9.563919,0.540617,-0.361964,0.191799,0.079364,13.263428,2.965941,-7.095027,-0.804112,-0.885927,-1.639584,175.902424,-175.658764,-163.732994,0.988407,-0.040721,-0.032416,0.142629,1993.196289,80067.359375,0.858017,-0.238883,0.287598,-0.041260,-0.044281,14.625000,19.845369,2,2.890000,0,0,0, 202
143, 101,23189,23177,2295,1,1,2.487532,9.583430,0.565997,-0.341541,0.161810,0.108968,13.743954,2.004889,-6.133976,1.631539,-2.050252,0.199372,175.934075,-175.574316,-163.719962,0.988370,-0.040555,-0.033180,0.142754,1993.156006,80068.335938,-0.264744,-0.093806,0.287598,-0.081543,-0.039360,14.625000,19.845369,2,2.900000,0,0,0, 202
144, 101,23251,23233,2357,1,1,2.494494,9.597178,0.600415,-0.336459,0.144808,0.126469,13.743954,2.004889,-5.653450,-3.110585,-0.174269,-0.684471,175.838057,-175.554412,-163.749619,0.988365,-0.041398,-0.033242,0.142531,1993.097412,80070.984375,-0.591404,-0.088596,0.287598,-0.140137,-0.043994,14.750000,19.854464,2,2.890000,0,0,0, 202
145, 101,23308,23293,2414,1,1,2.471734,9.538520,0.569307,-0.338044,0.185538,0.061466,13.743954,0.563312,-7.095027,-1.401081,0.780727,-0.584568,175.755357,-175.593263,-163.755780,0.988358,-0.042063,-0.032806,0.142491,1993.186279,80065.242188,-0.455972,-0.248593,0.287598,-0.051270,-0.076993,14.750000,19.849916,2,2.890000,0,0,0, 202
146, 101,23371,23351,2477,1,1,2.446083,9.579807,0.569562,-0.363270,0.208819,0.093688,12.782902,1.524364,-6.614501,-1.067776,-1.515720,-0.710590,175.643246,-175.627550,-163.817060,0.988405,-0.042970,-0.032394,0.141985,1993.258911,80066.226562,0.136638,-0.245389,0.287598,0.021362,-0.089753,14.750000,19.849916,2,2.890000,0,0,0, 202
147, 101,23430,23414,2536,1,1,2.467254,9.568605,0.600034,-0.343211,0.180839,0.091173,12.302376,2.004889,-6.614501,-1.911097,-1.807852,-0.916762,175.622660,-175.466686,-163.820612,0.988340,-0.043342,-0.033758,0.142006,1993.281738,80066.078125,1.006262,-0.045599,0.287598,0.044189,-0.046647,14.750000,19.854464,2,2.890000,0,0,0, 202
148, 101,23491,23471,2597,1,1,2.494017,9.568230,0.566646,-0.315780,0.220387,0.095663,13.743954,2.485415,-5.653450,-0.698382,-1.273581,-0.128653,175.579944,-175.382059,-163.819847,0.988290,-0.043813,-0.034435,0.142049,1993.305786,80066.226562,0.946473,-0.041795,0.287598,0.068237,-0.048947,14.750000,19.849916,2,2.890000,0,0,0, 202
149, 101,23733,23729,2839,1,1,2.490693,9.567078,0.547968,-0.287409,0.263465,0.092472,13.263428,2.004889,-7.575553,-0.908662,-0.707686,-0.048399,175.421497,-175.518609,-163.985465,0.988486,-0.044967,-0.033125,0.140628,1993.210327,80065.562500,0.542390,-0.039150,0.287598,-0.027222,-0.063192,14.750000,19.899942,2,2.890000,0,0,0, 202
150, 101,23789,23766,2895,1,1,2.466570,9.579067,0.550734,-0.291441,0.251745,0.108371,13.263428,1.524364,-6.133976,-1.958302,-0.743888,0.675841,175.336393,-175.524510,-164.034260,0.988514,-0.045680,-0.032990,0.140229,1993.232910,80063.453125,0.944928,-0.036103,0.287598,-0.004639,-0.064482,14.750000,19.904490,2,2.890000,0,0,0, 202
151, 101,23846,23824,2952,1,1,2.486396,9.576721,0.582679,-0.294935,0.278612,0.079822,12.782902,2.485415,-6.133976,-1.003421,0.162061,-0.376688,175.278596,-175.451591,-164.033495,0.988462,-0.046266,-0.033548,0.140275,1993.203125,80065.179688,0.959418,-0.030820,0.287598,-0.034424,-0.066281,14.750000,19.881752,2,2.900000,0,0,0, 202
152, 101,23905,23886,3011,1,1,2.476200,9.576095,0.558868,-0.282362,0.281824,0.097805,12.782902,0.563312,-6.133976,0.143323,0.800594,-2.368935,175.253365,-175.473966,-164.117315,0.988563,-0.046432,-0.033358,0.139552,1993.108154,80070.625000,0.581128,0.206112,0.287598,-0.129395,-0.048621,14.750000,19.895395,2,2.890000,0,0,0, 202
153, 101,23963,23945,3069,1,1,2.481793,9.572313,0.594939,-0.266735,0.248651,0.098973,12.782902,2.004889,-7.575553,0.144495,3.536271,-1.438583,175.226577,-175.566802,-164.182120,0.988667,-0.046534,-0.032550,0.138972,1993.279785,80064.796875,0.893662,0.211297,0.287598,0.042236,-0.038028,14.750000,19.863560,2,2.890000,0,0,0, 202
154, 101,24022,24007,3128,1,1,2.505984,9.553442,0.578808,-0.225902,0.262943,0.086520,12.302376,1.043838,-6.133976,0.211253,-0.737920,-1.657351,175.214242,-175.522884,-164.250122,0.988727,-0.046673,-0.032942,0.138403,1993.224854,80067.445312,0.774221,0.404675,0.287598,-0.012695,-0.030005,14.750000,19.872656,2,2.890000,0,0,0, 202
155, 101,24079,24063,3185,1,1,2.505466,9.563638,0.581843,-0.217626,0.270799,0.096392,13.263428,0.563312,-5.653450,-1.232002,2.683427,-1.789837,175.151076,-175.588755,-164.314749,0.988804,-0.047122,-0.032324,0.137842,1993.084961,80067.445312,-0.273104,0.409392,0.287598,-0.152588,-0.009171,14.750000,19.872656,2,2.890000,0,0,0, 202
156, 101,24135,24121,3241,1,1,2.473007,9.565346,0.571163,-0.243995,0.295249,0.087939,13.743954,0.563312,-6.133976,-1.083322,-0.030228,0.237120,175.078936,-175.619463,-164.338791,0.988815,-0.047702,-0.031982,0.137645,1993.196899,80070.382812,0.051951,0.313032,0.287598,-0.040649,0.002133,14.750000,19.872656,2,2.890000,0,0,0, 202
157, 101,24192,24180,3298,1,1,2.497462,9.528724,0.538828,-0.215954,0.334340,0.056272,14.224480,1.043838,-6.133976,-1.878315,0.856925,1.275774,175.010661,-175.734784,-164.287332,0.988768,-0.048170,-0.030883,0.138070,1993.166016,80068.421875,0.607624,0.317254,0.287598,-0.071533,0.018948,14.750000,19.872656,2,2.890000,0,0,0, 202
