rkf,accel_x,accel_y,accel_z,gyro_x,gyro_y,gyro_z,yaw,pitch,roll,imutemp,pressure,altitude,bmptemp,verticalvelocity,apoogee,state,uptime(milliseconds),errorflag
0,   -5.2565,    7.7158,    0.0306,   -1.1594,    0.5281,   -0.5354,    7.9160,    3.6631,    1.6007,   35.3750,87792.5859,   -0.0549,   37.5651,    0.0201,    0.0413,0,24377,17
0,   -4.5564,    8.2435,    0.0412,   -1.1815,    0.1890,   -0.1505,   -8.0245,    3.1181,   15.5720,   35.5000,87789.5313,    0.2303,   37.6118,    0.5812,    0.2303,0,29405,17
0,   -4.5749,    8.2821,    0.0289,    1.3406,   -1.3274,   -0.4210,   -8.1074,    3.9333,   16.5389,   35.3750,87791.8203,    0.0164,   37.6165,    0.2073,    0.2179,0,34434,17
0,   -4.5648,    8.2559,    0.0379,    1.8378,    0.0462,    0.7308,   -6.8887,    3.8337,   17.8306,   35.5000,87789.9609,    0.1902,   37.6118,    0.9829,    0.3293,0,39462,17
0,   -4.5641,    8.2812,    0.0279,    0.9119,    1.7478,   -0.4768,   -6.2480,    4.9239,   18.0851,   35.5000,87790.1250,    0.1749,   37.6118,    0.5542,    0.1749,0,44491,17
0,   -4.5375,    8.2948,    0.0337,   -2.3078,    1.0144,    1.0347,   -6.4187,    6.7012,   18.6357,   35.3750,87792.4141,   -0.0391,   37.5511,   -0.6751,    0.3639,0,49519,17
0,   -4.5551,    8.2743,    0.0356,   -1.1365,   -0.4614,    0.0149,   -5.8333,    9.1458,   18.1417,   35.3750,87791.9844,    0.0011,   37.6118,   -0.3040,    0.4822,0,54563,17
0,   -4.5557,    8.2784,    0.0408,   -1.5442,    0.5120,    0.5540,   -5.5730,    9.6100,   18.9707,   35.3750,87791.7891,    0.0193,   37.5885,   -0.3044,    0.1595,0,59592,17
0,   -4.5437,    8.2819,    0.0222,   -0.2968,   -0.5248,    0.2869,   -4.2565,   10.8155,   18.6684,   35.5000,87793.6797,   -0.1574,   37.5791,   -0.5502,    0.1833,0,64621,17
0,   -4.5706,    8.2590,    0.0131,    3.1082,    0.2346,   -0.9012,   -3.7741,   11.3873,   19.5560,   35.3750,87792.1563,   -0.0153,   37.5558,   -0.5004,    0.2247,0,69649,17
0,    1.8742,   -1.0923,    9.6313,    2.5576,    1.8710,    2.5884,   -0.5955,    1.1873,   -2.0950,   33.0000,87779.8906,    0.1651,   35.5509,    0.3484,    0.3869,0,5022,1
0,    1.7607,   -1.2570,    9.6434,    1.6992,   -1.0970,    1.3484,   -0.2322,    1.0421,   -2.3153,   33.1250,87777.6484,    0.3745,   35.6584,    0.1731,    0.6174,0,10039,1
0,    3.8306,   -1.4115,    9.6024,   -6.3094,   -1.7394,  -23.6960,   -2.3046,    3.1094,   -2.3320,   33.3750,87780.5859,    0.1001,   35.7893,   -0.1141,    0.3774,0,15077,1
0,    1.8846,   -1.1229,    9.6325,   -0.2980,   -0.0691,    1.5296,   -1.1057,    3.1187,    0.7410,   33.5000,87779.3516,    0.2156,   35.9388,   -0.1446,    0.5359,0,20096,1
0,    1.7101,   -1.3910,    9.6427,    0.2599,    0.7286,    3.6678,    0.3018,    2.4940,    0.3020,   33.6250,87779.7266,    0.1810,   36.0790,    0.3364,    0.3463,0,25114,1
0,    1.7633,   -1.2684,    9.6338,   -0.0568,    0.2257,    1.5893,   -1.1101,    4.2103,    1.5235,   33.8750,87780.9141,    0.0694,   36.2052,    0.0304,    0.1391,0,30133,1
0,    1.7621,   -1.3080,    9.6480,   -0.5016,   -0.3912,    1.0299,   -0.5882,    4.0701,    2.1891,   33.8750,87783.5703,   -0.1784,   36.3361,   -0.8090,    0.4945,0,35151,1
0,    1.7995,   -1.2338,    9.6334,    0.4074,   -0.9744,   -0.7900,   -0.9667,    4.4874,    2.7836,   34.0000,87779.1484,    0.2342,   36.4716,   -0.7385,    0.3650,0,40170,1
0,    1.7558,   -1.3121,    9.6457,    0.7986,    0.6839,    1.6043,   -1.0464,    4.6587,    3.5059,   34.1250,87779.8516,    0.1686,   36.5931,    0.3913,    0.1686,0,45188,1
0,    1.7449,   -1.2152,    9.6530,   -2.1118,    2.8374,    3.6617,   -1.1957,    5.6933,    5.4619,   34.1250,87776.5938,    0.4736,   36.7146,    1.1495,    0.4929,0,50215,1
0,    1.8128,   -1.2368,    9.6233,    1.9189,    0.1274,    2.4849,   -0.9868,    5.6915,    6.2162,   34.3750,87778.7578,    0.2710,   36.8315,   -0.5500,    0.5342,0,55233,1
0,    1.8238,   -1.2052,    9.6240,    0.6943,    0.5978,   -0.6047,    0.0269,    6.2022,    6.2067,   34.5000,87778.7578,    0.2710,   36.9623,    0.3537,    0.2710,0,60252,1
0,    1.8066,   -1.2587,    9.6162,    0.8503,   -0.7684,   -1.4500,    1.0212,    7.2901,    6.2916,   34.6250,87779.9297,    0.1611,   37.0838,    0.0206,    0.2234,0,65270,1
0,    1.7986,   -1.2747,    9.6305,   -1.8388,    0.3004,   -1.3672,    0.7951,    8.7649,    7.2366,   34.6250,87781.1641,    0.0462,   37.2006,   -0.2153,    0.2201,0,70288,1
0,    1.7593,   -1.2989,    9.6317,    1.4764,    0.2470,   -0.5830,    0.9683,    8.5614,    7.6151,   34.7500,87780.5234,    0.1063,   37.3128,    0.4466,    0.3791,0,75307,1
0,    1.7445,   -1.2938,    9.6154,    0.0633,    0.5983,    0.9374,   -0.5341,    9.0491,    8.2160,   34.8750,87780.6328,    0.0956,   37.4436,   -0.1409,    0.2409,0,80324,1
0,    1.7142,   -1.3263,    9.6434,    0.6564,   -0.4320,   -0.0012,   -0.7845,    9.6007,    9.0430,   35.0000,87782.3594,   -0.0658,   37.5558,   -0.7491,    0.5460,0,85342,1
0,    1.6665,   -1.3541,    9.6501,    1.3994,   -0.1421,   -0.6007,   -1.7347,   10.0234,    9.5732,   35.1250,87778.2656,    0.3169,   37.6772,   -0.0589,    0.8263,0,90361,1
0,    1.7373,   -1.2949,    9.6348,   -0.6106,    1.2166,    1.2050,   -1.1981,   10.8990,   11.0370,   35.2500,87778.1719,    0.3259,   37.7987,   -0.5356,    0.6666,0,95379,1
0,    1.7666,   -1.2924,    9.6388,   -0.8977,   -0.5858,    2.0095,   -2.3057,   11.5845,   11.9437,   35.3750,87774.4219,    0.6762,   37.9109,   -0.1415,    0.6762,0,100397,1
0,    1.7656,   -1.2873,    9.6186,    0.4778,   -0.1420,    0.9769,   -3.4302,   12.6254,   12.2617,   35.5000,87776.3281,    0.4979,   38.0323,   -0.1416,    0.5659,0,105416,1
0,    1.8014,   -1.2565,    9.6392,   -0.4663,    0.1397,   -1.6104,   -3.8059,   12.8175,   14.1620,   35.5000,87778.1250,    0.3304,   38.1585,   -0.2122,    0.5155,0,110434,1
0,    1.7656,   -1.2459,    9.6209,    1.0756,    1.4765,   -0.4510,   -3.4524,   13.5201,   13.5842,   35.6250,87776.2344,    0.5069,   38.2706,    0.6402,    0.5692,0,115452,1
0,    1.4304,   -1.5084,    9.6204,   -0.5480,   -0.0844,    6.3982,   -2.9478,   13.8454,    9.2224,   35.7500,87778.7109,    0.2755,   38.3781,    0.1853,    0.5552,0,120471,1
0,    1.1373,   -1.6506,    9.6475,    1.5843,   -0.0402,  -10.3302,   -2.7262,   13.6622,    1.0602,   36.0000,87774.9531,    0.6269,   38.4996,    0.2212,    0.8624,0,125489,1
0,    1.4287,   -1.5375,    9.6490,   -2.3868,   -1.3957,   17.4177,   -3.4617,   15.4830,    8.4871,   36.0000,87771.8906,    0.9128,   38.6117,    0.5249,    0.9128,0,130508,1
0,    1.5159,   -1.5016,    9.6229,    1.6961,   -1.2494,    2.0424,   -2.1355,   15.1168,    9.5671,   36.1250,87775.5938,    0.5670,   38.7238,   -0.4893,    0.9479,0,135526,1
0,    1.4859,   -1.4939,    9.6210,    0.6935,   -1.2001,   -1.6091,   -2.5187,   16.0771,    9.1060,   36.1250,87774.4922,    0.6694,   38.8453,   -0.1073,    0.7091,0,140547,1
0,    1.1953,   -1.6780,    9.6445,   -0.0347,    0.4745,    0.7960,   -2.2192,   16.2770,    2.8623,   36.3750,87773.1328,    0.7967,   38.9574,    0.4553,    1.0991,0,145565,1
0,    1.3046,   -1.8140,    9.5994,    2.9510,   -2.0160,   16.6037,    1.6266,   17.2545,   21.6626,   36.5000,87772.6641,    0.8409,   39.0602,   -0.5237,    1.1936,0,150618,1
0,   -0.1477,   -0.5880,    9.7512,   -2.4687,   -0.1208,    1.7906,   -2.2579,   17.3638,  -79.3633,   36.5000,87776.5625,    0.4764,   39.1723,   -0.2870,    0.9072,0,155636,1
0,   -0.1131,   -0.6120,    9.7296,    0.4617,    1.1256,   -0.9687,   -2.2284,   17.3987,  -78.4216,   36.6250,87773.6172,    0.7521,   39.2797,    0.2896,    0.7521,0,160685,1
0,   -0.1298,   -0.5949,    9.7563,   -0.9477,    2.2563,    2.1813,   -2.4252,   18.1823,  -77.2898,   36.7500,87776.9609,    0.4391,   39.3919,   -0.5337,    0.7752,0,165708,1
0,   -0.1590,   -0.6268,    9.7481,   -1.3465,   -0.8125,   -0.1113,   -2.6768,   19.3799,  -76.5777,   36.8750,87774.8984,    0.6321,   39.4759,    0.1527,    0.8727,0,170750,1
0,   -0.1118,   -0.5401,    9.7410,    0.3561,   -0.7687,    0.3598,   -3.4896,   20.4319,  -75.5281,   37.0000,87773.2344,    0.7872,   39.6067,    0.5099,    0.9377,0,175780,1
0,    1.3445,    1.2254,    9.2890,   -6.4610,    8.5699,  -34.9263,   -0.5358,   15.1408,  164.3188,   36.8750,87775.8281,    0.5449,   39.7142,   -0.3033,    0.8076,0,180809,1
0,    3.2218,    0.1016,    9.4776,  -15.3867,   11.4464,   11.7799,  -12.5559,   25.2846,   68.5654,   37.1250,87772.2969,    0.8749,   39.8169,    0.5253,    0.9474,0,185836,1
0,    2.7563,    0.0207,    9.5429,    7.6791,  -14.7439,    4.7860,  -13.8402,   27.1460,   65.4302,   37.2500,87771.6953,    0.9309,   39.9150,    0.2206,    1.0985,0,190854,1
0,    2.6302,   -1.7581,   10.3617,   11.5426,    3.0408,   -3.9648,  -11.2146,   25.9140,   69.3833,   37.3750,87776.7109,    0.4623,   40.0271,   -0.7346,    0.7866,0,195875,1
0,    2.3517,   -0.1833,    9.5719,    3.9651,   -3.5920,   19.3373,  -12.1734,   25.7007,   65.0190,   37.5000,87775.1406,    0.6095,   40.1252,   -0.2560,    0.8392,0,200894,1
0,    2.3363,   -0.0836,    9.5966,   -0.1596,    0.4533,   -0.0043,  -12.6645,   26.6609,   63.9662,   37.5000,87776.1250,    0.5172,   40.2233,   -0.4909,    0.9875,0,205912,1
0,    2.3594,   -0.0450,    9.5970,   -0.0795,   -0.1214,    0.3383,  -12.2953,   28.1846,   65.1432,   37.6250,87772.3750,    0.8675,   40.3307,    0.5944,    0.8675,0,210931,1
0,    2.3752,   -0.0749,    9.5949,    1.6164,    1.2177,    1.1463,  -12.0938,   30.2109,   65.3726,   37.7500,87775.1406,    0.6095,   40.4335,   -0.0786,    1.0787,0,215949,1
0,    2.3565,   -0.0781,    9.5961,    1.2535,   -0.1683,    0.0635,  -12.9930,   32.1486,   66.5458,   37.7500,87773.5313,    0.7600,   40.5269,    0.2345,    1.0555,0,220969,1
0,    2.3287,   -0.0652,    9.6089,   -2.1788,    1.2929,   -1.7901,  -12.4690,   32.4073,   66.1401,   37.8750,87771.8672,    0.9151,   40.6250,    0.6549,    1.0888,0,225990,1
0,    2.3336,   -0.0678,    9.6085,   -2.6385,   -2.4196,    2.1520,  -13.9058,   32.3895,   67.0505,   38.0000,87774.0078,    0.7153,   40.7184,   -0.1582,    0.7911,0,231012,1
0,    2.3550,   -0.0072,    9.5884,   -0.0428,   -1.0052,    1.0851,  -13.7189,   32.9795,   68.0381,   38.1250,87772.7266,    0.8347,   40.8165,    0.7408,    0.8347,0,236034,1
0,    2.6270,   -0.3210,    9.4495,   10.2541,   12.8746,   -3.0660,  -12.2021,   37.7737,   74.3517,   38.1250,87772.8906,    0.8194,   40.9005,    0.1438,    0.9978,0,241086,1
0,    2.2766,   -0.0263,    9.6250,   -1.1495,   -0.2752,    0.7101,  -11.1762,   34.7879,   88.2259,   38.2500,87771.9844,    0.9043,   40.9986,    0.5177,    0.9043,0,246108,1
0,    2.3607,    0.1100,    6.9244,  -23.4548,   33.9055,   25.9040,  -17.1710,   41.5464,   85.9713,   38.3750,87775.8516,    0.5427,   41.0967,   -0.2537,    0.8890,0,251129,1
0,    2.3685,    0.1387,    9.5906,    0.4361,    0.4181,    0.5162,  -15.8613,   36.9010,   81.0131,   38.5000,87773.8906,    0.7261,   41.1761,    0.3197,    0.8862,0,256148,1
0,    2.3982,    0.2506,    9.5924,    1.5791,   -1.4026,    0.4721,  -15.6061,   38.3956,   82.7141,   38.5000,87770.5547,    1.0379,   41.2788,    0.6352,    1.0379,0,261166,1
0,    2.4085,    0.2584,    9.5822,    1.1747,   -0.2699,    0.3029,  -15.9831,   38.8961,   82.1380,   38.6250,87773.7422,    0.7396,   41.3629,   -0.2468,    0.9841,0,266187,1
0,    2.4152,    0.2676,    9.5798,    1.1402,    1.4044,   -0.4202,  -15.4926,   39.7787,   82.3706,   38.6250,87775.5156,    0.5743,   41.4376,   -0.5940,    0.9439,0,271205,1
0,    2.3966,    0.2582,    9.5700,    0.0726,   -1.0201,    2.9618,  -15.4000,   40.9978,   83.3691,   38.7500,87774.3750,    0.6808,   41.5357,   -0.5933,    1.1919,0,276223,1
0,    2.3903,    0.2691,    9.5870,    4.2000,    1.9582,   -2.2023,  -13.9273,   42.0285,   84.1509,   38.8750,87771.7266,    0.9281,   41.6150,   -0.1380,    1.1256,0,281242,1
0,    2.4109,    0.2822,    9.5867,    0.4158,   -0.3662,    0.4683,  -14.0776,   41.9790,   85.2599,   38.8750,87772.3281,    0.8720,   41.6991,    0.2172,    0.8720,0,286308,1
0,    2.4060,    0.2540,    9.5838,   -1.2457,    0.1570,    1.1734,  -13.5304,   43.3851,   85.8494,   39.0000,87772.8750,    0.8205,   41.7878,   -0.3051,    1.0509,0,291374,1
0,    2.4404,    0.4088,    9.5629,   -0.9412,   -0.4202,    0.7652,  -13.4183,   44.0808,   86.8686,   39.1250,87773.8125,    0.7334,   41.8672,   -0.6739,    0.9909,0,296441,1
0,    2.2947,    0.2812,    9.5865,    0.6071,    0.3464,   -2.6787,  -13.6129,   45.5862,   86.9478,   39.2500,87773.1406,    0.7962,   41.9466,    0.2249,    1.2610,0,301460,1
0,    2.4143,    0.3707,    9.5768,    1.7675,    0.5056,    1.3037,  -13.1727,   45.2495,   88.8444,   39.2500,87773.9297,    0.7220,   42.0260,   -0.1957,    1.0888,0,306478,1
0,    2.4540,    0.3778,    9.5582,    2.2218,    0.6360,   -1.4369,  -11.7914,   46.2545,   89.2391,   39.3750,87775.7578,    0.5517,   42.1100,   -0.6156,    0.8948,0,311527,1
0,    2.4284,    0.3219,    9.5810,    0.8814,   -1.8218,    0.2559,  -11.6506,   46.4388,   89.9607,   39.5000,87770.3516,    1.0571,   42.1847,   -0.1757,    1.1415,0,316546,1
0,    2.4287,    0.3013,    9.5753,    0.3556,   -1.1499,    0.3774,   -9.9310,   46.5183,   90.7797,   39.5000,87771.5156,    0.9479,   42.2641,    0.5298,    0.9802,0,321568,1
0,    2.4144,    0.2888,    9.5762,   -0.9275,    1.3017,    0.2025,   -9.0820,   47.1748,   90.9159,   39.6250,87772.9297,    0.8154,   42.3295,    0.3434,    0.9094,0,326586,1
0,    2.4314,    0.3139,    9.6053,   -0.9340,   -0.0411,   -1.0175,   -8.6544,   47.9964,   92.6305,   39.6250,87772.1328,    0.8902,   42.4182,    0.7646,    0.9225,0,331605,1
0,    2.4092,    0.3257,    9.5482,   -2.1306,    0.1979,    3.1959,   -8.6193,   49.8857,   92.4799,   39.7500,87772.0313,    0.8998,   42.4836,    0.4601,    0.8998,0,336623,1
0,    2.3994,    0.2908,    9.5938,   -0.0305,    1.8876,   -0.4782,   -9.1289,   50.9222,   92.7065,   39.8750,87772.7813,    0.8302,   42.5583,   -0.0264,    0.8302,0,341643,1
0,    2.4199,    0.2882,    9.5796,    0.5527,   -0.5931,    0.5411,  -10.1362,   51.8074,   94.0414,   39.8750,87773.4375,    0.7685,   42.6283,    0.1747,    0.8856,0,346662,1
0,    2.4312,    0.2952,    9.5538,    2.1311,   -0.6170,    0.3465,  -10.0566,   51.6516,   94.8760,   40.0000,87772.5703,    0.8495,   42.6983,    0.7162,    0.9145,0,351680,1
0,    2.4292,    0.3482,    9.5933,    0.1180,    0.6386,    0.4378,  -10.3164,   53.2984,   94.8523,   40.0000,87772.3594,    0.8692,   42.7684,    0.0000,    0.8692,0,356698,1
0,    2.4707,    0.3228,    9.5665,    2.1840,    0.5131,   -0.6103,  -11.2386,   54.2380,   96.1002,   40.1250,87773.6484,    0.7481,   42.8431,   -0.1273,    0.9259,0,361717,1
0,    2.4190,    0.2972,    9.5869,   -0.6732,   -0.5875,   -0.5215,  -10.2212,   55.0261,   95.6760,   40.1250,87770.9688,    0.9989,   42.9085,    0.5782,    0.9989,0,366735,1
0,    2.4206,    0.3205,    9.5895,   -1.1624,   -1.5898,   -0.5175,  -10.3250,   54.9834,   96.0610,   40.1250,87773.9141,    0.7237,   42.9085,   -0.0545,    1.0397,1,368152,1
0,    2.4485,    0.3298,    9.5984,   -0.2147,    0.8070,   -0.2267,  -10.3030,   55.0677,   95.9069,   40.1250,87774.6641,    0.6535,   42.8898,    0.0231,    1.0397,1,368266,1
0,    2.4068,    0.3123,    9.5715,   -0.9706,    0.0961,   -0.5949,  -10.1518,   55.1622,   95.8241,   40.1250,87775.2656,    0.5970,   42.8851,    0.2514,    1.0397,1,368379,1
0,    2.4339,    0.3161,    9.5618,   -0.3800,   -0.4675,   -0.0224,  -10.3084,   55.1099,   95.6891,   40.1250,87774.9688,    0.6253,   42.8758,   -0.1011,    1.0397,1,368492,1
0,    2.4183,    0.2976,    9.5608,   -0.8050,   -0.6758,    0.2762,  -10.3338,   55.0868,   95.7951,   40.2500,87777.4297,    0.3955,   42.8851,   -0.5299,    1.0397,1,368606,1
0,    2.4293,    0.3244,    9.5727,    0.6470,    0.0007,    0.1558,  -10.3690,   54.8707,   95.8548,   40.2500,87774.9688,    0.6253,   42.8804,   -0.0436,    1.0397,1,368719,1
0,    2.4346,    0.3111,    9.5775,    2.8283,    1.4601,   -0.0626,  -10.2941,   54.9655,   95.8102,   40.2500,87773.4531,    0.7668,   42.8851,    0.0188,    1.0397,1,368831,1
0,    2.4114,    0.3102,    9.5892,    1.7160,    0.2552,   -1.3330,  -10.0487,   55.1105,   95.6949,   40.2500,87775.5234,    0.5732,   42.8851,    0.2724,    1.0397,1,368945,1
0,    2.4159,    0.2971,    9.6006,   -0.7095,    0.4470,   -0.3215,  -10.1738,   55.0227,   95.7071,   40.2500,87773.7578,    0.7385,   42.8804,    0.2938,    1.0397,1,369058,1
0,    2.4146,    0.3032,    9.5659,    1.9980,    0.5100,    0.3990,  -10.1782,   55.0022,   95.6674,   40.2500,87775.5703,    0.5692,   42.8851,   -0.2858,    1.0397,1,369171,1
0,    2.3884,    0.2944,    9.5749,    0.7800,   -0.3926,    0.5831,  -10.1772,   54.9620,   95.7085,   40.2500,87775.9141,    0.5370,   42.8898,   -0.0601,    1.0397,1,369285,1
0,    2.4407,    0.3324,    9.5748,   -2.9199,    0.0206,    0.8035,  -10.1801,   54.9725,   95.7918,   40.2500,87773.7578,    0.7385,   42.8944,    0.0610,    1.0397,1,369398,1
0,    2.4031,    0.2844,    9.5774,    0.6661,   -0.5428,   -0.8373,  -10.0364,   54.8759,   95.7300,   40.2500,87774.4531,    0.6734,   42.8898,    0.2477,    1.0397,1,369510,1
0,    2.4017,    0.3145,    9.5735,   -0.7726,    1.3192,    1.0261,  -10.0549,   54.9279,   95.7947,   40.2500,87773.7578,    0.7385,   42.8944,    0.6148,    1.0397,1,369625,1
0,    2.4178,    0.2830,    9.5852,   -0.9725,    0.2538,    1.0691,  -10.2913,   54.8716,   95.9125,   40.2500,87775.3125,    0.5930,   42.8851,   -0.0737,    1.0397,1,369737,1
0,    2.4135,    0.3137,    9.5789,   -1.2943,    1.8192,    1.3113,  -10.3254,   54.8527,   96.0013,   40.2500,87773.5000,    0.7628,   42.8944,    0.3268,    0.7628,1,369850,1
0,    2.4170,    0.3028,    9.5901,    0.1709,    0.0928,    0.4421,  -10.4416,   54.8178,   96.1362,   40.2500,87773.4141,    0.7707,   42.8991,   -0.0371,    0.8862,1,369964,1
0,    2.4344,    0.3359,    9.5540,   -0.4687,    1.0631,   -0.5772,  -10.5177,   54.8658,   96.0499,   40.2500,87776.3125,    0.4996,   42.8991,   -0.1305,    0.8862,1,370077,1
0,    2.4177,    0.3319,    9.5549,   -1.6580,   -0.5738,   -0.7009,  -10.6544,   54.8817,   95.9487,   40.2500,87775.0547,    0.6174,   42.8991,   -0.2131,    0.8862,1,370189,1
0,    2.4248,    0.3004,    9.5823,    1.0828,    1.4849,   -0.3457,  -10.4950,   55.0432,   95.9768,   40.2500,87773.8047,    0.7340,   42.8991,    0.0130,    0.8862,1,370304,1
0,    2.4290,    0.2960,    9.5805,    2.1454,    0.7926,   -0.0065,  -10.4761,   55.1085,   95.9790,   40.2500,87773.3359,    0.7781,   42.9038,    0.4841,    0.8862,1,370416,1
0,    2.4327,    0.3193,    9.5704,   -2.1299,   -0.9062,   -0.6611,  -10.6010,   55.1146,   96.0000,   40.2500,87772.6875,    0.8387,   42.9085,    0.5142,    0.8862,1,370529,1
0,    2.4187,    0.3074,    9.5609,    1.0988,    0.1168,    0.0403,  -10.5595,   54.9837,   96.1406,   40.2500,87775.1016,    0.6128,   42.8991,    0.0919,    0.8862,1,370643,1
0,    2.4115,    0.3229,    8.5972,   -1.8968,   -1.9166,    0.4512,  -10.6485,   54.8857,   96.0821,   40.2500,87771.5234,    0.9474,   42.9085,    0.7127,    0.8862,1,370756,1
0,    2.4235,    0.2715,    9.5504,    1.4662,    0.5230,    2.5600,  -10.4858,   54.8822,   96.1307,   40.2500,87774.1953,    0.6977,   42.8991,    0.1744,    0.8862,1,370869,1
0,    2.4087,    0.2989,    9.5769,    0.4036,    0.4864,    0.2458,  -10.4935,   54.8762,   96.2555,   40.2500,87773.9375,    0.7215,   42.9038,    0.4656,    0.8862,1,370983,1
0,    2.4011,    0.3053,    9.5832,   -0.7044,   -1.4573,    0.9697,  -10.4335,   54.7048,   96.3439,   40.1250,87773.3828,    0.7735,   42.9085,   -0.1255,    0.8862,1,371096,1
0,    2.4190,    0.3241,    9.5512,    0.4575,    0.2175,   -0.0898,  -10.4425,   54.7652,   96.2883,   40.1250,87773.6797,    0.7453,   42.9131,    0.2295,    0.8862,1,371208,1
0,    2.4309,    0.3061,    9.5691,   -0.8906,   -0.6299,    1.1434,  -10.4721,   54.6858,   96.3959,   40.1250,87772.9922,    0.8098,   42.9131,    0.3004,    0.8098,1,371322,1
0,    2.4071,    0.3416,    9.5944,   -0.1900,   -0.9008,   -0.7900,  -10.4811,   54.6009,   96.3511,   40.1250,87776.1484,    0.5149,   42.9131,   -0.4942,    0.8415,1,371435,1
0,    2.4319,    0.2728,    9.5748,    0.2845,   -0.0320,   -2.1033,  -10.5313,   54.5434,   96.3019,   40.1250,87773.4297,    0.7690,   42.9085,   -0.1328,    0.8415,1,371548,1
0,    2.4302,    0.2987,    9.5785,   -0.8240,   -1.0280,    0.2517,  -10.6913,   54.5208,   96.2774,   40.1250,87775.5391,    0.5721,   42.9178,   -0.5965,    0.8415,1,371662,1
0,    2.4048,    0.2938,    9.5713,   -1.1207,    0.7235,   -0.0640,  -10.8888,   54.6328,   96.2634,   40.1250,87773.4688,    0.7656,   42.9178,    0.3693,    0.8415,1,371775,1
0,    2.4208,    0.3170,    9.5657,    0.6706,   -1.1864,    0.0329,  -10.8130,   54.6415,   96.2220,   40.1250,87774.9844,    0.6241,   42.9271,   -0.4439,    1.0107,1,371887,1
0,    2.4131,    0.3198,    9.5656,   -0.7334,   -1.1871,    0.9815,  -10.8644,   54.5582,   96.2908,   40.1250,87775.4688,    0.5783,   42.8851,   -0.3554,    1.0107,1,371957,1
0,    2.3978,    0.2783,    9.5881,   -0.5058,    0.2715,   -1.5533,  -10.9347,   54.5536,   96.2447,   40.1250,87774.8438,    0.6372,   42.9131,   -0.2104,    1.0107,1,372070,1
0,    2.3849,    0.2748,    9.5599,    0.5499,   -1.1115,   -1.2698,  -10.9822,   54.4487,   96.1982,   40.1250,87770.6641,    1.0272,   42.9178,    0.1598,    1.0272,1,372183,1
0,    2.4093,    0.2568,    9.5605,    0.4262,    0.5420,   -0.5199,  -11.0123,   54.5223,   96.1430,   40.1250,87775.6328,    0.5630,   42.9225,    0.3607,    1.0272,1,372297,1
0,    2.3974,    0.3052,    9.5786,    0.1258,    1.3068,    0.1150,  -10.9755,   54.6211,   96.1901,   40.2500,87771.9609,    0.9066,   42.9178,    0.8453,    1.0272,1,372410,1
0,    2.4123,    0.2992,    9.5544,    0.9945,    1.3523,   -1.2519,  -10.8328,   54.7909,   96.1166,   40.2500,87773.2188,    0.7889,   42.9271,   -0.1248,    1.0272,1,372522,1
0,    2.4278,    0.3200,    9.5641,   -0.3091,   -0.4733,   -0.1267,  -10.8933,   54.7102,   96.2324,   40.2500,87775.1172,    0.6117,   42.9318,    0.1958,    1.0272,1,372637,1
0,    2.4413,    0.3043,    9.5725,   -0.1988,    0.6558,   -0.0445,  -10.9478,   54.6726,   96.2239,   40.2500,87777.2813,    0.4090,   42.9271,   -0.8367,    1.0272,1,372749,1
0,    2.4114,    0.2966,    9.5724,   -0.2173,    0.3595,   -1.0911,  -10.8179,   54.6502,   96.1831,   40.2500,87774.8125,    0.6400,   42.9225,   -0.4201,    1.0272,1,372862,1
0,    2.4373,    0.3191,    9.5620,    2.3277,    0.0587,    1.0602,  -10.8581,   54.5532,   96.2255,   40.2500,87774.6016,    0.6593,   42.9225,   -0.0785,    0.7396,1,372976,1
0,    2.4383,    0.3111,    9.5625,    0.3731,    0.5012,   -0.8775,  -10.8231,   54.5266,   96.1990,   40.2500,87773.5625,    0.7572,   42.9271,    0.5027,    0.7572,1,373089,1
0,    2.4219,    0.3285,    9.5628,    0.2388,    0.6143,   -0.6820,  -10.8735,   54.6337,   96.0714,   40.2500,87775.0703,    0.6157,   42.9271,   -0.2059,    0.9094,1,373201,1
0,    2.4358,    0.2884,    9.5644,    0.8552,   -0.2035,    0.9239,  -10.9364,   54.5435,   96.1373,   40.2500,87775.2109,    0.6020,   42.9365,   -0.2155,    0.9094,1,373316,1
0,    2.3688,    0.2868,    9.5738,    1.8562,    2.1148,   -1.8005,  -10.8974,   54.7693,   96.1169,   40.2500,87773.3516,    0.7765,   42.9411,   -0.0283,    0.9094,1,373428,1
0,    2.4436,    0.3295,    9.5608,    1.9260,   -0.9832,   -2.6480,  -10.7468,   54.7455,   95.9498,   40.2500,87774.2109,    0.6960,   42.9365,    0.2955,    0.9094,1,373541,1
0,    2.4121,    0.3016,    9.5743,   -0.9565,   -1.4683,   -0.7741,  -10.8240,   54.6036,   95.8991,   40.2500,87774.3047,    0.6876,   42.9365,    0.1889,    0.9247,1,373655,1
0,    2.3970,    0.3044,    9.5717,   -0.3445,   -1.2400,   -0.2623,  -10.7666,   54.5673,   95.8973,   40.2500,87777.0234,    0.4328,   42.9411,   -0.8090,    0.9247,1,373768,1
0,    2.4187,    0.3170,    9.5691,    1.0190,   -1.1901,    2.5980,  -10.6147,   54.4473,   96.0274,   40.2500,87775.7656,    0.5511,   42.9411,   -0.6096,    0.9247,1,373881,1
0,    2.4174,    0.3076,    9.5812,   -2.2217,   -1.5962,    0.1254,  -10.6808,   54.3347,   96.0504,   40.2500,87773.0469,    0.8047,   42.9458,    0.0137,    0.9247,1,373995,1
0,    2.4082,    0.3105,    9.5819,   -3.4675,   -1.5538,    1.3800,  -10.9060,   54.1436,   96.0843,   40.2500,87775.9063,    0.5381,   42.9318,    0.2248,    0.5381,1,374107,1
0,    2.4238,    0.3199,    9.5792,   -0.7052,   -0.0409,   -0.4703,  -11.1070,   54.0325,   96.0722,   40.2500,87769.7266,    1.1155,   42.9411,    1.1800,    1.1155,1,374220,1
0,    2.4200,    0.2973,    9.5882,   -2.9897,   -1.1794,    1.1164,  -11.2873,   53.8763,   96.1717,   40.2500,87775.2969,    0.5941,   42.9411,   -0.1750,    1.1155,1,374336,1
0,    2.4567,    0.3410,    9.5376,   -0.1768,   -1.0858,    0.2302,  -11.3186,   53.7735,   96.2515,   40.2500,87775.8594,    0.5421,   42.9458,    0.2026,    1.1155,1,374449,1
0,    2.4310,    0.3092,    9.5761,    1.3588,    0.6192,    0.1664,  -11.1359,   53.8367,   96.2160,   40.2500,87775.5547,    0.5704,   42.9551,   -0.8742,    1.1155,1,374562,1
0,    2.3904,    0.2913,    9.5642,   -2.3050,    0.5739,    1.0471,  -11.2047,   53.9246,   96.2887,   40.2500,87778.4063,    0.3038,   42.9458,   -0.6561,    0.3038,1,374676,1
0,    2.4115,    0.2937,    9.5711,   -1.4346,    0.2928,   -0.2099,  -11.1863,   53.9032,   96.3627,   40.2500,87774.0938,    0.7068,   42.9505,   -0.0430,    0.8076,1,374789,1
0,    2.4391,    0.3222,    9.5647,   -0.4163,   -0.4521,   -1.3492,  -11.3444,   53.8932,   96.3400,   40.2500,87775.6016,    0.5659,   42.9505,   -0.2900,    0.8076,1,374901,1
0,    2.3890,    0.3013,    9.5849,   -0.1621,   -0.3827,    0.1933,  -11.3736,   53.8125,   96.4181,   40.2500,87775.7813,    0.5494,   42.9551,    0.2180,    0.8076,1,375015,1
0,    2.4090,    0.2681,    9.5622,    1.5934,    1.0217,   -1.3110,  -11.3908,   53.8318,   96.4141,   40.2500,87775.4375,    0.5812,   42.9551,   -0.4064,    0.8076,1,375128,1
0,    2.3967,    0.3035,    9.5689,    0.4146,    0.7892,    0.1314,  -11.2483,   53.9814,   96.3466,   40.2500,87772.3281,    0.8720,   42.9598,    0.3353,    0.8720,1,375241,1
0,    2.4291,    0.3040,    9.5862,   -0.3161,    1.5156,   -0.3618,  -11.3216,   54.1250,   96.3697,   40.2500,87772.3672,    0.8681,   42.9551,    0.5620,    0.8720,1,375355,1
0,    2.4193,    0.3324,    9.5763,   -0.5236,   -1.5972,    1.4337,  -11.4280,   54.1247,   96.3620,   40.2500,87773.8359,    0.7312,   42.9458,    0.4441,    0.8720,1,375468,1
0,    2.4263,    0.3031,    9.5715,    2.2892,    0.7032,    1.5468,  -11.2304,   54.1752,   96.5433,   40.2500,87773.8359,    0.7312,   42.9691,   -0.0815,    0.8720,1,375580,1
0,    2.4183,    0.2844,    9.5699,    1.4836,   -0.0379,    1.3941,  -11.2426,   54.1529,   96.5499,   40.2500,87772.7188,    0.8358,   42.9598,    0.0707,    0.8720,1,375695,1
0,    2.4040,    0.3108,    9.5725,   -2.2134,    0.1938,    1.0264,  -11.3703,   54.2836,   96.6776,   40.2500,87773.8359,    0.7312,   42.9645,    0.0476,    0.8720,1,375807,1
0,    2.4184,    0.3637,    9.5719,    0.9453,    0.4476,    1.2888,  -11.2694,   54.2829,   96.8139,   40.2500,87773.6719,    0.7464,   42.9785,    0.0641,    0.8720,1,375920,1
0,    2.4596,    0.3506,    9.5674,    2.1989,    0.6821,    0.8703,  -11.1074,   54.2015,   96.7873,   40.2500,87776.6875,    0.4651,   42.9691,   -0.6789,    0.8720,1,376034,1
0,    2.3961,    0.3462,    9.5672,   -1.0099,   -1.6019,   -0.7268,  -11.1570,   54.2295,   96.7313,   40.2500,87773.3672,    0.7752,   42.9738,    0.0362,    0.8720,1,376147,1
0,    2.4434,    0.3231,    9.5683,    0.9940,   -1.6332,    1.4288,  -11.0145,   54.2515,   96.7597,   40.2500,87777.0781,    0.4283,   42.9691,   -0.6127,    0.8720,1,376259,1
0,    2.3907,    0.2744,    9.5776,   -0.2334,    0.2048,    1.0036,  -10.9592,   54.3271,   96.8573,   40.2500,87772.7656,    0.8313,   42.9738,    0.5650,    0.8720,1,376374,1
0,    2.4259,    0.3079,    9.5733,   -2.5931,   -0.4249,   -0.4532,  -11.0902,   54.3438,   96.9674,   40.2500,87772.7656,    0.8313,   42.9738,    0.2834,    0.8720,1,376486,1
0,    2.4236,    0.3423,    9.5704,    0.8366,   -0.2885,   -1.5347,  -11.1358,   54.4789,   96.8869,   40.2500,87773.9688,    0.7187,   42.9738,    0.7111,    0.8720,1,376599,1
0,    2.4543,    0.3409,    9.5463,   -1.6681,   -0.5263,   -1.3184,  -11.1637,   54.4560,   96.8203,   40.2500,87772.5078,    0.8551,   42.9738,    0.4334,    0.8720,1,376713,1
0,    2.4259,    0.3212,    9.5640,   -0.7666,    0.3892,   -0.9916,  -11.0603,   54.4463,   96.7302,   40.2500,87774.6641,    0.6535,   42.9785,   -0.0168,    0.8720,1,376826,1
0,    2.4387,    0.3252,    9.5591,   -1.6707,    0.2653,   -0.1521,  -11.0322,   54.3822,   96.7181,   40.2500,87773.4531,    0.7668,   42.9832,    0.4865,    0.8720,1,376939,1
0,    2.4276,    0.3416,    9.5537,   -0.6666,   -0.8552,    0.2761,  -11.0575,   54.3118,   96.7197,   40.2500,87772.2500,    0.8794,   42.9738,    0.3850,    0.8794,1,377053,1
0,    2.4315,    0.3372,    9.5653,   -0.4197,   -0.6138,    2.0224,  -11.0445,   54.3315,   96.7894,   40.2500,87773.1094,    0.7991,   42.9832,    0.5473,    0.8794,1,377166,1
0,    2.4210,    0.3281,    9.5656,   -0.0180,   -0.1389,   -0.9423,  -11.1155,   54.3180,   96.7967,   40.2500,87773.4531,    0.7668,   42.9832,    0.2465,    0.8794,1,377278,1
0,    2.4116,    0.3142,    9.5571,   -0.0165,   -0.5346,    0.1669,  -11.1460,   54.2883,   96.7622,   40.2500,87775.0547,    0.6174,   42.9785,   -0.3271,    0.8794,1,377394,1
0,    2.4396,    0.3092,    9.5808,    0.8624,    1.3778,    0.5064,  -10.9845,   54.3891,   96.7577,   40.2500,87775.9609,    0.5324,   42.9832,   -0.4620,    0.8794,1,377507,1
0,    2.4069,    0.2938,    9.5632,    3.1832,    0.7012,    0.5439,  -10.9157,   54.3909,   96.7635,   40.2500,87775.4063,    0.5840,   42.9878,   -0.4154,    0.8794,1,377620,1
0,    2.4234,    0.2958,    9.5807,   -1.5055,   -0.8973,    0.7787,  -11.0937,   54.3053,   96.8876,   40.2500,87779.0703,    0.2416,   42.9832,   -0.8841,    0.8794,1,377736,1
0,    2.4317,    0.3410,    9.5651,   -0.0142,    0.7749,    0.1902,  -11.1226,   54.3188,   96.8687,   40.2500,87777.1719,    0.4193,   42.9925,   -0.6263,    0.8794,1,377849,1
0,    2.4238,    0.3343,    9.5854,   -1.8243,    0.6365,   -0.1293,  -11.3352,   54.2837,   96.9906,   40.2500,87775.1016,    0.6128,   42.9925,   -0.4190,    0.8794,1,377961,1
0,    2.4177,    0.3123,    9.5634,    0.4256,    0.1579,   -0.1557,  -11.3815,   54.1926,   97.0073,   40.2500,87778.1250,    0.3304,   42.9972,   -0.2154,    0.8794,1,378075,1
0,    2.4103,    0.3017,    9.5822,    0.0220,    0.6658,   -0.6406,  -11.3615,   54.3670,   96.9558,   40.2500,87774.8438,    0.6372,   42.9972,    0.2721,    0.8794,1,378188,1
0,    2.4341,    0.3198,    9.5580,    3.1638,    0.5732,   -0.9738,  -11.1485,   54.3668,   96.8939,   40.2500,87773.6406,    0.7492,   43.0018,    0.1282,    0.8823,1,378301,1
0,    2.4176,    0.3393,    9.5807,   -0.6109,    1.8443,    0.7732,  -11.2455,   54.5340,   97.0443,   40.2500,87774.5859,    0.6610,   43.0018,    0.4763,    0.8823,1,378415,1
0,    2.4151,    0.3237,    9.5636,   -0.5998,   -0.0362,    1.6306,  -11.1760,   54.5366,   97.1260,   40.2500,87773.9375,    0.7215,   42.9972,    0.0966,    0.7215,1,378528,1
0,    2.4449,    0.3403,    9.5557,   -0.5606,    0.2146,   -0.7313,  -11.2135,   54.6030,   97.0036,   40.2500,87776.4453,    0.4872,   43.0018,   -0.4367,    0.7215,1,378640,1
0,    2.4134,    0.3259,    9.5768,    0.3589,    1.1290,    1.0576,  -11.2273,   54.7930,   97.0837,   40.2500,87775.1953,    0.6037,   43.0018,   -0.1292,    0.7289,1,378755,1
0,    2.4336,    0.2824,    9.5601,   -0.4143,    1.6082,   -0.0951,  -11.3051,   54.8328,   97.1112,   40.2500,87774.5859,    0.6610,   43.0018,   -0.2590,    0.7323,1,378867,1
0,    2.4160,    0.2887,    9.5870,    1.2820,    1.8461,   -0.7755,  -11.2781,   54.9352,   97.0213,   40.2500,87773.1250,    0.7973,   43.0065,    0.4807,    0.7973,1,378980,1
0,    2.4264,    0.3031,    9.5832,    0.3272,    1.8021,   -0.1500,  -11.2665,   55.1204,   97.0499,   40.2500,87771.9609,    0.9066,   43.0018,    0.6687,    0.9066,1,379094,1
0,    2.4009,    0.3047,    9.5694,    0.2518,    1.7101,    0.1870,  -11.3552,   55.1994,   97.0760,   40.2500,87775.9297,    0.5359,   43.0065,   -0.0743,    0.9066,1,379207,1
0,    2.4413,    0.3077,    9.5515,   -0.9207,   -0.2049,   -0.2099,  -11.4533,   55.2742,   97.0080,   40.2500,87774.0703,    0.7091,   43.0065,   -0.1837,    0.9066,1,379319,1
0,    2.4133,    0.2836,    9.5879,   -0.6810,    0.5730,    0.5502,  -11.5833,   55.3142,   97.0741,   40.2500,87774.6797,    0.6518,   43.0112,   -0.6163,    0.9066,1,379434,1
0,    2.4201,    0.2993,    9.5580,    2.0325,   -1.6847,    0.1097,  -11.6269,   55.3398,   97.0861,   40.2500,87772.0078,    0.9021,   43.0065,    0.5265,    0.9066,1,379546,1
0,    2.4158,    0.3294,    9.5812,    1.7423,    1.1430,   -0.8467,  -11.6433,   55.3170,   97.1440,   40.2500,87773.8203,    0.7323,   43.0112,    0.0259,    0.9066,1,379659,1
0,    2.4124,    0.3188,    9.5548,    3.3568,    0.4522,   -0.7452,  -11.4407,   55.4701,   97.0582,   40.2500,87773.5625,    0.7572,   43.0205,    0.1006,    0.9422,1,379773,1
0,    2.4322,    0.3129,    9.5573,    0.0270,   -0.1869,    0.1871,  -11.3621,   55.4785,   96.9977,   40.2500,87778.1328,    0.3298,   43.0158,   -1.0816,    0.9422,1,379886,1
0,    2.4018,    0.2756,    9.5721,   -2.4037,   -0.7328,   -0.3210,  -11.5825,   55.3841,   96.9631,   40.2500,87773.8594,    0.7289,   43.0158,   -0.0949,    0.9422,1,379999,1
0,    2.4109,    0.3160,    9.5680,    0.2391,    0.6886,   -0.2187,  -11.6480,   55.5203,   96.9439,   40.2500,87776.9766,    0.4374,   43.0252,   -0.5208,    0.4374,1,380113,1
0,    2.4358,    0.3233,    9.5473,    0.5793,    1.2400,   -2.3173,  -11.5331,   55.5648,   96.8408,   40.2500,87775.3281,    0.5913,   43.0205,    0.3542,    0.7685,1,380226,1
0,    2.4262,    0.3098,    9.5706,   -1.9343,   -2.3848,   -0.4412,  -11.6801,   55.3569,   96.8094,   40.2500,87775.0703,    0.6157,   43.0205,   -0.2993,    0.7685,1,380338,1
0,    2.4166,    0.3170,    9.5651,   -0.0405,    2.4690,   -1.3564,  -11.7195,   55.4509,   96.7533,   40.2500,87775.7188,    0.5552,   43.0112,    0.0875,    0.7685,1,380454,1
0,    2.4015,    0.3065,    9.5839,   -0.7809,    0.6144,    0.9513,  -11.7836,   55.5975,   96.7973,   40.2500,87773.2578,    0.7849,   43.0252,    0.3673,    0.7849,1,380567,1
0,    2.3589,    0.2781,    9.5800,    0.1406,    0.8254,   -0.3487,  -11.6498,   55.5908,   96.7749,   40.2500,87775.1641,    0.6072,   43.0298,    0.0194,    0.7849,1,380680,1
0,    2.4104,    0.2887,    9.5720,    0.5770,   -0.2552,    0.4474,  -11.6143,   55.6776,   96.7065,   40.2500,87774.2109,    0.6960,   43.0252,    0.2649,    0.7849,1,380794,1
0,    2.4382,    0.3481,    9.5657,    2.6188,    0.2723,   -0.5614,  -11.5428,   55.6577,   96.7889,   40.2500,87778.2266,    0.3208,   43.0345,   -0.8230,    0.7849,1,380907,1
0,    2.4231,    0.3018,    9.5759,   -1.5453,   -0.6281,    2.1056,  -11.6327,   55.5965,   96.7901,   40.2500,87773.6953,    0.7441,   43.0392,    0.2157,    0.7849,1,381019,1
0,    2.4095,    0.3224,    9.5849,    0.0475,    0.5554,    1.0482,  -11.6107,   55.6400,   96.8478,   40.2500,87775.8125,    0.5466,   43.0345,   -0.2842,    0.7849,1,381134,1
0,    2.4152,    0.3018,    9.5953,    0.8191,    1.2838,    1.3550,  -11.5343,   55.6124,   96.9512,   40.2500,87775.4609,    0.5788,   43.0298,    0.5173,    0.5788,1,381246,1
0,    2.3856,    0.3029,    9.5839,    0.8232,    0.6099,    0.9674,  -11.7469,   55.6613,   97.0301,   40.2500,87772.7422,    0.8336,   43.0298,    0.3541,    0.8336,1,381359,1
0,    2.4248,    0.2990,    9.5669,   -2.7901,    0.1454,    0.9953,  -11.7825,   55.6956,   97.0904,   40.2500,87775.2031,    0.6033,   43.0345,    0.4286,    0.8336,1,381473,1
0,    2.4164,    0.3061,    9.5835,    0.3524,   -0.4964,   -0.4716,  -11.6830,   55.7179,   96.9590,   40.2500,87777.6641,    0.3734,   43.0392,   -0.4088,    1.0180,1,381586,1
0,    2.3960,    0.2772,    9.5607,   -0.0469,   -1.1180,    0.6647,  -11.7267,   55.5454,   96.9776,   40.2500,87777.3672,    0.4011,   43.0438,   -1.1456,    1.0180,1,381699,1
0,    2.3986,    0.3112,    9.5674,    1.4053,    1.6565,   -0.3882,  -11.6199,   55.5976,   96.8641,   40.2500,87773.0938,    0.8002,   43.0392,   -0.1184,    1.0180,1,381813,1
0,    2.4181,    0.3048,    9.5673,    0.8925,   -1.3247,    0.8743,  -11.4690,   55.4236,   96.8625,   40.2500,87775.2969,    0.5941,   43.0392,    0.2850,    1.0180,1,381925,1
0,    2.4052,    0.3140,    9.5729,    1.2426,    0.1651,    1.1604,  -11.4694,   55.4950,   96.8781,   40.2500,87777.1563,    0.4210,   43.0485,    0.1082,    1.0180,1,382038,1
0,    2.4310,    0.3463,    9.5840,   -0.6081,    0.3936,   -1.2415,  -11.5644,   55.4339,   96.8572,   40.2500,87778.3594,    0.3083,   43.0345,   -1.0321,    1.0180,1,382152,1
0,    2.4513,    0.3357,    9.5892,    0.1826,    1.0405,   -0.8273,  -11.4645,   55.5135,   96.8655,   40.2500,87779.0078,    0.2472,   43.0485,   -1.2383,    1.0180,1,382265,1
0,    2.4176,    0.2933,    9.5836,    0.3980,    0.4195,    0.1277,  -11.4911,   55.5485,   96.9215,   40.2500,87777.5469,    0.3841,   43.0485,   -0.8342,    1.0180,1,382378,1
0,    2.3958,    0.3087,    9.5681,   -1.4344,    1.1347,    0.8062,  -11.4117,   55.5849,   96.9686,   40.2500,87775.6875,    0.5580,   43.0485,   -0.1127,    1.0180,1,382492,1
0,    2.4308,    0.3090,    9.5595,    4.3212,    0.9637,    0.7971,  -11.1287,   55.6742,   97.0949,   40.3750,87774.6875,    0.6513,   43.0532,    0.5747,    1.0180,1,382605,1
0,    2.4008,    0.3062,    9.5804,    0.0292,    1.6529,    0.6714,  -11.1194,   55.9106,   97.1260,   40.3750,87772.8750,    0.8205,   43.0532,    0.9168,    1.0180,1,382717,1
0,    2.4479,    0.3299,    9.5568,    0.6125,   -0.8707,    1.6308,  -10.9015,   55.9163,   97.2419,   40.3750,87774.4766,    0.6711,   43.0485,    0.3904,    1.0180,1,382832,1
0,    2.4058,    0.3139,    9.5776,   -0.6022,   -0.9386,    0.1450,  -10.8021,   55.8525,   97.3178,   40.3750,87775.9922,    0.5290,   43.0579,   -0.0828,    0.6587,1,382944,1
0,    2.4256,    0.3202,    9.5890,    0.6429,    0.4070,   -0.6669,  -10.7140,   55.9104,   97.3034,   40.3750,87776.5938,    0.4736,   43.0532,   -0.5838,    0.6587,1,383057,1
0,    2.4200,    0.3085,    9.5788,   -0.4395,    0.0836,   -0.0695,  -10.8810,   55.9096,   97.3012,   40.3750,87772.9688,    0.8121,   43.0532,    0.2806,    0.8121,1,383171,1
0,    2.3942,    0.2863,    9.5963,   -1.1267,   -1.3441,    0.1194,  -10.8618,   55.9114,   97.2884,   40.3750,87773.3125,    0.7798,   43.0532,    0.6651,    0.8121,1,383284,1
0,    2.4115,    0.2980,    9.5801,    0.9306,    1.6310,    1.2151,  -10.8737,   55.9907,   97.3814,   40.3750,87775.4297,    0.5823,   43.0625,    0.3369,    0.8279,1,383396,1
0,    2.4366,    0.3038,    9.5816,   -0.6674,    1.8634,    0.0517,  -10.9232,   55.9108,   97.4320,   40.3750,87776.3359,    0.4974,   43.0579,   -0.7048,    0.9892,1,383511,1
0,    2.4357,    0.3216,    9.5796,   -0.6931,    0.3764,   -1.7005,  -10.9895,   55.9948,   97.3152,   40.3750,87776.3359,    0.4974,   43.0672,   -0.9117,    0.9892,1,383623,1
0,    2.3856,    0.2935,    9.5846,    2.6012,    1.8557,   -0.7293,  -10.7647,   56.1512,   97.3363,   40.3750,87773.0547,    0.8042,   43.0625,    0.1160,    0.9892,1,383736,1
0,    2.4492,    0.3122,    9.5750,    2.2387,   -1.4753,    0.4144,  -10.4250,   56.1148,   97.4184,   40.3750,87773.6641,    0.7469,   43.0579,    0.3805,    0.7668,1,383850,1
0,    2.4382,    0.3136,    9.5428,   -1.1890,   -0.0743,   -0.4005,  -10.3859,   55.9569,   97.4468,   40.3750,87774.6094,    0.6587,   43.0625,    0.3583,    0.7668,1,383963,1
0,    2.4532,    0.3185,    9.5570,   -1.1329,    0.0934,   -0.5442,  -10.4499,   55.9706,   97.4780,   40.3750,87775.2188,    0.6015,   43.0672,   -0.1889,    0.7668,1,384076,1
0,    2.4345,    0.3008,    9.5781,   -0.5354,    0.5150,    1.5417,  -10.5732,   56.0175,   97.5478,   40.3750,87774.5703,    0.6621,   43.0719,   -0.0556,    0.7872,1,384190,1
0,    2.4155,    0.3206,    9.5671,   -1.7416,   -1.1115,    1.5382,  -10.7047,   55.9520,   97.5969,   40.3750,87774.6563,    0.6542,   43.0719,    0.1462,    0.7872,1,384303,1
0,    2.4034,    0.3190,    9.5642,    0.1297,    0.7031,    0.0036,  -10.6967,   56.0656,   97.6299,   40.3750,87777.1172,    0.4243,   43.0765,   -0.3388,    0.7872,1,384415,1
0,    2.4158,    0.3177,    9.5764,    0.5331,    1.3036,    0.2703,  -10.7234,   56.1169,   97.6434,   40.3750,87778.4141,    0.3032,   43.0625,   -0.7474,    0.7872,1,384530,1
0,    2.4176,    0.3271,    9.5551,   -0.3650,   -0.3895,    0.3011,  -10.8144,   56.1109,   97.7566,   40.3750,87775.0078,    0.6219,   43.0765,   -0.2848,    0.7872,1,384642,1
0,    2.4323,    0.3639,    9.5532,    0.9809,    2.0361,   -0.8728,  -10.5705,   56.1558,   97.6465,   40.3750,87774.3594,    0.6825,   43.0765,    0.2597,    0.7872,1,384755,1
0,    2.3992,    0.3055,    9.5796,    0.6026,    0.2060,   -0.1192,  -10.5804,   56.3033,   97.6491,   40.3750,87777.1172,    0.4243,   43.0765,    0.1221,    0.7872,1,384869,1
0,    2.4379,    0.3253,    9.5760,   -0.0896,   -0.2785,   -1.4691,  -10.5669,   56.2718,   97.5826,   40.3750,87774.9609,    0.6258,   43.0765,   -0.0745,    0.7872,1,384982,1
0,    2.4138,    0.3198,    9.5778,    1.8016,    0.8409,    0.5950,  -10.4633,   56.3942,   97.5843,   40.3750,87777.4219,    0.3961,   43.0765,   -0.6748,    0.7872,1,385094,1
0,    2.4390,    0.3374,    9.5851,   -0.8137,   -1.0656,    1.0184,  -10.5042,   56.3116,   97.7317,   40.3750,87773.1484,    0.7951,   43.0765,    0.6391,    0.7951,1,385209,1
0,    2.4345,    0.3748,    9.5613,   -0.2771,    0.2104,    1.2876,  -10.5341,   56.4380,   97.8592,   40.3750,87776.0000,    0.5285,   43.0812,   -0.1761,    0.7951,1,385321,1
0,    2.4395,    0.3356,    9.5835,   -0.8198,    1.5465,   -0.3662,  -10.6016,   56.6005,   97.8957,   40.3750,87774.7500,    0.6456,   43.0859,    0.6499,    0.7951,1,385434,1
0,    2.4201,    0.3397,    9.5684,    0.4356,    1.0715,   -1.0480,  -10.6015,   56.6560,   97.9701,   40.3750,87775.1406,    0.6095,   43.0859,   -0.2313,    0.7951,1,385548,1
0,    2.4442,    0.3207,    9.5792,    0.8974,    0.0230,   -1.1647,  -10.4945,   56.6367,   97.9256,   40.3750,87776.3047,    0.5002,   43.0905,   -0.1287,    0.8913,1,385661,1
0,    2.3915,    0.3327,    9.5732,    0.2892,    0.8976,    0.2757,  -10.4232,   56.6407,   97.8478,   40.3750,87776.3906,    0.4923,   43.0905,   -0.6331,    0.8913,1,385774,1
0,    2.4196,    0.2785,    9.5749,    0.2368,   -1.7865,    2.2787,  -10.4588,   56.6245,   98.0201,   40.3750,87775.3984,    0.5851,   43.0859,   -0.3733,    0.8913,1,385888,1
0,    2.4342,    0.3187,    9.5692,   -2.6360,   -1.7596,    0.4762,  -10.6669,   56.4247,   98.1286,   40.3750,87775.6953,    0.5574,   43.0952,   -0.0284,    0.8913,1,386001,1
0,    2.4253,    0.3288,    9.5559,    0.5078,   -1.0562,   -0.7722,  -10.6568,   56.3188,   98.1988,   40.3750,87775.4844,    0.5771,   43.0859,    0.1066,    0.8913,1,386113,1
0,    2.4144,    0.3182,    9.5658,    0.1901,   -0.6719,   -0.7396,  -10.5435,   56.2182,   98.2116,   40.3750,87773.1172,    0.7980,   43.0952,    0.4030,    0.8913,1,386227,1
0,    2.4053,    0.3080,    9.5575,   -0.8237,    1.6182,    0.8818,  -10.5743,   56.2650,   98.2153,   40.3750,87777.9922,    0.3429,   43.0859,   -0.4338,    0.8913,1,386340,1
0,    2.4476,    0.3543,    9.5697,    1.2339,    0.3239,    0.7649,  -10.4466,   56.3757,   98.2641,   40.3750,87776.4844,    0.4837,   43.0952,   -0.3222,    0.8913,1,386453,1
0,    2.4355,    0.3672,    9.5670,   -0.3665,   -0.2602,   -0.5508,  -10.5234,   56.3644,   98.1164,   40.3750,87774.8828,    0.6332,   43.0905,   -0.5746,    0.8913,1,386567,1
0,    2.4552,    0.3427,    9.5714,    1.4924,   -0.2648,   -1.7200,  -10.3505,   56.3819,   97.9861,   40.3750,87776.7813,    0.4554,   43.0905,    0.0080,    0.8913,1,386680,1
0,    2.4019,    0.2873,    9.5738,   -0.7765,    0.0500,   -1.6865,  -10.3012,   56.3892,   97.9344,   40.3750,87775.5781,    0.5681,   43.1045,    0.1182,    0.8913,1,386792,1
0,    2.3988,    0.2823,    9.5856,   -1.4389,    0.3718,   -0.9367,  -10.3038,   56.3996,   97.9283,   40.3750,87772.7656,    0.8313,   43.0859,    0.4007,    0.8913,1,386907,1
0,    2.4049,    0.3202,    9.5922,    1.9578,    0.7485,   -1.0854,  -10.1470,   56.3949,   97.8678,   40.3750,87774.0234,    0.7136,   43.1045,    0.5133,    0.8913,1,387019,1
0,    2.4358,    0.3653,    9.5631,   -1.6777,    0.2311,   -0.0457,  -10.2026,   56.3543,   97.9217,   40.3750,87775.7891,    0.5489,   43.0999,   -0.0020,    0.8913,1,387132,1
0,    2.4593,    0.3270,    9.5776,    0.3319,    0.7020,   -0.1707,  -10.1721,   56.3263,   98.0147,   40.3750,87773.4609,    0.7662,   43.0999,   -0.2078,    0.8913,1,387246,1
0,    2.4317,    0.3731,    9.5868,    0.3958,    0.1414,   -1.6210,  -10.0031,   56.4364,   97.8979,   40.3750,87774.6250,    0.6570,   43.1092,    0.0110,    0.8913,1,387359,1
0,    2.4452,    0.3144,    9.5700,    1.6514,   -1.0774,   -0.8213,   -9.8933,   56.4654,   97.8078,   40.3750,87776.5234,    0.4798,   43.1092,    0.0050,    0.8913,1,387471,1
0,    2.4040,    0.3166,    9.5961,   -0.7188,    0.3946,    0.0766,   -9.8603,   56.4680,   97.8284,   40.3750,87771.3047,    0.9678,   43.0999,    0.6832,    0.9678,1,387586,1
0,    2.4486,    0.3389,    9.5535,   -1.9266,   -0.5732,    3.1678,  -10.0414,   56.3423,   98.0228,   40.3750,87777.4766,    0.3904,   43.1092,   -0.3227,    0.9678,1,387698,1
0,    2.4178,    0.3793,    9.5728,    1.7722,   -0.3546,    1.1540,   -9.8478,   56.2895,   98.0734,   40.3750,87773.5078,    0.7617,   43.1185,    0.6018,    0.9678,1,387811,1
0,    2.4202,    0.3575,    9.5792,    0.7765,    1.0000,   -0.4444,   -9.7683,   56.2874,   98.0943,   40.3750,87772.6016,    0.8465,   43.1092,   -0.2527,    0.9678,1,387925,1
0,    2.4298,    0.3642,    9.5677,    0.2172,   -0.6184,    0.1352,   -9.7863,   56.2724,   98.0372,   40.3750,87775.0625,    0.6168,   43.1185,    0.3783,    0.9678,1,388038,1
0,    2.4429,    0.3903,    9.5850,    0.4423,   -1.0704,    0.5548,   -9.7743,   56.2355,   98.1136,   40.3750,87774.4531,    0.6734,   43.1185,   -0.0028,    0.9678,1,388151,1
0,    2.4627,    0.3309,    9.5669,    0.8279,   -0.3852,   -1.5624,   -9.7536,   56.1925,   97.9325,   40.3750,87773.8984,    0.7250,   43.1139,    0.1044,    0.9678,1,388265,1
0,    2.4030,    0.3437,    9.5388,   -0.6635,    0.8203,    1.0750,   -9.7915,   56.1350,   97.9440,   40.3750,87775.1484,    0.6089,   43.1185,    0.2308,    0.9678,1,388377,1
0,    2.4124,    0.3052,    9.5656,    3.4768,   -0.1600,   -1.7843,   -9.5978,   56.1069,   97.8243,   40.3750,87774.5000,    0.6689,   43.1185,    0.0691,    0.9678,1,388490,1
0,    2.4339,    0.3560,    9.5609,   -1.5440,   -0.4725,    0.4905,   -9.7239,   56.0495,   97.8341,   40.3750,87777.8672,    0.3542,   43.1139,   -0.7472,    0.9678,1,388606,1
0,    2.4305,    0.3807,    9.5435,   -0.2001,    1.2149,   -0.4815,   -9.6846,   56.1870,   97.7985,   40.3750,87777.0078,    0.4345,   43.1139,   -0.4414,    0.9678,1,388719,1
0,    2.4781,    0.3383,    9.5619,   -0.8789,    0.2125,    0.1886,   -9.9192,   56.2125,   97.8336,   40.3750,87778.5156,    0.2936,   43.1232,   -0.8473,    0.9678,1,388832,1
0,    2.3858,    0.3809,    9.5713,   -1.3032,   -0.6849,   -0.4467,   -9.9773,   56.1345,   97.8056,   40.3750,87775.8438,    0.5438,   43.1185,    0.1404,    0.9678,1,388946,1
0,    2.4899,    0.3515,    9.5727,   -0.3881,   -1.2529,    1.2766,  -10.0686,   56.0339,   97.8782,   40.3750,87775.1484,    0.6089,   43.1279,    0.0872,    0.9678,1,389059,1
0,    2.4053,    0.3344,    9.5753,    0.3362,   -0.1551,    0.2598,  -10.2012,   56.0328,   97.9549,   40.3750,87776.1016,    0.5194,   43.1232,    0.1517,    0.8211,1,389171,1
0,    2.4260,    0.3078,    9.5905,    2.2624,    1.0252,    0.2558,  -10.0975,   56.0876,   98.0134,   40.3750,87775.8438,    0.5438,   43.1232,   -0.2225,    0.8211,1,389285,1
0,    2.4151,    0.3218,    9.5951,   -1.3523,   -0.5437,    2.4164,  -10.3533,   56.0219,   98.1121,   40.3750,87775.8438,    0.5438,   43.1326,   -0.3385,    0.8211,1,389398,1
0,    2.4521,    0.3625,    9.5983,    0.2813,    1.4913,   -0.7736,  -10.3268,   56.1068,   98.1497,   40.3750,87777.6563,    0.3740,   43.1326,   -0.4131,    0.8211,1,389511,1
0,    2.4065,    0.3401,    9.5644,   -1.2451,    2.9460,   -1.0008,  -10.4155,   56.1492,   98.1621,   40.3750,87776.1016,    0.5194,   43.1326,   -0.1956,    0.8211,1,389625,1
0,    2.4600,    0.3269,    9.5610,   -0.1264,   -0.7504,    1.4041,  -10.3803,   56.2398,   98.1733,   40.3750,87778.0938,    0.3332,   43.1279,   -0.3480,    0.8211,1,389738,1
0,    2.3643,    0.3822,    9.5524,    3.0342,    1.2024,    0.1146,  -10.3834,   56.2582,   98.2675,   40.3750,87775.9297,    0.5359,   43.1419,    0.3756,    0.8211,1,389850,1
0,    2.4917,    0.3426,    9.5522,   -0.1641,    1.6687,   -0.1997,  -10.3747,   56.4136,   98.2615,   40.3750,87775.9297,    0.5359,   43.1372,    0.1494,    0.8211,1,389965,1
0,    2.3860,    0.3954,    9.5653,    2.0926,    0.2268,    1.4988,  -10.1400,   56.4331,   98.3621,   40.3750,87778.6953,    0.2772,   43.1419,   -0.1637,    0.8211,1,390077,1
0,    2.4470,    0.2628,    9.5782,    0.0046,    1.2439,    1.2252,   -9.9271,   56.4961,   98.4148,   40.3750,87775.9297,    0.5359,   43.1466,    0.0813,    0.8211,1,390190,1
0,    2.3905,    0.2835,    9.5512,    1.9087,    0.4240,    0.0994,   -9.8249,   56.4797,   98.4277,   40.5000,87775.0234,    0.6202,   43.1419,    0.2643,    0.8211,1,390304,1
0,    2.4317,    0.3401,    9.5604,   -3.4555,   -1.6838,    2.8775,  -10.1129,   56.4271,   98.4679,   40.5000,87775.6719,    0.5597,   43.1466,    0.7071,    0.8211,1,390417,1
0,    2.4360,    0.3554,    9.5471,   -1.3119,   -0.1032,    0.5725,  -10.1512,   56.3437,   98.4382,   40.5000,87774.7266,    0.6479,   43.1419,    0.2437,    0.8211,1,390529,1
0,    2.4578,    0.4080,    9.5659,    1.8309,   -0.5928,    0.9035,   -9.9849,   56.1719,   98.4661,   40.5000,87776.5781,    0.4747,   43.1512,   -0.3155,    0.8211,1,390644,1
0,    2.4380,    0.3793,    9.5726,   -0.4131,   -0.0484,   -0.5811,   -9.9278,   56.0792,   98.3139,   40.5000,87776.8828,    0.4464,   43.1466,   -0.1982,    0.8211,1,390756,1
0,    2.4327,    0.2923,    9.5709,    1.1477,    0.7504,    0.6710,  -10.0019,   56.2098,   98.2659,   40.5000,87777.2266,    0.4142,   43.1466,   -0.4018,    0.8211,1,390869,1
0,    2.3839,    0.2608,    9.5891,   -0.2245,    1.6361,    0.0170,  -10.1456,   56.2322,   98.2293,   40.5000,87778.5313,    0.2920,   43.1466,   -0.4241,    0.8211,1,390983,1
0,    2.4339,    0.3246,    9.5860,   -1.8252,    0.2008,   -0.6181,  -10.2562,   56.3363,   98.2250,   40.5000,87775.1172,    0.6117,   43.1512,    0.0517,    0.8211,1,391096,1
0,    2.4590,    0.3984,    9.5659,   -1.2882,   -1.4821,   -0.0007,  -10.2703,   56.2896,   98.1997,   40.5000,87777.8750,    0.3536,   43.1559,   -0.4338,    0.8211,1,391209,1
0,    2.4112,    0.3620,    9.5853,    2.7125,    2.4732,   -1.0284,  -10.0033,   56.5315,   98.1298,   40.5000,87780.0391,    0.1510,   43.1512,   -0.4441,    0.8211,1,391323,1
0,    2.3911,    0.2849,    9.5869,   -0.5812,   -0.0361,   -1.8212,   -9.9367,   56.6130,   97.9609,   40.5000,87779.0859,    0.2405,   43.1559,   -0.9087,    0.8211,1,391436,1
0,    2.3987,    0.2973,    9.5798,   -0.0916,    0.1268,   -1.0699,   -9.9010,   56.6183,   97.9270,   40.5000,87776.4141,    0.4900,   43.1606,   -0.0202,    0.8211,1,391548,1
0,    2.4424,    0.3240,    9.5723,    1.4781,    0.8937,    0.6368,   -9.7356,   56.5975,   97.8798,   40.5000,87776.7109,    0.4623,   43.1559,    0.1934,    0.8211,1,391663,1
0,    2.4231,    0.3229,    9.5734,    1.6562,    2.0294,   -0.4032,   -9.6462,   56.7168,   97.9774,   40.5000,87778.8750,    0.2602,   43.1559,   -0.3468,    0.6151,1,391775,1
0,    2.4428,    0.3648,    9.5785,    0.1296,    0.5686,   -0.0303,   -9.5910,   56.7212,   97.9631,   40.5000,87776.4609,    0.4861,   43.1606,   -0.4436,    0.7040,1,391888,1
0,    2.3828,    0.3102,    9.5829,    0.0227,   -1.6078,   -1.0849,   -9.4916,   56.6556,   97.8381,   40.5000,87778.2266,    0.3208,   43.1606,   -0.5559,    0.7040,1,392002,1
0,    2.4221,    0.2960,    9.5500,    0.5978,   -0.8593,    1.0993,   -9.4111,   56.5995,   97.8744,   40.5000,87775.5469,    0.5709,   43.1652,    0.4169,    0.7040,1,392115,1
0,    2.3804,    0.3093,    9.5855,    0.2081,    1.1561,   -0.4913,   -9.3645,   56.7593,   97.8477,   40.5000,87775.2500,    0.5987,   43.1652,    0.2962,    0.5987,1,392227,1
0,    2.4336,    0.3464,    9.5673,   -0.4098,   -0.2470,    0.9172,   -9.4162,   56.7966,   97.9405,   40.5000,87778.9609,    0.2523,   43.1606,   -0.1644,    0.7001,1,392342,1
0,    2.4342,    0.3752,    9.5670,   -1.6171,    1.5687,   -0.2930,   -9.5718,   56.8958,   97.9805,   40.5000,87780.1719,    0.1391,   43.1699,   -1.1253,    0.7283,1,392454,1
0,    2.4471,    0.3453,    9.5895,    2.4822,    1.4782,   -1.9616,   -9.5006,   56.9559,   97.9429,   40.5000,87775.9453,    0.5335,   43.1699,   -0.6531,    0.7283,1,392567,1
0,    2.4424,    0.3094,    9.5788,    1.0973,    1.1514,   -1.2238,   -9.4187,   57.0354,   97.6976,   40.5000,87774.9922,    0.6230,   43.1746,    0.2681,    0.7283,1,392681,1
0,    2.4218,    0.3074,    9.5750,    0.1899,    1.6083,    0.5693,   -9.4005,   57.1384,   97.7447,   40.5000,87778.0547,    0.3371,   43.1746,    0.3234,    0.7283,1,392794,1
0,    2.4416,    0.3389,    9.5668,    0.5067,    0.4264,    0.1087,   -9.2728,   57.2413,   97.8112,   40.5000,87778.7500,    0.2721,   43.1746,   -0.5087,    0.7283,1,392907,1
0,    2.4256,    0.3370,    9.5719,    0.9738,    1.5267,   -1.6377,   -9.1980,   57.3373,   97.7670,   40.5000,87776.8906,    0.4453,   43.1746,   -0.3430,    0.7283,1,393021,1
0,    2.4374,    0.3390,    9.5678,   -1.5471,    0.1033,    0.9412,   -9.2734,   57.3500,   97.7882,   40.5000,87778.4453,    0.3004,   43.1746,   -0.2633,    0.3004,1,393133,1
0,    2.4639,    0.3557,    9.5619,   -3.4583,    0.3479,   -1.8662,   -9.4766,   57.3354,   97.7300,   40.5000,87774.6875,    0.6513,   43.1839,    0.5686,    0.6513,1,393246,1
0,    2.4139,    0.3674,    9.5697,   -1.1764,   -1.3891,    1.3723,   -9.4858,   57.1776,   97.7607,   40.5000,87777.8438,    0.3564,   43.1746,   -0.3042,    0.6513,1,393360,1
0,    2.4324,    0.3289,    9.5702,   -2.2717,   -0.8413,   -0.4788,   -9.6461,   57.1577,   97.6244,   40.5000,87775.9844,    0.5303,   43.1839,    0.2846,    0.6513,1,393473,1
0,    2.3980,    0.3451,    9.5563,    0.8252,   -1.1935,    1.3288,   -9.5734,   57.0906,   97.7568,   40.5000,87778.1875,    0.3247,   43.1839,   -0.6564,    0.6513,1,393586,1
0,    2.4962,    0.3165,    9.5555,    0.6962,    0.2653,   -0.1191,   -9.5891,   57.1294,   97.6332,   40.5000,87776.0313,    0.5256,   43.1839,    0.0450,    0.8285,1,393700,1
0,    2.3561,    0.3893,    9.5486,   -0.6196,   -1.1018,   -0.4242,   -9.6202,   57.0312,   97.6768,   40.5000,87775.0781,    0.6151,   43.1886,    0.0697,    0.8285,1,393813,1
0,    2.5250,    0.3319,    9.5647,   -0.2581,    2.2267,   -2.3633,   -9.5660,   57.1454,   97.4865,   40.5000,87774.8203,    0.6389,   43.1886,    0.5327,    0.8285,1,393925,1
0,    2.3978,    0.3512,    9.5811,    2.7472,   -0.5781,   -0.6736,   -9.4168,   57.0865,   97.5214,   40.5000,87773.6094,    0.7527,   43.1886,    0.5463,    0.8285,1,394040,1
0,    2.5006,    0.3429,    9.5542,    1.1573,    1.4727,   -1.1365,   -9.2398,   57.2136,   97.5043,   40.5000,87778.5391,    0.2914,   43.1886,   -0.6308,    0.8285,1,394152,1
0,    2.3926,    0.3569,    9.5555,    1.9667,    2.3025,   -0.9202,   -8.9427,   57.2937,   97.4560,   40.5000,87776.7266,    0.4606,   43.1839,   -0.5461,    0.8285,1,394265,1
0,    2.4395,    0.2938,    9.5755,    0.5917,    1.8469,   -0.7776,   -8.8340,   57.4234,   97.4107,   40.5000,87775.2109,    0.6020,   43.1886,   -0.5739,    0.8285,1,394379,1
0,    2.4131,    0.3383,    9.5593,   -1.0077,    1.5054,   -0.1048,   -8.8426,   57.5970,   97.2973,   40.5000,87776.4688,    0.4850,   43.1839,    0.1843,    0.8285,1,394492,1
0,    2.4304,    0.3145,    9.5603,   -0.9602,    2.2186,   -0.3654,   -8.9050,   57.9027,   97.2475,   40.5000,87774.5625,    0.6632,   43.1886,    0.4467,    0.6632,1,394604,1
0,    2.4276,    0.3590,    9.5611,    2.7988,    3.0168,   -1.3373,   -8.8959,   58.0475,   97.2678,   40.5000,87777.3750,    0.4006,   43.1886,   -0.1443,    0.6632,1,394721,1
0,    2.4429,    0.3269,    9.5778,   -2.2100,   -1.1854,    2.4322,   -9.0292,   57.9622,   97.4090,   40.5000,87775.8594,    0.5421,   43.1932,    0.2253,    0.6632,1,394833,1
0,    2.4237,    0.3322,    9.5774,    0.2521,   -1.3617,   -2.3262,   -9.1493,   57.7389,   97.2839,   40.5000,87774.3047,    0.6876,   43.1979,    0.1424,    0.6876,1,394946,1
0,    2.4391,    0.3296,    9.5907,    2.9403,    0.7507,   -0.4060,   -9.1418,   57.7132,   97.3394,   40.5000,87774.6563,    0.6542,   43.1886,    0.6253,    0.6876,1,395060,1
0,    2.4268,    0.3261,    9.5557,    0.5770,    1.0245,   -0.5699,   -9.0679,   57.7738,   97.4238,   40.5000,87774.9531,    0.6269,   43.2026,    0.5634,    0.6876,1,395173,1
0,    2.4233,    0.3216,    9.5472,    1.1576,    0.3009,    1.6525,   -8.9853,   57.8369,   97.4970,   40.5000,87777.4609,    0.3927,   43.1979,   -0.2561,    0.6876,1,395286,1
0,    2.4055,    0.3329,    9.5609,    0.3602,    1.0786,    0.0464,   -8.9666,   57.9446,   97.5045,   40.3750,87776.8594,    0.4481,   43.2073,   -0.3190,    0.6876,1,395400,1
0,    2.4546,    0.3315,    9.5720,   -0.6450,    2.3938,   -2.4013,   -9.2203,   58.1037,   97.4376,   40.3750,87777.7656,    0.3637,   43.2026,   -0.6674,    0.6876,1,395513,1
0,    2.4418,    0.3871,    9.5575,   -0.3767,    0.2231,   -1.2002,   -9.3746,   58.1050,   97.3448,   40.3750,87777.5078,    0.3876,   43.2073,   -0.1746,    0.6876,1,395625,1
0,    2.4580,    0.3206,    9.5710,   -2.8289,    0.0500,   -0.8146,   -9.5871,   58.0808,   97.1555,   40.3750,87779.3203,    0.2184,   43.1979,   -0.6304,    0.6876,1,395739,1
0,    2.3788,    0.2960,    9.5749,   -0.3522,    1.2592,   -1.1464,   -9.7796,   58.1387,   97.0605,   40.3750,87775.9531,    0.5331,   43.2119,    0.2338,    0.6876,1,395852,1
0,    2.4435,    0.2949,    9.5633,   -1.0501,   -1.1603,    1.5443,   -9.7861,   58.0867,   97.0664,   40.3750,87775.6484,    0.5619,   43.2166,    0.2244,    0.6876,1,395965,1
0,    2.4323,    0.3580,    9.5770,   -1.9970,   -0.2311,    0.2784,   -9.9087,   58.1745,   97.1327,   40.3750,87775.0469,    0.6179,   43.2119,    0.8993,    0.6876,1,396079,1
0,    2.4525,    0.3403,    9.5705,   -0.0595,    0.3811,    1.4120,  -10.0005,   58.3011,   97.0864,   40.3750,87778.4531,    0.2993,   43.2119,   -0.4026,    0.6876,1,396192,1
0,    2.3995,    0.3334,    9.5571,    0.1564,    0.4337,   -1.0449,  -10.0055,   58.3933,   97.0619,   40.3750,87775.1328,    0.6100,   43.2119,    0.1243,    0.6876,1,396304,1
0,    2.3939,    0.2924,    9.5861,   -0.5860,    0.1693,    0.6798,   -9.9511,   58.4364,   97.1394,   40.3750,87777.8984,    0.3513,   43.2213,   -0.4979,    0.6876,1,396419,1
0,    2.3911,    0.2753,    9.5801,   -1.9045,   -0.2813,    0.8509,  -10.0222,   58.5213,   97.1768,   40.3750,87776.6875,    0.4651,   43.2166,    0.1818,    0.7187,1,396531,1
0,    2.4156,    0.3517,    9.5764,   -1.3244,    0.5882,   -0.0617,  -10.1718,   58.4605,   97.2827,   40.3750,87776.3828,    0.4929,   43.2166,   -0.3145,    0.7187,1,396644,1
0,    2.4686,    0.3794,    9.5624,   -1.1502,   -0.1038,   -1.1267,  -10.2180,   58.6291,   97.1365,   40.5000,87775.1328,    0.6100,   43.2073,    0.2940,    0.7187,1,396758,1
0,    2.3960,    0.3258,    9.5699,    0.4189,   -0.2962,    1.2990,  -10.1829,   58.6405,   97.2484,   40.5000,87778.8047,    0.2669,   43.2213,   -0.5502,    0.7759,1,396871,1
0,    2.4039,    0.3530,    9.5802,    0.4297,    0.8102,    1.5711,  -10.0219,   58.6470,   97.2178,   40.5000,87776.6875,    0.4651,   43.2166,   -0.2818,    0.7759,1,396984,1
0,    2.4582,    0.2978,    9.5602,   -1.5342,   -0.0185,   -0.7954,  -10.1933,   58.5830,   97.2389,   40.5000,87775.8281,    0.5449,   43.2213,   -0.3286,    0.7759,1,397098,1
0,    2.3280,    0.3881,    9.5835,   -1.5734,    1.5137,    0.6749,  -10.3263,   58.5493,   97.3750,   40.5000,87776.6875,    0.4651,   43.2353,    0.3290,    0.7759,1,397210,1
0,    2.5312,    0.3399,    9.5429,    0.0777,    0.0141,   -0.2624,  -10.2519,   58.6341,   97.3337,   40.5000,87777.0313,    0.4322,   43.2306,   -0.1218,    0.7759,1,397323,1
0,    2.3256,    0.3588,    9.5836,    1.6958,    0.1761,   -2.8158,  -10.0770,   58.6424,   97.0931,   40.5000,87774.9219,    0.6299,   43.2259,    0.0760,    0.7759,1,397437,1
0,    2.4628,    0.2776,    9.5753,    0.1165,   -0.2812,    0.3264,  -10.0072,   58.6643,   97.0267,   40.5000,87779.2344,    0.2263,   43.2306,   -0.5319,    0.7759,1,397550,1
0,    2.3280,    0.3015,    9.6087,    0.2765,    0.1170,   -0.8994,   -9.9762,   58.5998,   97.0322,   40.5000,87778.0313,    0.3388,   43.2259,   -0.3894,    0.7759,1,397663,1
0,    2.4835,    0.3088,    9.5605,   -0.4371,    0.4041,    0.8692,  -10.0469,   58.6327,   97.0680,   40.5000,87777.0781,    0.4283,   43.2259,   -0.6762,    0.7759,1,397777,1
0,    2.4018,    0.3680,    9.5713,   -1.3732,    0.2190,    0.9247,  -10.1278,   58.6785,   97.2276,   40.5000,87775.5703,    0.5692,   43.2306,    0.4262,    0.7759,1,397890,1
0,    2.4599,    0.3735,    9.5735,   -0.3156,   -1.0657,    0.9582,  -10.1214,   58.6133,   97.2448,   40.5000,87779.5859,    0.1939,   43.2306,   -0.3242,    0.7759,1,398002,1
0,    2.4244,    0.3406,    9.5913,    3.5926,    1.1700,    0.0809,   -9.8180,   58.5953,   97.2133,   40.5000,87777.1641,    0.4198,   43.2306,   -0.0466,    0.7759,1,398116,1
0,    2.4545,    0.3270,    9.5520,   -1.3341,   -1.5896,    1.1464,   -9.7614,   58.4976,   97.2113,   40.5000,87773.4531,    0.7668,   43.2399,    0.2267,    0.7759,1,398229,1
0,    2.4331,    0.3543,    9.5604,   -0.5814,    1.9362,   -0.6740,   -9.7738,   58.5678,   97.1919,   40.5000,87775.0078,    0.6219,   43.2353,    0.6566,    0.7759,1,398342,1
0,    2.4897,    0.3752,    9.5348,   -0.8192,   -0.4162,    0.0573,   -9.7711,   58.6214,   97.1754,   40.5000,87775.9141,    0.5370,   43.2306,    0.2173,    0.7759,1,398456,1
0,    2.4113,    0.3714,    9.5543,   -0.4029,   -0.3420,    2.2753,   -9.7385,   58.6010,   97.3890,   40.5000,87775.9609,    0.5324,   43.2353,   -0.2811,    0.7759,1,398569,1
0,    2.4674,    0.3559,    9.5501,    0.0944,    1.3554,   -2.2569,   -9.7550,   58.6547,   97.1858,   40.5000,87778.1172,    0.3309,   43.2399,   -0.4594,    0.7759,1,398681,1
0,    2.4017,    0.3032,    9.5682,   -0.4951,    0.2334,   -1.5173,   -9.7241,   58.6556,   97.0755,   40.5000,87775.6094,    0.5653,   43.2446,    0.1424,    0.7759,1,398796,1
0,    2.4241,    0.3194,    9.5787,   -2.1123,   -1.9566,    1.1731,   -9.7738,   58.4846,   97.0369,   40.5000,87777.4688,    0.3921,   43.2446,   -0.2672,    0.7759,1,398908,1
0,    2.4211,    0.3159,    9.5738,    1.6898,    0.5323,    0.4578,   -9.6926,   58.4323,   97.1800,   40.5000,87776.9531,    0.4397,   43.2399,    0.1157,    0.7759,1,399021,1
0,    2.4038,    0.3816,    9.5612,    1.6546,    1.1505,    0.1735,   -9.5621,   58.4560,   97.1814,   40.5000,87776.3516,    0.4962,   43.2399,   -0.3375,    0.7759,1,399135,1
0,    2.5028,    0.3966,    9.5530,    0.0234,   -1.2615,    2.3277,   -9.6358,   58.4442,   97.4315,   40.6250,87775.7422,    0.5528,   43.2399,    0.0136,    0.7759,1,399248,1
0,    2.4397,    0.3963,    9.5575,   -0.0905,    1.0410,   -2.2027,   -9.5994,   58.4453,   97.3606,   40.6250,87775.7031,    0.5567,   43.2493,    0.2295,    0.7759,1,399361,1
0,    2.4068,    0.2648,    9.5698,   -0.1099,    0.0497,   -0.0739,   -9.5608,   58.3893,   97.2923,   40.6250,87772.1172,    0.8913,   43.2539,    0.9952,    0.8913,1,399475,1
0,    2.3916,    0.2771,    9.5969,   -0.7779,   -0.4375,   -0.4957,   -9.5519,   58.4052,   97.3178,   40.6250,87774.8828,    0.6332,   43.2539,    0.6292,    0.8913,1,399587,1
0,    2.4566,    0.3516,    9.5893,   -0.5282,    0.4144,    0.7768,   -9.5590,   58.5156,   97.2722,   40.6250,87775.1406,    0.6095,   43.2539,    0.5998,    0.8913,1,399700,1
0,    2.4442,    0.3946,    9.5815,   -0.9957,    0.0666,    0.1364,   -9.6318,   58.5582,   97.3660,   40.6250,87777.6875,    0.3712,   43.2493,   -0.5840,    0.8913,1,399814,1
0,    2.4271,    0.3693,    9.5670,    0.5401,    1.3204,    0.1703,   -9.6859,   58.6585,   97.3727,   40.6250,87779.7188,    0.1815,   43.2633,   -0.7509,    0.8913,1,399927,1
0,    2.4060,    0.2867,    9.5965,   -1.5343,   -0.5420,   -0.9828,   -9.7919,   58.6649,   97.2730,   40.6250,87777.9922,    0.3429,   43.2633,   -0.6658,    0.8913,1,400040,1
0,    2.4012,    0.3422,    9.5714,   -0.9117,   -1.1478,    0.8171,   -9.9167,   58.6671,   97.2094,   40.6250,87779.5469,    0.1974,   43.2633,   -0.6137,    0.8913,1,400154,1
0,    2.4539,    0.3278,    9.5707,   -0.6626,   -1.1636,   -0.0486,   -9.9855,   58.6207,   97.1981,   40.6250,87776.4375,    0.4878,   43.2633,    0.2350,    0.8913,1,400267,1
0,    2.3786,    0.3392,    9.5750,   -1.1423,    1.0310,    0.6849,  -10.0718,   58.6464,   97.2937,   40.6250,87776.7813,    0.4554,   43.2586,   -0.0498,    0.8913,1,400379,1
0,    2.4642,    0.3338,    9.5870,    3.3731,    1.2299,    0.1294,   -9.9131,   58.7254,   97.3117,   40.6250,87775.8750,    0.5410,   43.2586,    0.4406,    0.8913,1,400494,1
0,    2.3767,    0.3439,    9.5921,   -3.2187,   -0.3769,    0.9894,  -10.0051,   58.7597,   97.3348,   40.6250,87776.1328,    0.5161,   43.2679,    0.1087,    0.8913,1,400606,1
0,    2.4664,    0.3215,    9.5670,    0.6118,   -1.6881,    1.0639,   -9.8991,   58.6174,   97.3544,   40.6250,87778.6875,    0.2778,   43.2633,   -0.2249,    0.2778,1,400719,1
0,    2.3929,    0.3474,    9.5686,    1.2032,   -1.3155,    2.5112,   -9.8910,   58.5634,   97.5278,   40.6250,87778.9844,    0.2500,   43.2679,   -0.5498,    0.5477,1,400835,1
0,    2.4246,    0.3619,    9.5583,   -0.2984,    1.9072,    0.8850,  -10.0304,   58.6057,   97.6362,   40.6250,87777.4297,    0.3955,   43.2679,   -0.4721,    0.5805,1,400948,1
0,    2.3937,    0.3519,    9.5950,   -0.3989,    1.9028,    0.1277,   -9.9399,   58.7790,   97.5582,   40.6250,87774.9688,    0.6253,   43.2726,    0.4542,    0.6253,1,401061,1
0,    2.4515,    0.3825,    9.5650,    1.1393,    0.5221,    0.3680,   -9.7815,   58.9413,   97.5686,   40.6250,87779.8906,    0.1651,   43.2679,   -0.2778,    0.6253,1,401175,1
0,    2.3939,    0.3161,    9.5708,    1.2695,    0.9673,   -1.2494,   -9.9052,   58.9780,   97.4416,   40.6250,87777.8203,    0.3587,   43.2773,   -0.0674,    0.6253,1,401287,1
0,    2.4401,    0.3259,    9.5461,    1.4697,    0.0526,   -1.8478,   -9.7322,   58.9398,   97.2937,   40.6250,87779.4219,    0.2093,   43.2773,   -0.9834,    0.6253,1,401400,1
0,    2.4398,    0.3450,    9.5747,   -0.4862,    0.1911,    0.4178,   -9.7661,   58.9349,   97.3546,   40.6250,87775.6641,    0.5602,   43.2773,    0.6072,    0.6253,1,401514,1
0,    2.4435,    0.3390,    9.5792,   -1.1381,   -0.1931,    0.6578,   -9.8810,   58.8128,   97.4314,   40.6250,87777.8203,    0.3587,   43.2820,    0.0006,    0.6253,1,401627,1
0,    2.4537,    0.3460,    9.5579,    2.7384,    0.5976,    0.3318,   -9.9711,   58.8294,   97.4398,   40.6250,87779.0703,    0.2416,   43.2773,    0.3468,    0.6253,1,401740,1
0,    2.4296,    0.3222,    9.5727,    0.0049,   -1.2035,    0.3590,   -9.9551,   58.8007,   97.4125,   40.5000,87775.6641,    0.5602,   43.2820,    0.1620,    0.6253,1,401854,1
0,    2.4263,    0.2929,    9.5500,    0.1143,   -0.4304,    0.0602,   -9.9263,   58.7426,   97.3506,   40.5000,87778.4688,    0.2982,   43.2726,   -0.0546,    0.6253,1,401967,1
0,    2.3935,    0.3139,    9.5553,   -0.6536,    0.4634,   -0.9412,   -9.8705,   58.9185,   97.3429,   40.5000,87774.7578,    0.6451,   43.2866,    0.6357,    0.6451,1,402079,1
0,    2.4960,    0.3099,    9.5688,   -2.6034,    0.3868,    1.5646,  -10.0129,   59.0655,   97.4129,   40.5000,87775.1016,    0.6128,   43.2820,    0.2003,    0.6451,1,402194,1
0,    2.4293,    0.4359,    9.5640,   -0.4391,    0.4923,   -0.8370,  -10.1316,   59.0880,   97.3829,   40.5000,87777.5625,    0.3824,   43.2866,    0.3995,    0.6451,1,402306,1
0,    2.4818,    0.3483,    9.5626,    2.1631,    3.0447,   -1.8950,   -9.9427,   59.2888,   97.2732,   40.5000,87777.0000,    0.4352,   43.2913,   -0.2136,    0.6451,1,402419,1
0,    2.3761,    0.3128,    9.5917,    0.7316,   -0.8518,    0.9935,   -9.8471,   59.1656,   97.3323,   40.5000,87776.6563,    0.4679,   43.2866,   -0.1809,    0.6451,1,402533,1
0,    2.4074,    0.2807,    9.5818,   -1.2224,   -1.5280,   -0.6718,   -9.9022,   59.0239,   97.2907,   40.5000,87779.1172,    0.2370,   43.2960,   -0.2850,    0.6451,1,402646,1
0,    2.4248,    0.3856,    9.5576,   -0.8073,   -0.4935,    1.6808,  -10.0162,   59.0167,   97.3126,   40.5000,87778.2109,    0.3225,   43.2820,   -0.0464,    0.3225,1,402758,1
0,    2.4599,    0.3749,    9.5809,   -0.7885,   -0.9764,    1.2637,  -10.0080,   58.9172,   97.3703,   40.5000,87778.2578,    0.3174,   43.2866,   -0.2242,    0.4425,1,402873,1
0,    2.4404,    0.3603,    9.5421,   -0.1621,    1.4333,   -0.2772,   -9.9976,   59.0722,   97.2398,   40.5000,87776.3984,    0.4917,   43.2913,    0.4162,    0.5314,1,402985,1
0,    2.4415,    0.3635,    9.5726,   -0.1607,   -0.0807,   -2.3130,   -9.9074,   59.0834,   97.0924,   40.6250,87778.5547,    0.2903,   43.2913,   -0.2396,    0.5314,1,403098,1
0,    2.4430,    0.2835,    9.5815,   -0.0569,    1.6546,    0.9528,   -9.8399,   59.2212,   97.1783,   40.6250,87777.0938,    0.4266,   43.2913,    0.0283,    0.5314,1,403212,1
0,    2.4213,    0.3247,    9.5932,    1.0072,   -0.2725,   -0.5514,   -9.7986,   59.1387,   97.2598,   40.6250,87777.3516,    0.4028,   43.2960,   -0.3132,    0.5314,1,403325,1
0,    2.4312,    0.3161,    9.5656,    0.8506,    1.8822,   -0.6165,   -9.6373,   59.1951,   97.2330,   40.6250,87776.8359,    0.4504,   43.3006,    0.1881,    0.5314,1,403438,1
0,    2.4568,    0.3384,    9.5548,    0.0898,   -2.0549,    1.5374,   -9.5542,   59.1695,   97.2475,   40.6250,87776.1406,    0.5155,   43.2913,    0.1953,    0.5314,1,403554,1
0,    2.4290,    0.3419,    9.5812,   -0.2156,    1.3505,   -1.4183,   -9.6440,   59.2829,   97.2004,   40.6250,87779.8516,    0.1686,   43.2866,   -0.4409,    0.5314,1,403666,1
0,    2.4161,    0.3243,    9.5704,    0.2976,   -1.9382,    0.9593,   -9.6694,   59.2352,   97.2736,   40.6250,87778.0391,    0.3384,   43.3006,   -0.3895,    0.5840,1,403779,1
0,    2.4257,    0.3244,    9.5781,   -1.4416,    0.3665,    0.8463,   -9.6423,   59.3365,   97.3328,   40.6250,87778.6484,    0.2811,   43.2960,   -0.7060,    0.5840,1,403893,1
0,    2.3928,    0.3209,    9.5800,   -1.0341,    0.2797,   -0.5329,   -9.6376,   59.3455,   97.3640,   40.6250,87777.4844,    0.3899,   43.3053,    0.2585,    0.5840,1,404006,1
0,    2.4454,    0.3213,    9.5541,   -0.2964,   -1.5839,    0.6690,   -9.6810,   59.2361,   97.4171,   40.6250,87779.6875,    0.1844,   43.3053,   -0.1990,    0.5840,1,404119,1
0,    2.3809,    0.3090,    9.5846,   -0.3257,    0.4005,    0.3050,   -9.6900,   59.2428,   97.3916,   40.6250,87778.3906,    0.3049,   43.3006,    0.0895,    0.5840,1,404233,1
0,    2.4517,    0.2838,    9.5707,   -2.9151,    0.2263,   -0.3381,   -9.8867,   59.2857,   97.3056,   40.6250,87774.7578,    0.6451,   43.3100,    0.5264,    0.6451,1,404346,1
0,    2.4200,    0.3744,    9.5648,    0.0778,    1.1694,   -0.2677,   -9.8832,   59.3601,   97.3631,   40.6250,87776.5703,    0.4758,   43.3100,    0.7535,    0.6451,1,404458,1
0,    2.4296,    0.3486,    9.5679,   -0.3890,    2.0810,    0.1504,   -9.9362,   59.5184,   97.4666,   40.6250,87777.5703,    0.3819,   43.3053,    0.5426,    0.6451,1,404572,1
0,    2.3971,    0.3167,    9.5817,   -0.2143,    1.6213,   -1.1417,   -9.9146,   59.6225,   97.3829,   40.6250,87775.3203,    0.5925,   43.3146,    0.3439,    0.6451,1,404685,1
0,    2.4377,    0.2920,    9.5530,    0.1634,    0.8282,    0.0403,   -9.7650,   59.6966,   97.3940,   40.6250,87780.3359,    0.1238,   43.3100,   -0.5652,    0.6518,1,404798,1
0,    2.4294,    0.3151,    9.5634,    0.9631,   -0.1013,    0.1620,   -9.7607,   59.6459,   97.4347,   40.6250,87776.4063,    0.4912,   43.3146,   -0.0443,    0.6565,1,404912,1
0,    2.3930,    0.3349,    9.5643,   -0.9173,    0.1517,    1.6159,   -9.9669,   59.5581,   97.5141,   40.6250,87777.3125,    0.4062,   43.3053,   -0.4590,    0.6565,1,405025,1
0,    2.4652,    0.3706,    9.5704,    0.5653,   -0.3425,   -0.5277,  -10.0036,   59.5058,   97.4779,   40.6250,87777.5703,    0.3819,   43.3193,    0.5055,    0.6565,1,405137,1
0,    2.4168,    0.3131,    9.5893,    1.3308,    0.8976,   -2.1214,   -9.9959,   59.5034,   97.3181,   40.6250,87781.5391,    0.0112,   43.3146,   -0.7234,    0.6565,1,405252,1
0,    2.4303,    0.2825,    9.5739,   -0.0603,   -0.4705,   -0.9630,  -10.1041,   59.4491,   97.2952,   40.6250,87777.3125,    0.4062,   43.3146,   -0.2402,    0.6565,1,405364,1
0,    2.4180,    0.2940,    9.5603,    0.6434,    0.2664,    1.4240,  -10.0314,   59.4015,   97.3439,   40.6250,87779.4688,    0.2047,   43.3193,   -0.5618,    0.6565,1,405477,1
0,    2.4576,    0.3705,    9.5762,   -0.0599,    0.3459,    1.5858,   -9.9974,   59.3859,   97.4206,   40.6250,87778.2578,    0.3174,   43.3146,    0.3412,    0.6565,1,405591,1
0,    2.4512,    0.3511,    9.5804,    0.2430,   -1.3317,   -1.0346,  -10.1158,   59.2465,   97.4664,   40.6250,87778.5625,    0.2890,   43.3286,   -0.2836,    0.6565,1,405704,1
0,    2.4459,    0.3222,    9.5718,    0.2449,    0.6156,    0.7739,  -10.2093,   59.2519,   97.4424,   40.6250,87778.5625,    0.2890,   43.3193,    0.0147,    0.2890,1,405816,1
0,    2.4136,    0.3184,    9.5720,    1.0005,   -0.1194,    1.6721,  -10.1948,   59.2597,   97.5397,   40.6250,87778.6094,    0.2851,   43.3146,   -0.2150,    0.4103,1,405931,1
0,    2.4161,    0.3013,    9.5714,   -0.1649,    0.1308,    0.1686,  -10.3283,   59.2205,   97.6398,   40.6250,87777.6563,    0.3740,   43.3240,    0.0121,    0.4103,1,406043,1
0,    2.4216,    0.3329,    9.5736,    0.0809,    0.1418,    0.6870,  -10.3542,   59.2521,   97.7054,   40.6250,87777.7031,    0.3695,   43.3286,    0.1264,    0.4103,1,406156,1
0,    2.4370,    0.3508,    9.5640,    1.2295,    0.2225,   -1.2364,  -10.2671,   59.3953,   97.6407,   40.6250,87777.3516,    0.4028,   43.3286,    0.2527,    0.4103,1,406270,1
0,    2.4562,    0.3652,    9.5704,   -0.3446,   -3.0274,   -0.4549,  -10.2571,   59.2147,   97.6314,   40.6250,87778.6484,    0.2811,   43.3333,   -0.2573,    0.2811,1,406383,1
0,    2.4268,    0.3081,    9.5694,   -2.6626,   -2.1516,   -0.1736,  -10.3101,   59.1687,   97.5649,   40.6250,87774.4219,    0.6762,   43.3333,    0.4649,    0.6762,1,406496,1
0,    2.4070,    0.2938,    9.5881,   -1.3015,   -0.5157,   -1.3610,  -10.3433,   59.1768,   97.4530,   40.6250,87778.6484,    0.2811,   43.3240,   -0.3214,    0.6762,1,406610,1
0,    2.4449,    0.3039,    9.5565,   -0.9704,   -0.9253,    0.1761,  -10.4286,   59.0829,   97.5505,   40.6250,87778.6953,    0.2772,   43.3286,   -0.0635,    0.6762,1,406723,1
0,    2.4262,    0.3200,    9.5697,    0.3206,   -0.2654,    0.8812,  -10.3592,   59.1236,   97.5773,   40.6250,87781.5000,    0.0146,   43.3333,   -1.3431,    0.6762,1,406835,1
0,    2.4259,    0.3502,    9.5577,   -1.7331,   -1.7615,    1.1056,  -10.4087,   59.0380,   97.5881,   40.6250,87774.1641,    0.7005,   43.3333,    0.5720,    0.7005,1,406949,1
0,    2.4102,    0.3042,    9.5726,   -1.2055,    0.7528,    0.0702,  -10.4363,   59.1151,   97.6830,   40.6250,87780.2969,    0.1272,   43.3380,   -0.2183,    0.7005,1,407062,1
0,    2.4473,    0.2971,    9.5945,    2.0114,   -0.0997,    1.0278,  -10.2895,   59.1920,   97.6303,   40.6250,87778.7344,    0.2732,   43.3380,    0.4185,    0.7005,1,407175,1
0,    2.4258,    0.3117,    9.5702,    1.6713,    0.8879,    0.9458,  -10.3368,   59.1513,   97.7981,   40.6250,87777.5313,    0.3854,   43.3333,   -0.6339,    0.4623,1,407289,1
0,    2.4381,    0.3497,    9.5584,   -1.3167,    1.7705,    1.3625,  -10.4100,   59.3353,   97.9776,   40.6250,87776.0156,    0.5273,   43.3426,    0.3823,    0.7164,1,407402,1
0,    2.4227,    0.3462,    9.5800,    0.9898,    2.3458,   -1.2443,  -10.3493,   59.4848,   97.8700,   40.6250,87777.8281,    0.3581,   43.3520,   -0.0253,    0.7164,1,407514,1
0,    2.4106,    0.3083,    9.5802,    0.3121,    1.0527,    1.5286,  -10.3010,   59.6454,   98.0252,   40.6250,87777.2266,    0.4142,   43.3426,   -0.0686,    0.7164,1,407629,1
0,    2.4166,    0.2849,    9.5704,    1.3259,    0.3000,   -0.5469,  -10.0622,   59.6842,   97.9836,   40.6250,87773.8984,    0.7250,   43.3426,    0.6409,    0.7250,1,407741,1
0,    2.4443,    0.3005,    9.5877,   -0.1032,    0.8174,   -1.4758,  -10.0266,   59.7588,   97.9281,   40.6250,87775.7188,    0.5552,   43.3473,    0.7735,    0.7250,1,407854,1
0,    2.4402,    0.3522,    9.5868,   -2.4075,   -0.2528,    0.8414,  -10.3245,   59.8394,   98.0234,   40.6250,87777.8750,    0.3536,   43.3426,    0.3237,    0.7250,1,407968,1
0,    2.4509,    0.3318,    9.5675,   -0.9999,   -0.3440,    1.4213,  -10.2725,   59.8728,   98.1097,   40.6250,87777.9219,    0.3491,   43.3520,   -0.3811,    0.7250,1,408081,1
0,    2.4142,    0.3483,    9.5761,   -0.5121,   -0.3340,    0.0220,  -10.4261,   59.7712,   98.1475,   40.6250,87780.0781,    0.1476,   43.3473,   -0.5685,    0.7250,1,408194,1
0,    2.4233,    0.3057,    9.5648,   -0.3034,    1.0882,    1.3545,  -10.3013,   59.9013,   98.1580,   40.6250,87777.0156,    0.4339,   43.3473,    0.3169,    0.7250,1,408308,1
0,    2.4212,    0.3473,    9.5730,   -1.0972,    0.5567,   -0.4118,  -10.3878,   59.9133,   98.1549,   40.6250,87779.1250,    0.2364,   43.3520,   -0.2242,    0.2364,1,408420,1
0,    2.4329,    0.3088,    9.5458,    0.1241,   -0.4312,    0.1734,  -10.4548,   59.9178,   98.1322,   40.6250,87778.2656,    0.3169,   43.3520,    0.1043,    0.5630,1,408533,1
0,    2.4228,    0.3511,    9.5775,    0.5745,    0.0019,    0.1768,  -10.4291,   59.9153,   98.1910,   40.6250,87775.5000,    0.5754,   43.3520,    0.0220,    0.5754,1,408647,1
0,    2.4438,    0.3299,    9.5501,    0.3336,    0.0856,   -0.8692,  -10.4609,   59.9158,   98.1386,   40.6250,87780.4219,    0.1159,   43.3566,   -0.3247,    0.5754,1,408760,1
0,    2.4276,    0.3165,    9.5659,   -1.1299,   -1.8324,    0.6144,  -10.3336,   59.9414,   98.1380,   40.6250,87778.0469,    0.3377,   43.3613,   -0.1706,    0.7051,1,408873,1
0,    2.4009,    0.2728,    9.5657,    0.9636,    1.1732,   -1.7694,  -10.3369,   60.0519,   98.0968,   40.6250,87779.5625,    0.1957,   43.3660,   -0.9687,    0.7051,1,408987,1
0,    2.4172,    0.3101,    9.5738,    0.3180,    0.2524,    2.4060,  -10.3954,   60.0183,   98.1488,   40.6250,87778.0469,    0.3377,   43.3566,    0.0508,    0.7051,1,409100,1
0,    2.4161,    0.3191,    9.5702,   -0.4342,    2.6468,   -1.6575,  -10.3452,   60.0927,   98.0856,   40.6250,87779.8672,    0.1673,   43.3613,   -0.5376,    0.7051,1,409212,1
0,    2.4062,    0.3029,    9.5974,   -1.2547,    0.3574,    0.5638,  -10.5351,   60.2508,   98.2085,   40.6250,87775.9375,    0.5342,   43.3613,    0.4790,    0.7051,1,409326,1
0,    2.4228,    0.2972,    9.5807,   -1.9197,   -0.6321,    1.1243,  -10.6483,   60.1316,   98.2543,   40.6250,87776.7969,    0.4543,   43.3660,    0.1869,    0.7051,1,409439,1
0,    2.4239,    0.3087,    9.5550,    2.9845,    1.3757,   -0.0492,  -10.4729,   60.1047,   98.3215,   40.6250,87775.8438,    0.5438,   43.3613,    0.8543,    0.7051,1,409552,1
0,    2.4313,    0.3089,    9.5645,    0.2441,    1.5862,   -0.6432,  -10.3930,   60.1948,   98.3619,   40.6250,87776.5391,    0.4787,   43.3707,    0.0798,    0.4945,1,409666,1
0,    2.4394,    0.3405,    9.5679,   -1.0868,    1.5248,   -0.0156,  -10.4802,   60.2635,   98.3736,   40.6250,87778.0469,    0.3377,   43.3613,   -0.1999,    0.5228,1,409779,1
0,    2.4405,    0.3194,    9.5845,   -0.8902,    0.8003,   -0.8113,  -10.5019,   60.4366,   98.3614,   40.6250,87777.4922,    0.3893,   43.3660,   -0.3695,    0.5228,1,409891,1
0,    2.4155,    0.2968,    9.5725,    1.7374,    0.6624,   -0.9255,  -10.4006,   60.6019,   98.3237,   40.6250,87777.1875,    0.4181,   43.3660,   -0.2220,    0.5228,1,410006,1
0,    2.4424,    0.3144,    9.5771,   -1.3466,   -2.4455,    1.3292,  -10.5735,   60.4465,   98.4091,   40.6250,87777.1875,    0.4181,   43.3753,    0.1192,    0.5228,1,410118,1
0,    2.4158,    0.3273,    9.5666,   -1.2187,    0.5727,   -1.4095,  -10.6891,   60.3669,   98.3761,   40.6250,87778.7422,    0.2727,   43.3707,   -0.3546,    0.6321,1,410231,1
0,    2.4574,    0.3188,    9.5775,   -1.3664,    0.3184,    0.4222,  -10.7359,   60.3638,   98.4321,   40.6250,87777.5313,    0.3854,   43.3753,   -0.2555,    0.6321,1,410345,1
0,    2.4173,    0.2972,    9.5768,    1.4519,    2.0285,    0.3965,  -10.6541,   60.5060,   98.5091,   40.6250,87778.0938,    0.3332,   43.3707,   -0.4271,    0.6321,1,410458,1
0,    2.4401,    0.3675,    9.5785,    0.8746,   -0.1382,   -0.4580,  -10.5629,   60.5482,   98.4740,   40.6250,87776.9688,    0.4380,   43.3847,    0.0967,    0.4380,1,410570,1
0,    2.4289,    0.3083,    9.5677,    0.5917,    2.1301,   -1.3101,  -10.4857,   60.7407,   98.4684,   40.6250,87778.2266,    0.3208,   43.3707,   -0.1773,    0.4380,1,410685,1
0,    2.3857,    0.3307,    9.5898,    1.4227,    1.1201,   -0.7230,  -10.3454,   61.0254,   98.3993,   40.6250,87776.3672,    0.4945,   43.3753,    0.2931,    0.4945,1,410797,1
0,    2.4240,    0.3016,    9.5734,    1.1526,   -1.5669,    0.2765,  -10.3058,   60.9987,   98.5112,   40.6250,87775.5078,    0.5749,   43.3847,    0.3115,    0.5749,1,410910,1
0,    2.4026,    0.3181,    9.5629,    1.5259,    1.4371,    0.7943,  -10.2649,   61.1035,   98.6683,   40.6250,87777.3594,    0.4017,   43.3847,    0.0904,    0.5908,1,411024,1
0,    2.4566,    0.3480,    9.5391,    0.5641,   -1.1487,    0.5725,  -10.1605,   61.0752,   98.6859,   40.6250,87777.9219,    0.3491,   43.3800,   -0.4158,    0.5908,1,411137,1
0,    2.4202,    0.3051,    9.5756,   -2.9965,   -1.8118,    1.1012,  -10.3506,   60.9260,   98.8339,   40.6250,87773.3906,    0.7731,   43.3893,    0.1659,    0.7731,1,411250,1
0,    2.4464,    0.3130,    9.5849,    1.2488,   -0.2876,    0.2056,  -10.1949,   60.9823,   98.8417,   40.6250,87775.2422,    0.5992,   43.3893,    0.3636,    0.7731,1,411364,1
0,    2.4174,    0.3169,    9.5782,   -2.2048,    0.9494,    0.6483,  -10.2377,   61.0933,   98.8332,   40.6250,87775.2031,    0.6033,   43.3893,    0.5728,    0.6033,1,411476,1
0,    2.4074,    0.2684,    9.5925,   -1.2676,   -0.3918,    1.4889,  -10.3084,   61.0541,   99.0295,   40.6250,87775.8047,    0.5472,   43.3800,    0.1094,    0.6033,1,411589,1
0,    2.4214,    0.3193,    9.5698,    1.4077,    0.8727,    0.1448,  -10.2393,   61.0659,   99.1212,   40.6250,87778.7031,    0.2761,   43.3940,   -0.3216,    0.6400,1,411703,1
0,    2.4185,    0.3323,    9.5711,    0.0844,    0.4691,    0.3108,  -10.3022,   61.0407,   99.1544,   40.6250,87775.5469,    0.5709,   43.3893,    0.1455,    0.6400,1,411816,1
0,    2.4234,    0.3166,    9.5805,   -0.5305,    0.3857,   -0.2050,  -10.5002,   61.1627,   99.0661,   40.6250,87777.7500,    0.3650,   43.3940,   -0.4246,    0.6400,1,411929,1
0,    2.4009,    0.3376,    9.5697,    0.3714,   -0.0935,   -1.3943,  -10.4550,   61.2272,   98.8727,   40.7500,87777.0625,    0.4294,   43.3847,    0.2297,    0.6400,1,412051,1
0,    2.4031,    0.3076,    9.5764,   -0.3714,   -0.1825,   -0.7128,  -10.4479,   61.2465,   98.7633,   40.7500,87778.6172,    0.2840,   43.3847,   -0.4693,    0.6400,1,412164,1
0,    2.4230,    0.3007,    9.5845,   -0.0408,    0.8015,    0.3950,  -10.4794,   61.2864,   98.7524,   40.7500,87779.5234,    0.1997,   43.3893,   -0.5578,    0.7323,1,412276,1
0,    2.4368,    0.3449,    9.5676,    3.5466,   -0.3994,   -0.5326,  -10.3499,   61.1309,   98.7909,   40.7500,87776.7969,    0.4543,   43.4033,   -0.1254,    0.7323,1,412390,1
0,    2.4476,    0.3415,    9.5559,   -2.5590,   -0.3248,   -0.1268,  -10.4967,   61.0673,   98.8516,   40.7500,87779.5625,    0.1957,   43.3987,   -0.4363,    0.7323,1,412503,1
0,    2.4188,    0.3164,    9.5621,   -0.4874,   -0.1763,   -0.1069,  -10.4597,   60.9884,   98.8393,   40.7500,87777.2344,    0.4136,   43.4080,    0.3385,    0.7323,1,412616,1
0,    2.4259,    0.3177,    9.5674,   -0.5009,    0.9884,    1.2592,  -10.5354,   61.0964,   98.8467,   40.7500,87780.8594,    0.0746,   43.3940,   -0.7719,    0.7323,1,412730,1
0,    2.4196,    0.3087,    9.5754,   -0.5206,   -1.9052,    1.1936,  -10.5766,   61.0795,   98.8932,   40.7500,87779.6484,    0.1877,   43.4080,   -0.2419,    0.7323,1,412843,1
0,    2.4188,    0.3217,    9.5862,   -1.4668,    0.6683,    2.0474,  -10.6199,   61.1058,   99.0591,   40.7500,87777.1875,    0.4181,   43.4033,   -0.2805,    0.7323,1,412955,1
0,    2.4041,    0.2929,    9.5932,    1.9123,    0.9822,   -0.6442,  -10.5074,   61.1622,   99.0514,   40.7500,87781.8516,   -0.0182,   43.3987,   -0.4839,    0.7323,1,413070,1
0,    2.4161,    0.3296,    9.5651,   -0.2633,   -0.3794,    1.0878,  -10.5041,   61.2264,   99.1191,   40.7500,87777.1875,    0.4181,   43.4080,    0.2350,    0.7323,1,413182,1
0,    2.4288,    0.2973,    9.5564,   -0.9137,   -0.2000,   -0.6660,  -10.6762,   61.1626,   99.2236,   40.7500,87777.8828,    0.3530,   43.4127,   -0.1641,    0.7323,1,413295,1
0,    2.4034,    0.2931,    9.5886,   -0.0730,   -1.7645,    1.0559,  -10.5962,   61.0433,   99.2630,   40.6250,87778.7891,    0.2682,   43.3940,    0.4611,    0.7323,1,413409,1
0,    2.4204,    0.3110,    9.5746,   -0.8446,    0.9469,   -1.2242,  -10.7677,   61.1289,   99.2008,   40.6250,87775.0703,    0.6157,   43.4080,    0.4747,    0.7323,1,413522,1
0,    2.3903,    0.2834,    9.5800,   -0.7754,    2.2631,   -0.7074,  -10.8675,   61.3236,   99.1187,   40.6250,87779.7422,    0.1793,   43.4220,   -0.2968,    0.1793,1,413634,1
0,    2.4599,    0.3414,    9.5566,   -0.1876,    1.2777,    0.5696,  -10.6384,   61.3490,   99.1589,   40.6250,87775.4609,    0.5788,   43.4127,    0.6269,    0.5788,1,413749,1
0,    2.4211,    0.3146,    9.5785,    0.0757,   -0.0590,    0.2992,  -10.6206,   61.3358,   99.1840,   40.6250,87777.8828,    0.3530,   43.4173,   -0.4141,    0.5788,1,413861,1
0,    2.4230,    0.3143,    9.5807,   -1.7526,    0.4597,    0.1035,  -10.9016,   61.3041,   99.2626,   40.6250,87778.8359,    0.2641,   43.4220,    0.2749,    0.5788,1,413974,1
0,    2.4536,    0.3450,    9.5667,    1.2588,    0.9349,    0.2714,  -10.9440,   61.2882,   99.3477,   40.6250,87777.6250,    0.3768,   43.4127,   -0.3682,    0.5788,1,414088,1
0,    2.3944,    0.3049,    9.5799,   -0.9302,    1.3828,   -0.6400,  -10.9225,   61.4003,   99.3518,   40.6250,87775.8516,    0.5427,   43.4173,    0.3705,    0.5427,1,414201,1
0,    2.4124,    0.3057,    9.5584,    1.0412,   -1.0162,    0.4360,  -10.9128,   61.3852,   99.4720,   40.6250,87777.9688,    0.3451,   43.4220,    0.2154,    0.5427,1,414314,1
0,    2.4431,    0.3247,    9.5566,   -0.2928,    2.3228,   -1.5392,  -10.7648,   61.5619,   99.3860,   40.6250,87780.0859,    0.1471,   43.4220,   -0.2384,    0.5427,1,414428,1
0,    2.4110,    0.3430,    9.5753,    0.5129,    0.2797,   -0.3932,  -10.8220,   61.5157,   99.4668,   40.6250,87779.8672,    0.1673,   43.4127,   -0.8300,    0.5427,1,414541,1
0,    2.4117,    0.2968,    9.5775,    1.3291,   -0.3143,   -0.2340,  -10.8018,   61.4199,   99.4215,   40.7500,87778.9219,    0.2557,   43.4220,   -0.4632,    0.5427,1,414653,1
0,    2.4249,    0.3223,    9.5839,    0.7611,    0.8674,   -0.7793,  -10.7330,   61.4517,   99.4066,   40.7500,87778.3125,    0.3122,   43.4267,   -0.0712,    0.5427,1,414767,1
0,    2.4582,    0.3390,    9.5567,    0.1023,    0.4983,    0.0147,  -10.7440,   61.5887,   99.3054,   40.7500,87776.7188,    0.4612,   43.4173,    0.2231,    0.6196,1,414880,1
0,    2.4366,    0.3235,    9.5664,   -0.3827,   -1.3546,   -0.5839,  -10.7683,   61.5123,   99.1039,   40.7500,87779.5234,    0.1997,   43.4220,   -0.3918,    0.6196,1,414993,1
0,    2.4325,    0.3078,    9.5756,   -1.0175,    0.1025,   -0.0235,  -10.8405,   61.6667,   99.0785,   40.7500,87777.4063,    0.3978,   43.4313,   -0.1023,    0.6196,1,415107,1
0,    2.4275,    0.3353,    9.5732,   -0.0753,   -1.7175,    0.7046,  -10.7620,   61.5592,   99.1012,   40.7500,87778.0156,    0.3406,   43.4267,   -0.2824,    0.6196,1,415220,1
0,    2.4311,    0.3111,    9.5713,    0.1891,    1.9141,   -0.8407,  -10.6892,   61.7955,   99.0370,   40.7500,87777.7969,    0.3609,   43.4313,    0.2897,    0.6196,1,415332,1
0,    2.4441,    0.3462,    9.5696,   -2.1446,    0.5137,    1.6498,  -10.6307,   61.9046,   99.0006,   40.7500,87776.5469,    0.4781,   43.4313,    0.0676,    0.6638,1,415447,1
0,    2.4279,    0.3315,    9.5574,   -0.3172,    0.1066,    0.4491,  -10.6491,   61.8881,   98.9011,   40.7500,87780.5625,    0.1023,   43.4313,   -0.6145,    0.6638,1,415559,1
0,    2.4509,    0.3092,    9.5536,   -1.2621,   -0.8605,    0.6031,  -10.7239,   61.9496,   98.9006,   40.7500,87779.6563,    0.1872,   43.4313,   -0.5797,    0.6638,1,415672,1
0,    2.4129,    0.3342,    9.5657,   -2.1139,    1.1744,   -0.4718,  -10.8649,   62.0767,   98.7684,   40.7500,87776.5859,    0.4742,   43.4267,   -0.1819,    0.6638,1,415786,1
0,    2.4562,    0.3254,    9.5793,   -0.0679,    1.6953,   -0.3850,  -10.9389,   62.0823,   98.7524,   40.7500,87776.2891,    0.5019,   43.4313,    0.5815,    0.6638,1,415899,1
0,    2.4122,    0.3584,    9.5686,    0.5957,   -0.2843,    1.1808,  -10.9624,   62.0546,   98.7032,   40.7500,87777.5781,    0.3813,   43.4360,    0.3701,    0.6638,1,416011,1
0,    2.4548,    0.2917,    9.5798,    1.0138,   -0.8547,    1.7836,  -10.9544,   62.0872,   98.7835,   40.7500,87778.4453,    0.3004,   43.4360,   -0.3740,    0.6638,1,416126,1
0,    2.4215,    0.3297,    9.5575,   -1.1536,   -0.1426,   -3.1579,  -10.9381,   62.0160,   98.6491,   40.7500,87773.5625,    0.7572,   43.4407,    0.5071,    0.7572,1,416238,1
0,    2.4198,    0.2909,    9.5976,   -0.4050,    2.0776,   -0.9123,  -10.9701,   62.0267,   98.6220,   40.7500,87778.5313,    0.2920,   43.4454,   -0.0870,    0.7572,1,416351,1
0,    2.4111,    0.3424,    9.5429,    0.9708,   -0.2951,   -0.7177,  -10.8186,   62.0305,   98.5790,   40.7500,87777.5781,    0.3813,   43.4454,    0.3203,    0.7572,1,416465,1
0,    2.4100,    0.3074,    9.5687,   -1.0442,   -1.1856,   -0.4253,  -10.9550,   62.0714,   98.5982,   40.7500,87779.6953,    0.1838,   43.4500,   -1.0129,    0.7572,1,416578,1
0,    2.4217,    0.2978,    9.5800,   -0.7397,   -0.0922,   -1.3867,  -10.7933,   62.0351,   98.5179,   40.7500,87776.6719,    0.4663,   43.4454,    0.2242,    0.4663,1,416690,1
0,    2.4221,    0.3211,    9.5693,   -1.0295,    0.7365,   -1.1778,  -10.7872,   61.9996,   98.3994,   40.7500,87779.4844,    0.2031,   43.4500,   -0.5093,    0.5670,1,416805,1
0,    2.4476,    0.3044,    9.5557,    2.4196,    0.9365,   -0.4738,  -10.5148,   62.2199,   98.3138,   40.7500,87777.2813,    0.4090,   43.4500,    0.3438,    0.5670,1,416917,1
0,    2.3978,    0.3043,    9.5588,    0.5388,   -0.0563,   -0.0920,  -10.4595,   62.2086,   98.2803,   40.7500,87780.0859,    0.1471,   43.4500,   -0.6994,    0.5670,1,417030,1
0,    2.4203,    0.3178,    9.5440,    1.4698,    0.9603,   -0.3140,  -10.4548,   62.2991,   98.2888,   40.7500,87777.3672,    0.4011,   43.4360,    0.2749,    0.5670,1,417146,1
0,    2.4063,    0.3345,    9.5560,   -0.0455,    0.6726,    0.8836,  -10.6710,   62.3205,   98.3804,   40.7500,87777.9297,    0.3485,   43.4500,   -0.1424,    0.5670,1,417259,1
0,    2.4148,    0.2977,    9.5806,    0.0063,    0.5916,   -0.0272,  -10.5672,   62.3093,   98.4313,   40.7500,87777.9688,    0.3451,   43.4594,    0.3203,    0.5670,1,417372,1
0,    2.4424,    0.3059,    9.5731,   -2.7275,   -0.0525,    0.0222,  -10.6333,   62.3473,   98.4538,   40.7500,87780.4297,    0.1147,   43.4313,   -0.4384,    0.5670,1,417496,1
0,    2.4134,    0.3162,    9.5779,   -0.0997,   -0.1381,   -0.2140,  -10.7845,   62.2476,   98.4224,   40.7500,87778.8359,    0.2641,   43.4454,   -0.1728,    0.5670,1,417608,1
0,    2.4645,    0.3465,    9.5669,    0.5002,   -1.3183,    0.3304,  -10.7165,   62.2200,   98.4692,   40.7500,87774.9063,    0.6310,   43.4547,    0.7396,    0.6310,1,417721,1
0,    2.4116,    0.3015,    9.5582,   -0.6631,    1.0526,   -1.6587,  -10.6842,   62.3412,   98.5129,   40.7500,87778.9219,    0.2557,   43.4594,    0.6101,    0.6310,1,417835,1
0,    2.4030,    0.3203,    9.5561,   -1.2314,   -1.2783,    1.3560,  -10.7377,   62.2467,   98.4672,   40.7500,87776.2031,    0.5099,   43.4594,    0.7437,    0.6310,1,417948,1
0,    2.4484,    0.2987,    9.5887,   -0.0323,   -0.1517,   -0.6975,  -10.7712,   62.2796,   98.4472,   40.7500,87779.2266,    0.2274,   43.4594,   -0.5536,    0.6310,1,418061,1
0,    2.4406,    0.3277,    9.5775,   -0.5391,   -0.3675,   -0.9951,  -10.6851,   62.3428,   98.4064,   40.7500,87777.1484,    0.4215,   43.4500,    0.2437,    0.6310,1,418177,1
0,    2.4311,    0.3192,    9.5733,   -2.1067,   -0.7260,    0.8267,  -10.9755,   62.2293,   98.4980,   40.7500,87779.2266,    0.2274,   43.4594,   -0.4821,    0.2274,1,418289,1
0,    2.4213,    0.3098,    9.5712,   -0.2485,   -0.1071,   -0.3488,  -11.0172,   62.0249,   98.4361,   40.7500,87777.4531,    0.3932,   43.4640,    0.2576,    0.4090,1,418402,1
0,    2.4240,    0.3000,    9.5595,   -2.1111,    1.5860,    0.0580,  -11.0894,   62.1023,   98.3808,   40.6250,87774.7344,    0.6473,   43.4547,    0.4279,    0.6473,1,418518,1
0,    2.4122,    0.2964,    9.5713,   -1.0713,    0.5177,    0.2660,  -11.2525,   62.2607,   98.2883,   40.6250,87779.2656,    0.2234,   43.4640,    0.0717,    0.6473,1,418631,1
0,    2.4446,    0.3459,    9.5664,   -1.7323,   -0.7368,   -0.6583,  -11.5117,   62.2187,   98.2798,   40.6250,87779.6563,    0.1872,   43.4687,   -0.1204,    0.6473,1,418744,1
0,    2.4367,    0.3463,    9.5678,   -1.7755,   -0.1292,    0.6079,  -11.8189,   62.2551,   98.3812,   40.6250,87775.9375,    0.5342,   43.4127,   -0.0907,    0.6473,1,418889,1
0,    2.4141,    0.2728,    9.5836,    2.5086,   -1.0521,    0.3057,  -11.7371,   62.3176,   98.3793,   40.6250,87779.6094,    0.1918,   43.4500,    0.0034,    0.6473,1,419001,1
0,    2.4359,    0.3187,    9.5713,   -0.8322,   -0.1336,   -1.6565,  -11.6713,   62.3472,   98.3641,   40.6250,87777.4063,    0.3978,   43.4687,    0.3925,    0.6473,1,419114,1
0,    2.4356,    0.2901,    9.5684,    0.2402,   -2.1642,   -1.0817,  -11.7598,   62.2653,   98.2729,   40.6250,87775.6406,    0.5625,   43.4594,    0.3355,    0.6473,1,419228,1
0,    2.4653,    0.3215,    9.5826,   -0.9099,    1.7791,   -1.1772,  -11.7557,   62.3843,   98.1487,   40.6250,87779.3516,    0.2156,   43.4734,    0.3959,    0.6473,1,419341,1
0,    2.4142,    0.2771,    9.5682,    0.3578,   -0.0356,    0.3818,  -11.6998,   62.3084,   98.2312,   40.6250,87779.7422,    0.1793,   43.4780,   -0.1763,    0.6473,1,419454,1
0,    2.4483,    0.3259,    9.5651,   -0.6072,   -0.8619,   -0.1067,  -11.6129,   62.2255,   98.2741,   40.6250,87778.1406,    0.3287,   43.4780,   -0.4122,    0.6473,1,419568,1
0,    2.4336,    0.3117,    9.5543,   -2.0915,   -1.7223,    0.2632,  -11.6008,   62.0910,   98.2269,   40.6250,87778.1406,    0.3287,   43.4827,    0.0636,    0.6473,1,419680,1
0,    2.4116,    0.3225,    9.5627,   -1.5216,   -1.1754,    1.5583,  -11.7374,   62.0363,   98.2822,   40.7500,87778.7891,    0.2682,   43.4780,    0.1057,    0.6473,1,419793,1
0,    2.4279,    0.3140,    9.5637,   -3.6827,   -1.2566,   -0.8993,  -11.9588,   61.9814,   98.2591,   40.7500,87778.2266,    0.3208,   43.4687,    0.0150,    0.6473,1,419911,1
0,    2.3985,    0.3227,    9.5969,    1.3152,    0.1646,   -0.6089,  -11.8458,   62.0208,   98.1980,   40.7500,87779.6563,    0.1872,   43.4827,   -0.1614,    0.6473,1,420024,1
0,    2.4242,    0.3221,    9.5594,    1.3103,   -0.3130,   -1.0346,  -11.8938,   61.9653,   98.1807,   40.7500,87777.8828,    0.3530,   43.4734,    0.2845,    0.6473,1,420137,1
0,    2.4157,    0.3149,    9.5703,    0.7694,    0.5732,   -1.0169,  -11.9927,   62.0291,   98.2372,   40.7500,87779.4844,    0.2031,   43.4780,   -0.3451,    0.7922,1,420251,1
0,    2.4221,    0.3089,    9.5786,   -2.6173,   -1.4186,    0.6630,  -12.2194,   61.8452,   98.1757,   40.7500,87779.7891,    0.1742,   43.4920,   -0.3673,    0.7922,1,420364,1
0,    2.4377,    0.2837,    9.5588,   -1.5525,   -0.6731,    0.1292,  -12.5113,   61.7213,   98.1854,   40.7500,87779.2266,    0.2274,   43.4874,   -0.7001,    0.7922,1,420476,1
0,    2.4243,    0.2819,    9.5668,   -0.8374,   -1.8363,    1.3434,  -12.5530,   61.6467,   98.1093,   40.7500,87779.4844,    0.2031,   43.4874,   -0.2640,    0.7922,1,420591,1
0,    2.4018,    0.2844,    9.5849,    1.1813,    0.1014,   -1.1273,  -12.5329,   61.6896,   98.0513,   40.7500,87779.2266,    0.2274,   43.4874,    0.0326,    0.7922,1,420703,1
0,    2.3921,    0.2890,    9.5916,   -1.4742,   -1.8115,    0.3213,  -12.5026,   61.5406,   98.0918,   40.7500,87779.8281,    0.1708,   43.4967,   -0.2281,    0.7922,1,420816,1
0,    2.4205,    0.3010,    9.5940,   -1.2432,   -0.2510,    1.3831,  -12.5899,   61.5987,   98.2563,   40.7500,87779.8750,    0.1662,   43.4920,   -0.1275,    0.7922,1,420930,1
0,    2.4328,    0.3401,    9.5379,    1.6741,   -0.3782,    0.1291,  -12.6852,   61.6005,   98.2659,   40.6250,87777.0625,    0.4294,   43.5060,    0.3331,    0.7922,1,421043,1
0,    2.4609,    0.3276,    9.5686,    2.9142,    1.4527,   -0.2788,  -12.5271,   61.5323,   98.1974,   40.6250,87778.0156,    0.3406,   43.4920,    0.5281,    0.7922,1,421155,1
0,    2.4223,    0.2967,    9.5839,    0.1165,   -0.1805,   -1.0447,  -12.4729,   61.4738,   98.1399,   40.6250,87781.0781,    0.0542,   43.4920,   -0.0444,    0.7922,1,421270,1
0,    2.4142,    0.3033,    9.5861,    1.6205,    0.0545,   -0.7105,  -12.3214,   61.5394,   98.0242,   40.6250,87780.2188,    0.1346,   43.4967,   -0.5890,    0.7922,1,421382,1
0,    2.4719,    0.3561,    9.5517,    0.5479,   -0.5107,   -1.0063,  -12.2283,   61.5281,   98.0423,   40.6250,87778.7031,    0.2761,   43.4967,   -0.4795,    0.7922,1,421495,1
0,    2.3666,    0.2806,    9.5830,    1.0450,   -1.6101,   -0.8920,  -12.1571,   61.3396,   97.9394,   40.6250,87777.4531,    0.3932,   43.5014,    0.2519,    0.7922,1,421611,1
0,    2.4375,    0.2894,    9.5764,    2.1572,   -0.5762,    1.6078,  -11.9723,   61.4248,   97.9501,   40.6250,87779.5703,    0.1952,   43.5014,   -0.1011,    0.7922,1,421724,1
0,    2.4100,    0.3302,    9.5429,   -0.0228,    1.7888,    0.1094,  -11.7784,   61.5979,   97.8829,   40.6250,87778.4063,    0.3038,   43.5107,    0.0037,    0.3038,1,421836,1
0,    2.4379,    0.3199,    9.5717,   -0.5732,    1.3560,   -0.1375,  -11.8413,   61.5989,   97.8255,   40.6250,87777.8438,    0.3564,   43.4967,   -0.0041,    0.3564,1,421951,1
0,    2.4430,    0.3142,    9.5732,    1.6124,    1.0684,   -0.5867,  -11.7033,   61.7136,   97.7878,   40.6250,87777.4531,    0.3932,   43.5014,    0.5435,    0.3932,1,422063,1
0,    2.4260,    0.2786,    9.5705,   -1.6530,   -0.4139,    0.9517,  -11.7654,   61.7932,   97.7768,   40.6250,87775.0781,    0.6151,   43.5060,    0.8554,    0.6151,1,422176,1
0,    2.4193,    0.3128,    9.5599,    0.3882,    0.2340,    0.4885,  -11.7185,   61.8029,   97.9114,   40.6250,87776.9375,    0.4414,   43.4967,    0.4894,    0.6151,1,422292,1
0,    2.4454,    0.3068,    9.5589,   -1.4528,   -0.4564,    1.1809,  -11.7443,   61.7504,   97.8939,   40.7500,87776.3281,    0.4979,   43.5060,    0.5802,    0.6151,1,422405,1
0,    2.4447,    0.3635,    9.5419,    0.3511,    0.0542,   -1.8516,  -11.5905,   61.7449,   97.7748,   40.7500,87777.2344,    0.4136,   43.5107,    0.0588,    0.6151,1,422518,1
0,    2.4300,    0.3172,    9.5657,   -1.6620,   -1.2090,    0.2420,  -11.6694,   61.6178,   97.7844,   40.7500,87778.1875,    0.3247,   43.5060,    0.2214,    0.6151,1,422632,1
0,    2.4125,    0.2853,    9.5798,   -0.3051,    0.9597,    0.3570,  -11.6715,   61.6413,   97.7393,   40.7500,87780.9531,    0.0661,   43.5060,   -0.5105,    0.6151,1,422745,1
0,    2.3773,    0.2729,    9.6192,    0.8424,    0.5981,   -0.8381,  -11.6815,   61.7057,   97.7163,   40.7500,87779.7422,    0.1793,   43.5107,   -0.4341,    0.6151,1,422857,1
0,    2.4025,    0.2980,    9.5934,   -1.8560,   -0.2733,    0.1985,  -11.6940,   61.6453,   97.6249,   40.7500,87777.9297,    0.3485,   43.5014,   -0.1771,    0.6151,1,422973,1
0,    2.4762,    0.3327,    9.5515,    0.1946,   -1.1170,   -0.2415,  -11.7908,   61.4419,   97.6848,   40.7500,87778.5313,    0.2920,   43.5060,    0.0854,    0.6151,1,423086,1
0,    1.5870,    1.2857,    9.5226,   -6.4403,    8.0190,   41.1639,  -12.4231,   62.3111,  101.0000,   40.7500,87779.3984,    0.2109,   43.5107,   -0.1206,    0.6151,1,423199,1
0,    3.6848,    0.9229,    9.5532,   10.8875,    8.6145,  -57.8305,  -11.1975,   63.8490,   97.2339,   40.7500,87778.5781,    0.2879,   43.4547,   -0.2543,    0.6151,1,423344,1
0,    4.6159,   -1.7168,    9.9829,   11.1658,   -8.1523, -107.8636,   -9.8234,   63.0926,   88.1212,   40.7500,87778.9219,    0.2557,   43.4967,   -0.0870,    0.2557,1,423456,1
0,    1.9375,   -1.4608,   10.0929,    0.3077,   -3.1038, -130.6962,   -9.5500,   62.3462,   76.7086,   40.7500,87778.4922,    0.2959,   43.5200,    0.1723,    0.2959,1,423569,1
0,    1.7511,   -3.7467,    9.2002,  -32.7510,   -0.2895, -214.7381,  -12.2255,   62.3066,   54.6082,   40.7500,87776.6719,    0.4663,   43.5107,    0.3707,    0.4663,1,423683,1
0,    2.4391,   -0.7673,    9.6477,  -42.2041,   14.3922, -217.6758,  -17.3010,   63.9320,   27.4427,   40.7500,87775.5078,    0.5749,   43.5154,    0.5347,    0.6275,1,423796,1
0,    2.2511,    0.6551,   10.0110,  -17.7996,    2.8443, -132.8869,  -19.9414,   64.6483,   11.6271,   40.7500,87776.1172,    0.5178,   43.5294,    0.4335,    0.6275,1,423909,1
0,    1.4471,    0.2049,    9.9172,    3.1443,   -1.8500, -105.6734,  -20.0778,   64.4739,   -1.1652,   40.7500,87778.5781,    0.2879,   43.5200,   -0.2471,    0.6275,1,424025,1
0,    0.9438,   -1.8474,   10.4290,   10.0654,  -11.8069,  -60.4891,  -18.8995,   63.3733,  -10.2939,   40.7500,87775.1641,    0.6072,   43.5247,    0.3017,    0.6275,1,424138,1
0,    0.1152,   -2.1216,    9.5156,   12.1866,   -6.0628,   18.4709,  -17.3771,   62.2376,   -9.1080,   40.7500,87780.5156,    0.1068,   43.5294,   -0.5678,    0.6275,1,424250,1
0,    0.9045,   -1.3991,    9.7507,   13.6373,   -1.4740,   97.1083,  -16.1823,   62.3205,   -3.2776,   40.7500,87776.5000,    0.4820,   43.5247,    0.4126,    0.6275,1,424365,1
0,    2.9206,   -2.4768,    9.9805,   12.0808,   -8.9417,  175.3092,  -14.2523,   61.4185,   15.7713,   40.7500,87779.2266,    0.2274,   43.5341,   -0.7502,    0.6275,1,424477,1
0,    3.0116,   -1.7242,    9.4812,   16.5514,  -27.6449,  216.5721,  -13.0603,   58.9873,   40.9409,   40.7500,87779.2266,    0.2274,   43.5294,   -0.0345,    0.6275,1,424590,1
0,    2.5353,   -1.4589,    8.9782,   14.1204,  -35.3199,  249.0853,  -11.5138,   55.4629,   70.8196,   40.7500,87778.4063,    0.3038,   43.5341,   -0.5878,    0.3038,1,424704,1
0,    0.1753,   -1.1183,    8.8981,    0.7852,  -10.1933,   70.7038,  -10.7119,   53.5110,   85.3212,   40.7500,87779.3125,    0.2189,   43.5294,   -0.3451,    0.4056,1,424817,1
0,    1.3441,   -0.5143,    9.2562,  -23.4234,   24.7732,  -71.1500,  -12.9098,   55.5425,   79.5607,   40.7500,87777.1484,    0.4215,   43.5294,    0.1524,    0.4215,1,424930,1
0,    3.5419,    0.3012,    9.3351,  -12.6715,    7.4722, -101.1839,  -14.7403,   57.1011,   67.6202,   40.7500,87776.2422,    0.5058,   43.5341,    0.3958,    0.5058,1,425044,1
0,    3.3503,   -0.0974,    9.0481,    1.6917,   -0.9675,  -27.3706,  -14.6105,   57.2458,   64.6017,   40.7500,87777.5781,    0.3813,   43.5434,    0.3309,    0.5749,1,425156,1
0,    2.7834,   -0.0310,    9.1230,    0.3692,  -11.9372,  -11.9616,  -14.7438,   56.3546,   61.9221,   40.7500,87777.1953,    0.4170,   43.5387,    0.0553,    0.5749,1,425269,1
0,    2.4553,   -0.3934,    9.1791,    5.2694,  -12.3387,    5.6293,  -14.0914,   55.0224,   62.3385,   40.7500,87775.7266,    0.5545,   43.5294,    0.0990,    0.5749,1,425385,1
0,    1.2836,   -0.6674,   10.0650,    5.4759,  -10.3944,   11.9736,  -13.7169,   53.7271,   63.2657,   40.7500,87779.0078,    0.2472,   43.5387,   -0.1196,    0.5749,1,425498,1
0,    0.6630,   -1.6539,    9.7034,    0.7402,    3.8465,   19.1943,  -13.4191,   53.9481,   64.1883,   40.7500,87781.8125,   -0.0143,   43.5434,   -0.7502,    0.5749,1,425611,1
0,    2.3191,   -1.2979,    9.6554,  -11.1811,    4.3026,  -11.9623,  -14.1893,   54.5715,   63.0029,   40.7500,87778.1406,    0.3287,   43.5341,   -0.5433,    0.5749,1,425725,1
0,    1.6559,   -0.7054,    9.6780,   -4.9732,   -4.3843,   53.1002,  -14.7421,   54.2928,   67.1198,   40.7500,87778.5313,    0.2920,   43.5434,   -0.1091,    0.5749,1,425838,1
0,    1.6278,   -0.3841,    9.6985,   -3.5732,   -2.2262,   48.5408,  -14.9934,   54.0215,   73.8745,   40.7500,87776.0703,    0.5223,   43.5434,    0.8378,    0.5749,1,425950,1
0,    1.1754,   -0.0937,    9.7232,   -2.0308,    0.1512,    5.3005,  -15.2185,   53.9337,   75.1947,   40.7500,87775.7266,    0.5545,   43.5481,    0.5190,    0.5749,1,426065,1
0,    1.1688,   -0.0108,    9.7442,    4.7852,    3.4343,    9.7278,  -14.9449,   54.1841,   75.8880,   40.8750,87777.2813,    0.4090,   43.5387,    0.4461,    0.5749,1,426177,1
0,    1.3814,   -0.1621,    9.6894,    5.1878,    3.8151,   30.4039,  -14.4311,   54.5647,   78.7864,   40.8750,87776.3750,    0.4940,   43.5434,    0.2988,    0.5749,1,426290,1
0,    1.6066,   -0.3748,    9.6944,    3.2924,    5.5926,   44.6003,  -14.1155,   55.2655,   83.4638,   40.8750,87776.7188,    0.4612,   43.5434,    0.1829,    0.5749,1,426404,1
0,    1.8358,   -0.2801,    9.6898,   -0.3483,    4.8267,   81.9101,  -14.0135,   55.9146,   91.2269,   40.8750,87777.2813,    0.4090,   43.5481,    0.3554,    0.5749,1,426517,1
0,    1.7294,   -0.0380,    9.6279,   -0.3970,    2.1981,  128.0647,  -14.0399,   56.2771,  104.3727,   40.8750,87779.2656,    0.2234,   43.5527,   -0.3769,    0.6196,1,426630,1
0,    1.0572,    0.4784,    9.6379,   -2.6473,    4.9124,  159.6685,  -14.3203,   56.7006,  123.5056,   40.8750,87777.5781,    0.3813,   43.5341,   -0.2764,    0.6196,1,426752,1
0,    0.4302,    1.2625,    9.5842,   -7.5539,   10.5366,  125.6805,  -14.9133,   57.5665,  139.4389,   40.8750,87780.0469,    0.1504,   43.5481,   -0.5726,    0.6196,1,426864,1
0,    0.8577,    2.1603,    9.4119,   -8.5808,   18.0552,  105.9138,  -16.0529,   59.3043,  151.2926,   40.8750,87779.7813,    0.1753,   43.5574,   -0.0563,    0.6196,1,426977,1
0,    1.0564,    2.9310,    9.3480,    1.2443,   20.3473,  193.7242,  -16.2685,   61.5381,  171.2437,   40.8750,87781.0391,    0.0582,   43.5527,   -0.5720,    0.6196,1,427093,1
0,   -4.0128,    2.8117,   10.3038,   -1.4748,   -1.0377,  106.1596,  -16.2701,   62.8567,  189.0592,   40.8750,87777.3672,    0.4011,   43.5481,    0.3511,    0.6196,1,427206,1
0,    4.2178,    4.0717,    9.2808,   -2.5176,    5.4733, -121.1229,  -16.3251,   63.0632,  183.0156,   40.8750,87776.1953,    0.5104,   43.5667,    0.4039,    0.6960,1,427319,1
0,    1.0946,    1.9707,    9.0737,   15.7365,   -3.8196,  -44.4956,  -14.8845,   62.7683,  175.0798,   40.7500,87777.1484,    0.4215,   43.5667,    0.5966,    0.6960,1,427433,1
0,    0.6212,    1.7071,    6.7252,   14.6665,   -5.6631,  -28.3760,  -13.3049,   62.0123,  170.2346,   40.7500,87778.6641,    0.2800,   43.5574,   -0.3847,    0.2800,1,427545,1
0,   -0.4340,    0.9878,    6.6312,   25.8805,   -4.3411,   81.5381,  -10.8190,   61.3851,  177.9049,   40.7500,87779.9141,    0.1628,   43.5621,   -0.8459,    0.5552,1,427658,1
0,    1.2096,   -0.0726,    9.9700,    6.4181,   14.0977,  -21.4466,   -9.9066,   62.8520,  177.4643,   40.7500,87779.3047,    0.2201,   43.5621,   -0.6460,    0.5552,1,427772,1
0,    2.9788,    1.6234,    9.7401,    2.1865,   -3.6626,   33.5334,   -9.8119,   62.8771,  178.7170,   40.7500,87778.9609,    0.2523,   43.5574,   -0.2490,    0.5552,1,427885,1
0,    0.0876,    1.0905,    9.6718,   -5.6562,   -4.2576,    6.3907,  -10.3259,   62.2605,  178.4587,   40.7500,87778.0547,    0.3371,   43.5714,    0.4059,    0.5552,1,427998,1
0,    1.1703,    0.9318,    9.6594,    1.2637,   -0.0191,   -0.2760,  -10.1997,   62.2349,  178.3753,   40.7500,87780.5156,    0.1068,   43.5154,    0.0049,    0.5552,1,428143,1
0,    1.1604,    1.2540,    9.6504,   -0.7104,    1.4135,   -2.0444,  -10.3174,   62.2816,  178.2487,   40.7500,87779.0469,    0.2438,   43.5434,    0.1993,    0.5552,1,428255,1
0,    1.0803,    1.1354,    9.6483,   -1.0464,   -0.2920,   -0.8401,  -10.3292,   62.2643,  178.2164,   40.7500,87778.2734,    0.3163,   43.5621,    0.1774,    0.5552,1,428368,1
0,    1.2464,    1.3306,    9.6390,    0.6763,   -1.5542,    0.0239,  -10.3222,   62.2119,  178.1538,   40.7500,87777.7500,    0.3650,   43.5014,    0.5333,    0.5552,1,428513,1
0,    1.2488,    1.1265,    9.6391,    0.4506,    2.1099,   -0.1005,  -10.2335,   62.2845,  178.0750,   40.7500,87781.4688,    0.0174,   43.5481,   -0.4179,    0.5552,1,428626,1
0,    1.2525,    1.3353,    9.6530,    0.0296,   -0.7477,   -0.6535,  -10.3107,   62.1009,  178.0383,   40.8750,87780.1328,    0.1424,   43.5574,   -0.4749,    0.1424,1,428738,1
0,    1.2575,    1.1771,    9.6528,    1.0606,   -1.1803,    1.1671,  -10.2082,   62.0090,  178.1554,   40.8750,87779.3047,    0.2201,   43.5341,   -0.3913,    0.2358,1,428866,1
0,    1.0279,    1.2324,    9.6315,   -0.3987,   -0.0188,    0.2209,  -10.2989,   61.8186,  178.2525,   40.8750,87779.2188,    0.2280,   43.5527,    0.3209,    0.2358,1,428979,1
0,    1.2251,    1.2648,    9.6490,    1.4713,   -0.2636,   -0.4977,  -10.3220,   61.8211,  178.2608,   40.8750,87780.5156,    0.1068,   43.5667,   -0.1835,    0.3530,1,429092,1
0,    1.2454,    1.1852,    9.6464,    1.6451,    1.0998,   -2.0393,  -10.1272,   61.8095,  178.2843,   40.8750,87777.7969,    0.3609,   43.5714,   -0.0258,    0.6072,1,429206,1
0,    1.1798,    1.1622,    9.6431,    1.1097,    1.4528,   -0.1455,  -10.1725,   61.8204,  178.2689,   40.8750,87775.9844,    0.5303,   43.5714,    0.2588,    0.6072,1,429319,1
0,    1.1420,    1.2221,    9.6422,    0.0729,    1.3355,   -0.5770,  -10.2119,   61.7892,  178.3878,   40.8750,87777.2344,    0.4136,   43.5667,    0.3157,    0.6072,1,429431,1
0,    1.1716,    1.2193,    9.6626,    1.7361,    0.8118,    0.2316,  -10.1712,   61.8471,  178.4773,   40.8750,87777.0156,    0.4339,   43.5667,    0.0174,    0.6072,1,429548,1
0,    1.2209,    1.2032,    9.6436,   -2.0888,   -1.4479,    0.4044,  -10.2283,   61.7690,  178.5598,   40.8750,87776.0703,    0.5223,   43.5761,   -0.1903,    0.6072,1,429660,1
0,    1.1469,    1.2067,    9.6350,   -0.1190,    0.2982,    0.9787,  -10.3299,   61.7593,  178.6070,   40.8750,87775.4609,    0.5788,   43.5807,    0.1356,    0.6241,1,429773,1
0,    1.1842,    1.1996,    9.6414,    0.5549,   -1.1186,   -1.3898,  -10.1072,   61.6683,  178.5482,   40.8750,87775.8047,    0.5472,   43.5621,    0.0937,    0.6479,1,429897,1
0,    1.1888,    1.1559,    9.6470,    0.4140,   -0.4541,    1.0450,   -9.9256,   61.7043,  178.5783,   40.8750,87778.3984,    0.3044,   43.5761,   -0.3235,    0.6479,1,430010,1
0,    1.1507,    1.1865,    9.6602,    1.5112,    1.7498,   -1.2475,   -9.8263,   61.8029,  178.5236,   40.8750,87775.4609,    0.5788,   43.5854,    0.0423,    0.6479,1,430122,1
0,    1.2025,    1.2039,    9.6285,   -0.6543,   -0.6024,    0.2554,   -9.9559,   61.7010,  178.6301,   40.8750,87774.8594,    0.6355,   43.5667,    0.2812,    0.6479,1,430240,1
0,    1.1459,    1.1960,    9.6675,    1.2552,   -0.9921,   -0.2935,   -9.7504,   61.6868,  178.5909,   40.8750,87776.0703,    0.5223,   43.5807,    0.5575,    0.6479,1,430353,1
0,    1.1388,    1.2087,    9.6453,   -2.6527,   -0.6835,    0.2380,   -9.8361,   61.6896,  178.5973,   40.8750,87776.7578,    0.4577,   43.5901,   -0.1208,    0.7368,1,430466,1
0,    1.2082,    1.2084,    9.6354,   -1.7787,   -0.2300,    0.1396,   -9.9525,   61.7225,  178.5911,   40.8750,87777.4453,    0.3938,   43.5807,   -0.4261,    0.7368,1,430582,1
0,    1.1746,    1.1760,    9.6613,   -1.3061,   -0.5880,    1.4814,   -9.9474,   61.6418,  178.7348,   40.8750,87780.4297,    0.1147,   43.5947,   -0.8362,    0.7368,1,430695,1
0,    1.1898,    1.2459,    9.6539,   -1.4222,   -0.1692,   -0.6877,   -9.9834,   61.7255,  178.7296,   40.8750,87777.7109,    0.3689,   43.5807,   -0.2759,    0.7368,1,430807,1
0,    1.1369,    1.1815,    9.6562,   -2.3792,    0.5368,    0.7004,  -10.1905,   61.8270,  178.8214,   40.8750,87777.7109,    0.3689,   43.5854,   -0.1662,    0.7368,1,430922,1
0,    1.1840,    1.1738,    9.6587,    0.7093,    0.3912,    0.2053,  -10.1193,   61.8976,  178.7656,   40.8750,87777.4453,    0.3938,   43.5901,    0.3043,    0.7368,1,431034,1
0,    1.1977,    1.2445,    9.6279,   -2.5678,   -1.0957,   -0.6724,  -10.3195,   61.8195,  178.8892,   40.8750,87778.6563,    0.2806,   43.5994,   -0.3092,    0.7368,1,431147,1
0,    1.1708,    1.2079,    9.6407,   -0.3484,   -2.7183,    0.4833,  -10.4023,   61.5762,  178.8685,   40.8750,87778.9609,    0.2523,   43.5387,   -0.2858,    0.7368,1,431292,1
0,    1.1471,    1.1780,    9.6594,   -0.5984,    1.7992,   -0.8832,  -10.4029,   61.7407,  178.8222,   40.8750,87776.2813,    0.5024,   43.5807,    0.2707,    0.5024,1,431405,1
0,    1.1901,    1.2451,    9.6537,   -2.3856,   -0.0428,    1.3101,  -10.6344,   61.7624,  178.8786,   40.8750,87778.0547,    0.3371,   43.5901,    0.3501,    0.5024,1,431517,1
0,    1.1577,    1.1663,    9.6495,   -1.0155,    0.8371,    0.4469,  -10.7444,   61.7673,  178.9420,   40.8750,87776.2422,    0.5058,   43.5434,    0.5427,    0.5058,1,431662,1
0,    1.1822,    1.1871,    9.6375,    1.0953,    0.1538,    0.2259,  -10.6341,   61.7756,  178.9321,   40.8750,87779.1328,    0.2358,   43.5714,   -0.5289,    0.5058,1,431775,1
0,    1.1752,    1.2420,    9.6513,    0.1557,   -0.4828,   -0.9127,  -10.6160,   61.7364,  178.9363,   40.8750,87779.6094,    0.1918,   43.5947,   -0.4644,    0.5058,1,431888,1
0,    1.1734,    1.1965,    9.6656,   -1.4796,    1.2172,   -1.6601,  -10.6892,   61.8878,  178.7392,   40.8750,87776.5391,    0.4787,   43.5947,   -0.2438,    0.5472,1,432004,1
0,    1.1868,    1.2199,    9.6421,    1.3836,    0.5116,   -0.9449,  -10.6311,   61.9946,  178.5475,   40.8750,87777.7969,    0.3609,   43.5994,    0.1452,    0.5472,1,432117,1
0,    1.2123,    1.2084,    9.6464,    3.1421,    0.1945,   -1.1881,  -10.4804,   62.0470,  178.4789,   40.8750,87776.3281,    0.4979,   43.6134,    0.4615,    0.5992,1,432229,1
0,    1.1582,    1.1794,    9.6479,   -2.6986,   -0.4189,   -0.0076,  -10.5338,   62.0655,  178.5354,   40.8750,87780.0391,    0.1510,   43.5994,   -0.6459,    0.6282,1,432347,1
0,    0.9093,    1.1810,    9.6620,    3.5786,   -0.9060,   -0.1947,  -10.4429,   61.9455,  178.5016,   40.8750,87779.0859,    0.2405,   43.6041,   -0.4851,    0.6282,1,432460,1
0,    0.8895,    1.3497,    9.6514,    9.1249,    3.1870,  -69.4883,   -9.9572,   62.1268,  174.5411,   40.8750,87777.8359,    0.3570,   43.6041,   -0.3932,    0.6282,1,432573,1
0,    1.8462,   -0.0771,    9.9775,    0.2726,   10.3436, -245.6944,   -9.5965,   63.1557,  151.9622,   40.8750,87781.3359,    0.0299,   43.5994,   -0.3199,    0.6282,1,432689,1
0,    5.3715,    2.8099,    9.5452,    7.2472,   -9.5585,  -62.7975,   -8.9232,   62.7799,  145.4518,   40.8750,87775.1563,    0.6078,   43.6134,    0.6073,    0.6078,1,432802,1
0,    1.0207,    1.0880,    9.5549,    6.0438,   -3.0605,  -16.0758,   -7.5074,   61.3219,  143.2281,   40.8750,87777.0156,    0.4339,   43.6134,    0.0477,    0.6078,1,432914,1
0,    2.3572,   -0.8986,   10.6442,  -19.9833,    1.5320,  -56.5815,   -9.7081,   61.7922,  134.1690,   40.8750,87775.2031,    0.6033,   43.5621,    0.8964,    0.6033,1,433059,1
0,   -0.1628,    1.6922,    9.4599,  -25.6648,    2.6340, -158.7365,  -12.4931,   61.7474,  119.6878,   40.8750,87776.8047,    0.4532,   43.5947,   -0.2698,    0.6033,1,433172,1
0,    3.2445,    1.7897,    8.8526,   -4.6614,   -4.5670, -176.0769,  -14.1303,   61.9729,   99.1432,   40.8750,87773.5156,    0.7611,   43.6134,    0.6314,    0.7611,1,433285,1
0,    4.0799,   -0.2588,    9.2846,    3.4515,  -21.2875, -100.9624,  -14.0748,   60.2604,   84.4002,   40.8750,87773.9922,    0.7164,   43.6134,    0.4160,    0.7164,1,433399,1
0,    0.8722,    0.4636,    9.7814,   -5.7485,  -12.1172, -157.9840,  -14.5583,   58.7866,   67.5663,   40.8750,87777.4063,    0.3978,   43.6228,    0.1319,    0.7164,1,433512,1
0,    0.5925,   -0.9748,    9.5234,    3.3441,   -5.1137,  -52.6843,  -14.2200,   58.1517,   58.3585,   40.8750,87775.8516,    0.5427,   43.6181,   -0.3349,    0.7289,1,433624,1
0,    0.2963,    0.6100,    8.7228,   -8.8673,    3.0753, -236.5966,  -15.0560,   58.2330,   36.3881,   40.8750,87773.1250,    0.7973,   43.6087,    0.1477,    0.7973,1,433743,1
0,    3.9824,    0.9622,    8.8092,   15.0028,   -3.8595, -111.3945,  -15.3878,   58.9809,   11.8086,   40.8750,87776.4531,    0.4867,   43.6134,    0.0561,    0.7973,1,433855,1
0,    0.5093,   -1.2484,    9.4879,   15.6419,   -7.2321,  -10.8890,  -13.9436,   58.4925,    1.8047,   40.8750,87774.9844,    0.6241,   43.6274,    0.1812,    0.7973,1,433968,1
0,    1.1868,   -1.7101,    9.6875,    3.8681,    8.9576,  -26.9682,  -13.2520,   58.9505,   -0.6024,   40.8750,87774.5938,    0.6604,   43.6134,   -0.1912,    0.7973,1,434086,1
0,   -0.4061,   -2.8315,    9.6155,    1.6483,    7.2579,  -60.5089,  -12.8921,   59.6224,   -7.8244,   40.8750,87779.8672,    0.1673,   43.6274,   -0.6130,    0.7973,1,434199,1
0,    1.1092,   -2.2058,    9.9148,   -6.6088,   12.6280, -118.5267,  -13.6414,   60.8987,  -20.0239,   40.8750,87778.6953,    0.2772,   43.6274,   -0.7940,    0.7973,1,434311,1
0,   -0.0387,   -0.9946,   10.4282,    2.3822,    3.0232,  -87.3152,  -13.7303,   60.9948,  -27.9237,   40.8750,87778.3984,    0.3044,   43.6228,   -1.0076,    0.7973,1,434426,1
0,    0.0947,   -0.8697,    9.4403,  -17.3526,   13.3022,  -75.6770,  -15.4457,   62.0056,  -35.5501,   40.8750,87775.0703,    0.6157,   43.6228,    0.4821,    0.7973,1,434538,1
0,    1.9624,   -1.5117,    7.1724,  -11.8881,    2.8578,  -25.2612,  -16.3650,   62.8966,  -39.2649,   40.8750,87778.7422,    0.2727,   43.6321,    0.0098,    0.7973,1,434651,1
0,    0.3617,    1.5751,    9.5919,   -9.9914,   -2.0562,   -8.2124,  -17.6014,   62.3455,  -39.3635,   40.8750,87777.8359,    0.3570,   43.6368,    0.1932,    0.7973,1,434765,1
0,    0.6053,   -0.4481,    9.6360,   -6.2479,    3.5905,  -76.0823,  -17.9739,   62.5781,  -45.7391,   40.8750,87777.4922,    0.3893,   43.6368,   -0.3291,    0.7973,1,434878,1
0,    0.4798,    0.5334,    9.7891,   -4.2842,   -1.8852,  -31.4215,  -18.7660,   62.4646,  -51.0812,   40.8750,87778.8281,    0.2647,   43.6368,   -0.3911,    0.7973,1,434991,1
0,    0.5563,   -0.3330,    9.7560,   -3.2354,    1.9674,  -37.1384,  -18.9442,   62.5714,  -55.7182,   40.8750,87777.1875,    0.4181,   43.6321,   -0.3207,    0.7973,1,435107,1
