index, checksum,uptime mp,uptime nav,missiontime,  errorflag mp,errorflag NAV,  accel x, accel y, accel z, accelworld x, accelworld y, accelworld z, mag x, mag y, mag z, accelhighg x, accelhighg y, accelhighg z, gyro x, gyro y, gyro z, euler x, euler y, euler z, quat w, quat x, quat y, quat z,quatadj w, quatadj x, quatadj y, quatadj z, altitude, presusre, verticalvel,filtered vvel, maxalt, altitudeagl, filtered alt, imutemp, barotemp,abs imu accel,abs adxl accel, pad altitude, baro max alt, mag raw x, mag raw y, mag raw z, cov x, cov y, cov z, sats, status, met, filtered accel ,state,battstate,pyros fired,pyros cont,pyros state, checksum2
5801, 101,235094,235072,-6917,0,0,0.106835,-0.670009,9.529581,-0.264749,-0.305694,-0.299687,62.014030,-23.706518,-51.563869,-0.000000,0.961052,17.298931,0.188624,0.486632,2.185899,94.469200,-179.582803,10.273117,0.068189,-0.058128,-0.676506,-0.730966,0.068189,-0.058128,-0.676506,-0.730966,1299.938477,87199.523438,2.803393,0.767468,4.018677,1.719604,1.782902,31.875000,35.069996,9.553703,17.325607,1298.218872,4.018677,0.620140,-0.237065,-0.515639,0.000962,0.000320,0.000335,0,1,0,-0.288347,0,0.290000,0,0,0,202
5802, 101,235148,235145,-6863,0,0,-0.023067,-0.506989,9.746266,-0.139984,-0.256067,-0.045893,61.546333,-23.998831,-51.812332,-0.000000,1.441578,14.896301,-1.338290,-0.221104,5.158064,94.456428,-179.587530,10.512926,0.064257,-0.064766,-0.684645,-0.723144,0.069684,-0.059582,-0.676462,-0.730749,1299.927856,87201.054688,1.779164,0.749328,4.018677,1.708984,1.798967,31.875000,35.069996,9.759472,14.965893,1298.218872,4.018677,0.615463,-0.239988,-0.518123,0.000962,0.000320,0.000335,0,1,0,-0.198133,0,0.290000,0,0,0,202
5803, 101,235198,235194,-6813,0,0,-0.041395,-0.643358,9.900318,-0.013589,0.113568,0.119627,62.160187,-23.823442,-51.753872,1.922103,0.480526,16.337879,1.096388,0.868800,-0.607340,93.043542,179.636284,10.490778,0.064164,-0.065198,-0.684983,-0.722793,0.064164,-0.065198,-0.684983,-0.722793,1300.823364,87167.289062,4.448406,0.747626,4.018677,2.604492,1.886491,31.875000,35.069996,9.921286,16.457573,1298.218872,4.018677,0.621602,-0.238234,-0.517539,0.000962,0.000320,0.000335,0,1,0,0.001256,0,0.290000,0,0,0,202
5804, 101,235248,235242,-6763,0,0,-0.035100,-0.514847,10.056777,0.007515,-0.011139,0.268999,62.072491,-23.925753,-52.002342,1.441578,0.961052,16.337879,0.389211,-0.738727,2.741323,92.981305,179.619031,10.504921,0.064114,-0.065427,-0.685358,-0.722422,0.064114,-0.065427,-0.685358,-0.722422,1301.949585,87167.804688,13.435677,0.768093,4.018677,3.730713,2.207036,31.875000,35.069996,10.070007,16.429487,1298.218872,4.018677,0.620725,-0.239258,-0.520023,0.000962,0.000319,0.000335,0,1,0,0.207892,0,0.290000,0,0,0,202
5805, 101,235297,235291,-6714,0,0,-0.214134,-0.268574,10.084736,0.278030,-0.035337,0.285691,61.590176,-24.130371,-52.046185,0.480526,0.961052,15.376827,0.328983,0.555604,0.920080,91.923500,179.336917,10.551143,0.062091,-0.068056,-0.691800,-0.716189,0.062091,-0.068056,-0.691800,-0.716189,1301.312256,87197.632812,16.607767,0.789841,4.018677,3.093384,2.434108,31.875000,35.083630,10.090584,15.414323,1298.218872,4.018677,0.615902,-0.241304,-0.520462,0.000962,0.000319,0.000335,0,1,0,0.283241,0,0.290000,0,0,0,202
5806, 101,235347,235339,-6664,0,0,0.061578,-0.448435,9.975630,-0.031728,0.102350,0.184319,61.254017,-23.399591,-51.403099,-0.000000,0.961052,15.857353,0.619226,1.143788,0.166550,91.877744,179.361341,10.588337,0.062444,-0.068153,-0.692079,-0.715879,0.062444,-0.068153,-0.692079,-0.715879,1300.893433,87192.632812,6.497631,0.803755,4.018677,2.674561,2.509774,31.875000,35.079082,9.985894,15.886449,1298.218872,4.018677,0.612540,-0.233996,-0.514031,0.000962,0.000319,0.000335,0,1,0,0.254191,0,0.290000,0,0,0,202
5807, 101,235398,235388,-6613,0,0,-0.015274,-0.477494,9.946604,0.038231,0.152850,0.155824,61.809414,-24.188833,-52.236187,0.961052,-0.000000,16.337879,1.546010,-1.797508,-2.256320,91.838539,179.362625,10.551303,0.063901,-0.066315,-0.687503,-0.720319,0.062197,-0.067943,-0.692346,-0.715662,1300.715698,87195.945312,-3.316323,0.812598,4.018677,2.496826,2.544569,31.875000,35.069996,9.958070,16.366121,1298.218872,4.018677,0.618094,-0.241888,-0.522362,0.000962,0.000319,0.000335,0,1,0,0.169890,0,0.290000,0,0,0,202
5808, 101,235448,235436,-6563,0,0,-0.113801,-0.653575,9.984315,0.085119,0.214714,0.202665,61.458633,-23.954985,-52.133877,1.441578,0.961052,16.337879,1.738799,-2.019498,-3.178502,92.571774,179.470256,10.498500,0.062946,-0.066551,-0.687849,-0.720050,0.062946,-0.066551,-0.687849,-0.720050,1300.483154,87196.453125,-5.308185,0.815856,4.018677,2.264282,2.524061,31.875000,35.069996,10.006331,16.429487,1298.218872,4.018677,0.614586,-0.239550,-0.521339,0.000962,0.000319,0.000335,0,1,0,0.190939,0,0.290000,0,0,0,202
5809, 101,235498,235483,-6513,0,0,-0.111506,-0.727446,10.030348,0.069759,0.282913,0.252088,61.707104,-24.349606,-52.060802,-0.480526,0.961052,15.376827,0.255616,1.289726,-1.340541,92.582647,179.477550,10.404474,0.062405,-0.065935,-0.687840,-0.720163,0.062405,-0.065935,-0.687840,-0.720163,1300.482666,87194.406250,-4.991022,0.820035,4.018677,2.263794,2.499361,31.875000,35.069996,10.057310,15.414323,1298.218872,4.018677,0.617071,-0.243496,-0.520608,0.000962,0.000319,0.000335,0,1,0,0.230056,0,0.290000,0,0,0,202
5810, 101,235548,235532,-6463,0,0,-0.241927,-0.257138,9.997685,0.314061,-0.008156,0.197983,61.809414,-24.086525,-52.031570,0.480526,1.922103,15.857353,0.571606,3.443570,-0.305225,91.744487,179.300771,10.296818,0.060179,-0.066841,-0.693046,-0.715261,0.060179,-0.066841,-0.693046,-0.715261,1300.481567,87193.898438,-3.344751,0.826317,4.018677,2.262695,2.477983,31.875000,35.069996,10.003917,15.980646,1298.218872,4.018677,0.618094,-0.240865,-0.520316,0.000962,0.000319,0.000335,0,1,0,0.281232,0,0.290000,0,0,0,202
5811, 101,235598,235580,-6413,0,0,-0.262715,-0.549172,9.799659,0.282061,0.273013,0.009700,61.648643,-23.574978,-52.280033,1.441578,0.480526,16.337879,-0.555263,0.573113,-3.395981,91.835582,179.291619,10.238583,0.059813,-0.066498,-0.692505,-0.715847,0.059813,-0.066498,-0.692505,-0.715847,1300.429443,87198.148438,-1.609301,0.832868,4.018677,2.210571,2.463981,31.875000,35.083630,9.818550,16.408392,1298.218872,4.018677,0.616486,-0.235750,-0.522800,0.000962,0.000319,0.000335,0,1,0,0.112970,0,0.290000,0,0,0,202
5812, 101,235648,235628,-6363,0,0,-0.203144,-1.003238,9.636728,0.144818,0.710719,-0.137243,61.911720,-23.662672,-51.373871,-0.000000,1.441578,16.337879,0.057696,-0.121033,-4.299657,91.855949,179.279734,10.121396,0.065981,-0.059207,-0.668840,-0.738102,0.059020,-0.065853,-0.692439,-0.716037,1300.435059,87197.125000,-0.739050,0.832360,4.018677,2.216187,2.450049,31.875000,35.083630,9.690938,16.401356,1298.218872,4.018677,0.619117,-0.236627,-0.513739,0.000962,0.000319,0.000335,0,1,0,-0.067992,0,0.290000,0,0,0,202
5813, 101,235698,235676,-6313,0,0,-0.732735,-0.733683,9.589763,-0.460792,0.020830,-0.087373,61.867874,-23.706518,-51.680798,0.480526,-0.000000,15.376827,-2.408184,-4.262529,1.997987,95.620340,-179.985894,10.181111,0.065825,-0.059499,-0.668948,-0.737994,0.065825,-0.059499,-0.668948,-0.737994,1300.515747,87198.890625,0.605646,0.827567,4.018677,2.296875,2.470830,31.875000,35.074539,9.645658,15.384334,1298.218872,4.018677,0.619556,-0.235896,-0.514762,0.000962,0.000319,0.000335,0,1,0,-0.122207,0,0.290000,0,0,0,202
5814, 101,235747,235724,-6264,0,0,0.329154,-0.643749,9.553278,0.063968,-0.433530,-0.176710,61.707104,-23.604210,-51.008476,0.480526,0.961052,16.818405,0.159252,-0.539150,3.078345,95.631917,179.886310,10.353441,0.066195,-0.061321,-0.668709,-0.738029,0.066195,-0.061321,-0.668709,-0.738029,1300.493286,87197.632812,0.733035,0.821542,4.018677,2.274414,2.472593,31.875000,35.083630,9.580599,16.852694,1298.218872,4.018677,0.617071,-0.236042,-0.510085,0.000962,0.000319,0.000335,0,1,0,-0.171935,0,0.290000,0,0,0,202
5815, 101,235798,235797,-6213,0,0,-0.110657,-0.323014,9.540340,0.432008,-0.277893,-0.268381,61.824028,-23.911137,-51.593102,-0.000000,1.922103,16.818405,-1.009380,3.065341,5.704951,93.698960,177.708436,10.391489,0.052435,-0.076451,-0.679650,-0.727655,0.052435,-0.076451,-0.679650,-0.727655,1300.359375,87198.773438,-1.139042,0.805074,4.018677,2.140503,2.442135,31.875000,35.079082,9.546449,16.927883,1298.218872,4.018677,0.618240,-0.239111,-0.515931,0.000962,0.000319,0.000335,0,1,0,-0.264543,0,0.290000,0,0,0,202
5816, 101,235848,235845,-6163,0,0,-0.130028,-0.337791,9.701481,0.456117,-0.265045,-0.107113,61.297863,-23.808828,-51.578487,0.480526,0.961052,15.857353,1.243913,-1.197309,2.328442,93.668941,177.697043,10.493795,0.052997,-0.077144,-0.679764,-0.727435,0.052997,-0.077144,-0.679764,-0.727435,1300.297119,87199.914062,-1.893426,0.790740,4.018677,2.078247,2.410447,31.875000,35.074539,9.708230,15.893715,1298.218872,4.018677,0.612979,-0.238088,-0.515785,0.000962,0.000319,0.000335,0,1,0,-0.203899,0,0.290000,0,0,0,202
5817, 101,235897,235894,-6114,0,0,0.008208,-1.172462,9.909360,-0.158122,0.150372,0.175098,62.043262,-24.174217,-51.081554,0.480526,1.441578,16.337879,-2.278990,-0.629014,0.838485,95.758207,179.608116,10.707536,0.066923,-0.065105,-0.667531,-0.738705,0.066923,-0.065105,-0.667531,-0.738705,1300.326538,87197.242188,-1.753302,0.780851,4.018677,2.107666,2.382002,31.875000,35.079082,9.978484,16.408392,1298.218872,4.018677,0.620433,-0.241742,-0.510816,0.000962,0.000319,0.000335,0,1,0,0.024478,0,0.290000,0,0,0,202
5818, 101,235948,235942,-6063,0,0,-0.054972,-0.791442,10.122149,-0.024406,-0.239299,0.349342,62.101723,-24.232681,-51.622330,0.961052,0.961052,15.857353,-1.136534,0.977356,-3.995461,95.802139,179.620520,10.592290,0.066277,-0.064328,-0.667320,-0.739022,0.066277,-0.064328,-0.667320,-0.739022,1300.118530,87202.359375,-2.175371,0.779669,4.018677,1.899658,2.329944,31.875000,35.079082,10.153193,15.915492,1298.218872,4.018677,0.621017,-0.242327,-0.516223,0.000962,0.000319,0.000335,0,1,0,0.242727,0,0.290000,0,0,0,202
5819, 101,235998,235990,-6013,0,0,0.095914,-0.531694,10.189872,-0.127963,-0.535034,0.388345,61.911720,-23.721134,-51.388485,0.480526,1.441578,15.857353,-1.838669,1.171491,-0.106654,95.843318,179.641393,10.561451,0.060520,-0.069300,-0.683977,-0.723679,0.066223,-0.063990,-0.667085,-0.739268,1300.007324,87201.335938,-2.895156,0.785109,4.018677,1.788452,2.259398,31.875000,35.079082,10.204185,15.929994,1298.218872,4.018677,0.619117,-0.237211,-0.513885,0.000962,0.000319,0.000335,0,1,0,0.423156,0,0.290000,0,0,0,202
5820, 101,236048,236038,-5963,0,0,-0.241662,-0.191151,9.978958,0.374301,-0.311461,0.170832,62.116344,-23.750364,-51.797718,0.961052,1.441578,15.857353,1.738386,2.205840,-2.646642,93.120299,179.016253,10.444619,0.060209,-0.068790,-0.684146,-0.723593,0.060209,-0.068790,-0.684146,-0.723593,1299.946045,87200.703125,-3.489032,0.794837,4.018677,1.727173,2.186668,31.875000,35.083630,9.983714,15.951721,1298.218872,4.018677,0.621163,-0.237504,-0.517977,0.000962,0.000319,0.000335,0,1,0,0.313090,0,0.290000,0,0,0,202
5821, 101,236098,236086,-5913,0,0,-0.089125,-0.690152,9.696508,0.129462,0.163579,-0.081792,61.692490,-23.501900,-52.192341,0.480526,1.441578,17.298931,0.235070,-0.399637,-0.624440,93.135148,179.015433,10.419310,0.060053,-0.068636,-0.684067,-0.723696,0.060053,-0.068636,-0.684067,-0.723696,1299.957520,87202.359375,-2.254290,0.799122,4.018677,1.738647,2.135293,31.875000,35.079082,9.721447,17.365543,1298.218872,4.018677,0.616925,-0.235019,-0.521923,0.000962,0.000319,0.000335,0,1,0,0.030766,0,0.290000,0,0,0,202
5822, 101,236150,236134,-5861,0,0,-0.231265,-0.535450,9.562985,0.056902,-0.063087,-0.220621,61.721718,-23.969599,-51.783104,-0.000000,0.961052,15.857353,-2.321933,-0.586277,1.044420,93.780943,-179.567695,10.576046,0.069850,-0.060240,-0.680736,-0.726699,0.069850,-0.060240,-0.680736,-0.726699,1299.994263,87201.335938,-0.793584,0.793772,4.018677,1.775391,2.098277,31.875000,35.079082,9.580756,15.886449,1298.218872,4.018677,0.617217,-0.239696,-0.517831,0.000962,0.000319,0.000335,0,1,0,-0.180990,0,0.290000,0,0,0,202
5823, 101,236200,236183,-5811,0,0,-0.046155,-0.138393,9.532867,-0.029761,-0.477329,-0.279019,62.423271,-23.501900,-51.666183,0.480526,1.922103,16.818405,1.611150,-2.527450,7.598377,93.738766,-179.704558,10.804634,0.070464,-0.062493,-0.680802,-0.726387,0.070464,-0.062493,-0.680802,-0.726387,1300.359375,87188.031250,1.012051,0.783980,4.018677,2.140503,2.101872,31.875000,35.079082,9.533984,16.934702,1298.218872,4.018677,0.624233,-0.235019,-0.516662,0.000962,0.000319,0.000335,0,1,0,-0.237869,0,0.290000,0,0,0,202
5824, 101,236250,236232,-5761,0,0,0.087959,-0.140368,9.721825,-0.129338,-0.505697,-0.091785,61.794800,-23.414207,-52.031570,0.480526,0.480526,16.818405,0.874762,-5.028154,7.014125,93.693735,-179.905421,11.077616,0.065076,-0.071135,-0.697224,-0.710340,0.070976,-0.065416,-0.680815,-0.726067,1301.479492,87171.539062,8.246447,0.783752,4.018677,3.260620,2.293292,31.875000,35.083630,9.723236,16.832129,1298.218872,4.018677,0.617948,-0.234142,-0.520316,0.000962,0.000319,0.000335,0,1,0,-0.243176,0,0.290000,0,0,0,202
5825, 101,236300,236280,-5711,0,0,-0.013031,-0.320494,9.998816,0.248904,0.039750,0.080853,62.101723,-23.662672,-51.403099,-0.000000,0.961052,14.896301,0.920350,-1.947681,3.762977,90.944119,179.313885,11.207468,0.065434,-0.072723,-0.697476,-0.709899,0.065434,-0.072723,-0.697476,-0.709899,1300.947754,87202.117188,11.825668,0.789638,4.018677,2.728882,2.528751,31.875000,35.088173,10.003959,14.927271,1298.218872,4.018677,0.621017,-0.236627,-0.514031,0.000962,0.000319,0.000335,0,1,0,-0.001491,0,0.290000,0,0,0,202
5826, 101,236349,236328,-5662,0,0,-0.134616,-0.532952,10.171431,0.018681,0.489723,0.290152,61.970184,-23.531132,-51.885414,0.480526,0.480526,15.376827,2.702784,0.937291,-2.864067,90.855197,179.245679,11.242478,0.065178,-0.073409,-0.697961,-0.709376,0.065178,-0.073409,-0.697961,-0.709376,1300.601807,87197.515625,1.999312,0.791950,4.018677,2.382935,2.570914,31.875000,35.088173,10.186274,15.391836,1298.218872,4.018677,0.619702,-0.235311,-0.518854,0.000962,0.000319,0.000335,0,1,0,0.197455,0,0.290000,0,0,0,202
5827, 101,236399,236377,-5612,0,0,0.005684,-0.539805,10.164340,0.004388,0.071385,0.414709,61.853260,-23.662672,-52.396957,-0.000000,0.961052,15.376827,1.692514,5.510547,-0.992652,92.876386,-179.916991,11.167183,0.071002,-0.066529,-0.685918,-0.721144,0.071002,-0.066529,-0.685918,-0.721144,1300.294556,87203.929688,-6.518949,0.799068,4.018677,2.075684,2.558539,31.875000,35.097263,10.178665,15.406831,1298.218872,4.018677,0.618533,-0.236627,-0.519731,0.000962,0.000319,0.000335,0,1,0,0.373096,0,0.290000,0,0,0,202
5828, 101,236449,236449,-5562,0,0,-0.118149,-0.158696,10.116941,0.040054,-0.323872,0.312612,61.736332,-23.326513,-51.622330,0.480526,0.961052,16.337879,1.010263,0.601910,-0.648194,92.844742,-179.743135,11.092464,0.071554,-0.065007,-0.686265,-0.720898,0.071554,-0.065007,-0.686265,-0.720898,1300.205200,87200.070312,-6.795701,0.812932,4.018677,1.986328,2.459904,31.875000,35.088173,10.118876,16.373175,1298.218872,4.018677,0.617363,-0.233265,-0.516223,0.000962,0.000319,0.000335,0,1,0,0.368125,0,0.290000,0,0,0,202
5829, 101,236500,236498,-5511,0,0,0.131961,-0.425272,9.979132,-0.447894,-0.101669,0.177497,61.677872,-23.604210,-51.505409,-0.000000,-0.000000,16.337879,0.492547,-0.041534,-0.511232,92.833903,-178.642669,11.130123,0.078369,-0.058312,-0.686940,-0.720119,0.078369,-0.058312,-0.686940,-0.720119,1300.294800,87196.492188,-5.118917,0.821610,4.018677,2.075928,2.413652,31.875000,35.088173,9.989061,16.337879,1298.218872,4.018677,0.616779,-0.236042,-0.515054,0.000962,0.000319,0.000335,0,1,0,0.235835,0,0.290000,0,0,0,202
5830, 101,236550,236546,-5461,0,0,-0.038605,-0.749837,9.832683,-0.343668,0.240429,0.051384,61.780178,-24.539608,-51.432331,-0.000000,0.961052,15.376827,-2.032150,0.259454,-3.575171,92.928432,-178.608695,10.982736,0.077694,-0.057150,-0.686438,-0.720764,0.077694,-0.057150,-0.686438,-0.720764,1300.254150,87198.148438,-2.651124,0.825189,4.018677,2.035278,2.372531,31.875000,35.083630,9.861307,15.406831,1298.218872,4.018677,0.617802,-0.245396,-0.514323,0.000962,0.000319,0.000335,0,1,0,0.131088,0,0.290000,0,0,0,202
5831, 101,236600,236595,-5411,0,0,-0.133398,-0.898514,9.782495,-0.279758,0.400827,0.011411,61.707104,-23.852674,-51.987724,-0.000000,0.961052,15.857353,-1.098937,-0.352637,-0.598629,92.962966,-178.593095,10.942350,0.069332,-0.064144,-0.672108,-0.734404,0.077550,-0.056786,-0.686249,-0.720988,1300.271729,87196.101562,-1.232215,0.824501,4.018677,2.052856,2.335647,31.875000,35.083630,9.824578,15.886449,1298.218872,4.018677,0.617071,-0.238527,-0.519877,0.000962,0.000319,0.000335,0,1,0,0.042135,0,0.290000,0,0,0,202
5832, 101,236649,236643,-5362,0,0,-0.102510,-0.682618,9.789443,-0.025290,-0.178390,0.011095,61.765564,-23.618824,-52.265419,0.961052,-0.000000,14.896301,-0.237336,0.426285,-1.340781,95.071780,179.988585,10.802011,0.069370,-0.063620,-0.672124,-0.734432,0.069370,-0.063620,-0.672124,-0.734432,1300.221436,87200.703125,-0.689445,0.822051,4.018677,2.002563,2.311039,31.875000,35.083630,9.813749,14.927271,1298.218872,4.018677,0.617656,-0.236188,-0.522654,0.000962,0.000319,0.000335,0,1,0,0.072577,0,0.290000,0,0,0,202
5833, 101,236699,236691,-5312,0,0,-0.099629,-0.610494,9.761208,-0.024124,-0.263532,-0.023793,61.853260,-24.232681,-51.549255,-0.000000,0.480526,15.857353,-2.622514,2.492542,2.559099,95.168571,-179.959229,10.860049,0.070101,-0.063567,-0.671503,-0.734935,0.070101,-0.063567,-0.671503,-0.734935,1300.194336,87199.796875,-0.404511,0.819847,4.018677,1.975464,2.281350,31.875000,35.079082,9.780787,15.864633,1298.218872,4.018677,0.618533,-0.242327,-0.515493,0.000962,0.000319,0.000335,0,1,0,-0.011092,0,0.290000,0,0,0,202
5834, 101,236750,236740,-5261,0,0,-0.079158,-0.535420,9.581781,0.118745,0.036275,-0.204748,61.984802,-23.662672,-51.432331,0.480526,0.480526,16.818405,0.639000,1.418945,1.069456,93.013687,179.151190,10.866591,0.063614,-0.070518,-0.684648,-0.722660,0.063614,-0.070518,-0.684648,-0.722660,1300.011841,87200.070312,-2.009805,0.813079,4.018677,1.792969,2.218243,31.875000,35.088173,9.597055,16.832129,1298.218872,4.018677,0.619848,-0.236627,-0.514323,0.000963,0.000319,0.000335,0,1,0,-0.152400,0,0.290000,0,0,0,202
5835, 101,236799,236788,-5212,0,0,-0.137249,-0.663817,9.560303,0.154140,0.172369,-0.219486,61.634029,-23.794212,-51.110786,0.480526,0.961052,16.337879,0.592438,-1.077166,0.097960,93.025162,179.134197,10.863570,0.063500,-0.070600,-0.684567,-0.722739,0.063500,-0.070600,-0.684567,-0.722739,1299.903076,87203.539062,-2.833435,0.800057,4.018677,1.684204,2.153720,31.875000,35.092720,9.584304,16.373175,1298.218872,4.018677,0.616340,-0.237942,-0.511108,0.000962,0.000319,0.000335,0,1,0,-0.221422,0,0.290000,0,0,0,202
5836, 101,236850,236837,-5161,0,0,-0.148611,-0.836570,9.739579,0.151173,0.340312,-0.031523,62.101723,-23.648056,-51.315403,-0.000000,1.922103,16.337879,-0.256016,-2.115317,0.639451,92.990860,179.041880,10.861399,0.069048,-0.065426,-0.673799,-0.732767,0.062913,-0.071187,-0.684725,-0.722583,1299.960327,87202.117188,-2.002676,0.786709,4.018677,1.741455,2.108082,31.875000,35.088173,9.776570,16.450556,1298.218872,4.018677,0.621017,-0.236481,-0.513154,0.000962,0.000319,0.000335,0,1,0,-0.144453,0,0.290000,0,0,0,202
5837, 101,236900,236885,-5111,0,0,-0.280865,-0.748742,9.848531,0.144334,-0.039431,0.078811,62.467117,-23.560364,-51.242329,-0.000000,0.480526,16.337879,-1.219367,2.279179,-1.489127,94.804296,179.947126,10.824958,0.069124,-0.064182,-0.673799,-0.732870,0.069124,-0.064182,-0.673799,-0.732870,1299.871826,87205.187500,-1.409260,0.778390,4.018677,1.652954,2.062366,31.875000,35.088173,9.880944,16.344944,1298.218872,4.018677,0.624671,-0.235604,-0.512423,0.000962,0.000319,0.000335,0,1,0,0.064028,0,0.290000,0,0,0,202
5838, 101,236949,236933,-5062,0,0,-0.206688,-0.543036,9.834907,0.096314,-0.264323,0.047038,61.750950,-23.940369,-51.636948,-0.000000,0.961052,15.857353,-0.984770,2.373894,3.000351,94.867735,-179.975990,10.883704,0.069987,-0.063997,-0.673407,-0.733164,0.069987,-0.063997,-0.673407,-0.733164,1299.946655,87199.562500,-0.954182,0.776744,4.018677,1.727783,2.020858,31.875000,35.088173,9.852055,15.886449,1298.218872,4.018677,0.617509,-0.239404,-0.516369,0.000962,0.000319,0.000335,0,1,0,0.100748,0,0.290000,0,0,0,202
5839, 101,237000,236981,-5011,0,0,0.109612,-0.142394,9.696717,-0.085873,-0.347300,-0.109219,62.160187,-23.691902,-52.265419,0.480526,0.480526,16.337879,0.424082,-2.243944,5.065588,92.753382,179.710063,11.083991,0.068172,-0.068451,-0.686510,-0.720674,0.068172,-0.068451,-0.686510,-0.720674,1300.272827,87193.937500,0.930040,0.778889,4.018677,2.053955,2.039876,31.875000,35.088173,9.698382,16.352007,1298.218872,4.018677,0.621602,-0.236919,-0.522654,0.000962,0.000319,0.000335,0,1,0,-0.023442,0,0.290000,0,0,0,202
5840, 101,237049,237029,-4962,0,0,-0.046355,-0.865473,9.634894,-0.166438,-0.031373,-0.168687,61.531715,-23.794212,-51.812332,0.480526,0.961052,17.298931,-0.659688,-1.583338,1.318399,92.759973,179.545661,11.229639,0.068107,-0.070353,-0.686276,-0.720720,0.068107,-0.070353,-0.686276,-0.720720,1300.136841,87202.117188,2.654804,0.776033,4.018677,1.917969,2.067304,31.875000,35.088173,9.673799,17.332270,1298.218872,4.018677,0.615317,-0.237942,-0.518123,0.000962,0.000319,0.000335,0,1,0,-0.184348,0,0.290000,0,0,0,202
5841, 101,237100,237078,-4911,0,0,-0.162252,-0.449362,9.927401,0.001820,0.429173,0.026419,61.984802,-23.677288,-51.359253,0.480526,-0.000000,16.337879,-0.449032,-0.082684,4.709128,92.766174,179.515745,11.353716,0.070158,-0.069860,-0.671862,-0.734029,0.068712,-0.071281,-0.686141,-0.720700,1299.961182,87203.656250,0.009030,0.766794,4.018677,1.742310,2.058264,31.875000,35.088173,9.938890,16.344944,1298.218872,4.018677,0.619848,-0.236773,-0.513593,0.000962,0.000319,0.000335,0,1,0,-0.136329,0,0.290000,0,0,0,202
5842, 101,237153,237149,-4858,0,0,0.065141,-0.350168,10.033069,-0.032111,-0.560147,0.222699,61.794800,-23.969599,-51.797718,-0.000000,0.961052,15.857353,-1.961370,-2.449655,0.275135,95.082660,179.419261,11.528599,0.070694,-0.071520,-0.671261,-0.734368,0.070694,-0.071520,-0.671261,-0.734368,1299.820557,87205.585938,-2.439786,0.760523,4.018677,1.601685,1.996713,31.750000,35.092720,10.039389,15.886449,1298.218872,4.018677,0.617948,-0.239696,-0.517977,0.000962,0.000319,0.000335,0,1,0,0.154303,0,0.290000,0,0,0,202
5843, 101,237203,237199,-4808,0,0,-0.070663,-0.433655,10.034735,0.093512,-0.455440,0.232583,62.204033,-23.443438,-50.935398,-0.000000,1.441578,15.376827,-0.614037,-0.387955,1.301413,95.104128,179.364429,11.576659,0.072284,-0.070754,-0.686203,-0.720343,0.070694,-0.072139,-0.671056,-0.734495,1300.703857,87173.226562,0.409751,0.769050,4.018677,2.484985,2.042349,31.750000,35.097263,10.044350,15.444253,1298.218872,4.018677,0.622040,-0.234434,-0.509354,0.000962,0.000319,0.000335,0,1,0,0.236376,0,0.290000,0,0,0,202
5844, 101,237253,237248,-4758,0,0,-0.067199,-0.317681,10.055701,0.033242,-0.156056,0.258677,62.306343,-23.618824,-51.344635,-0.000000,1.922103,15.376827,0.718930,-0.380141,0.951137,92.738253,179.819415,11.670406,0.072505,-0.071286,-0.686318,-0.720159,0.072505,-0.071286,-0.686318,-0.720159,1301.755737,87170.398438,9.809284,0.792658,4.018677,3.536865,2.302058,31.750000,35.088173,10.060943,15.496493,1298.218872,4.018677,0.623063,-0.236188,-0.513446,0.000962,0.000319,0.000335,0,1,0,0.254225,0,0.290000,0,0,0,202
5845, 101,237303,237296,-4708,0,0,-0.043959,-0.564074,10.066939,-0.029744,0.077800,0.281482,61.809414,-23.604210,-51.520027,-0.000000,1.922103,14.896301,-0.677018,-0.948547,1.271674,92.748942,179.763052,11.703685,0.072383,-0.071833,-0.686193,-0.720236,0.072383,-0.071833,-0.686193,-0.720236,1300.883423,87203.539062,11.994799,0.809243,4.018677,2.664551,2.438104,31.750000,35.092720,10.082827,15.019796,1298.218872,4.018677,0.618094,-0.236042,-0.515200,0.000962,0.000319,0.000335,0,1,0,0.273885,0,0.290000,0,0,0,202
5846, 101,237352,237345,-4659,0,0,-0.182953,-0.430280,10.034264,0.042291,-0.178012,0.242485,62.262493,-23.881907,-51.563869,0.961052,0.480526,16.337879,0.465452,-0.801456,-2.753313,93.630508,-179.713260,11.623553,0.075538,-0.067483,-0.681018,-0.725227,0.075538,-0.067483,-0.681018,-0.725227,1300.467163,87199.562500,2.644488,0.818809,4.018677,2.248291,2.444676,31.750000,35.088173,10.045151,16.373175,1298.218872,4.018677,0.622625,-0.238819,-0.515639,0.000962,0.000319,0.000335,0,1,0,0.256674,0,0.290000,0,0,0,202
5847, 101,237403,237393,-4608,0,0,-0.074087,-0.511257,9.984764,-0.088076,-0.103101,0.196200,62.408649,-23.779596,-51.008476,-0.000000,1.441578,16.818405,2.872055,0.606357,1.280081,93.547630,-179.668618,11.610944,0.075675,-0.067180,-0.681578,-0.724715,0.075675,-0.067180,-0.681578,-0.724715,1300.319336,87200.625000,-5.834072,0.825130,4.018677,2.100464,2.420741,31.750000,35.106354,9.998118,16.880074,1298.218872,4.018677,0.624086,-0.237796,-0.510085,0.000962,0.000319,0.000335,0,1,0,0.212062,0,0.290000,0,0,0,202
5848, 101,237452,237441,-4559,0,0,-0.054434,-0.610859,9.902978,-0.136396,-0.000808,0.120012,61.634029,-24.013447,-51.256943,-0.000000,0.480526,14.896301,-0.238845,0.249402,-3.063601,93.526743,-179.605288,11.474724,0.070691,-0.070202,-0.681434,-0.725067,0.075178,-0.065982,-0.681828,-0.724641,1300.045776,87199.328125,-7.168094,0.825884,4.018677,1.826904,2.336334,31.750000,35.097263,9.921949,14.904050,1298.218872,4.018677,0.622625,-0.236919,-0.509500,0.000962,0.000319,0.000335,0,1,0,0.154264,0,0.290000,0,0,0,202
5849, 101,237503,237489,-4508,0,0,-0.189728,-0.560694,9.830153,0.130622,-0.019275,0.046073,62.101723,-23.706518,-52.002342,0.961052,-0.000000,16.818405,0.533941,0.041246,-0.058676,93.530500,179.676281,11.407567,0.070482,-0.070126,-0.681390,-0.725136,0.070482,-0.070126,-0.681390,-0.725136,1300.067505,87195.234375,-6.409296,0.824481,4.018677,1.848633,2.258266,31.750000,35.097263,9.847958,16.845840,1298.218872,4.018677,0.621017,-0.237065,-0.520023,0.000962,0.000319,0.000335,0,1,0,0.097129,0,0.290000,0,0,0,202
5850, 101,237553,237537,-4458,0,0,-0.039199,-0.402825,9.818771,0.008422,-0.202620,0.024017,61.356331,-24.013447,-50.686932,0.480526,0.961052,16.337879,0.866683,2.551886,0.967161,93.529441,179.709353,11.427170,0.070802,-0.070034,-0.681407,-0.725098,0.070802,-0.070034,-0.681407,-0.725098,1299.883911,87204.445312,-4.414192,0.820816,4.018677,1.665039,2.185936,31.750000,35.097263,9.827109,16.373175,1298.218872,4.018677,0.613563,-0.240134,-0.506869,0.000962,0.000319,0.000335,0,1,0,0.009694,0,0.290000,0,0,0,202
5851, 101,237603,237586,-4408,0,0,-0.225565,-0.655000,9.746752,0.257405,0.257914,-0.036457,61.999416,-23.633440,-50.950016,0.961052,1.922103,15.857353,-0.776517,2.080556,0.903964,92.517774,179.027591,11.370057,0.065727,-0.074588,-0.687368,-0.719473,0.065727,-0.074588,-0.687368,-0.719473,1299.887329,87198.812500,-2.826602,0.814632,4.018677,1.668457,2.108424,31.750000,35.097263,9.771339,16.002304,1298.218872,4.018677,0.619994,-0.236334,-0.509500,0.000962,0.000319,0.000335,0,1,0,-0.029569,0,0.290000,0,0,0,202
5852, 101,237654,237634,-4357,0,0,-0.161395,-0.525523,9.705501,0.271011,0.258898,-0.044003,61.648643,-23.750364,-51.622330,0.480526,2.402629,15.857353,0.440474,0.605288,-2.075486,92.549828,179.001349,11.408453,0.065831,-0.074965,-0.687124,-0.719658,0.065831,-0.074965,-0.687124,-0.719658,1299.788574,87201.882812,-2.373344,0.806895,4.018677,1.569702,2.036590,31.750000,35.097263,9.721058,16.045534,1298.218872,4.018677,0.616486,-0.237504,-0.516223,0.000962,0.000319,0.000335,0,1,0,-0.047183,0,0.290000,0,0,0,202
5853, 101,237704,237683,-4307,0,0,-0.059074,-0.751519,9.752245,0.326529,0.201629,-0.035867,61.794800,-24.247295,-51.958488,-0.000000,0.480526,16.818405,1.413708,-4.484725,-0.063743,92.544371,179.010638,11.414032,0.077426,-0.063985,-0.681498,-0.724894,0.065919,-0.074943,-0.687161,-0.719616,1299.981323,87196.492188,-0.743726,0.799598,4.018677,1.762451,1.979214,31.750000,35.088173,9.781337,16.825268,1298.218872,4.018677,0.617948,-0.242473,-0.519585,0.000962,0.000319,0.000335,0,1,0,-0.081892,0,0.290000,0,0,0,202
5854, 101,237754,237731,-4257,0,0,-0.303377,-0.659935,9.773747,-0.156945,0.150863,-0.005538,61.970184,-24.013447,-51.578487,0.961052,0.961052,15.376827,-0.180393,-1.587988,-2.381298,93.523082,-179.401926,11.500537,0.076548,-0.064852,-0.681961,-0.724475,0.076548,-0.064852,-0.681961,-0.724475,1299.926758,87201.250000,0.490690,0.794110,4.018677,1.707886,1.960249,31.750000,35.101810,9.800699,15.436776,1298.218872,4.018677,0.619702,-0.240134,-0.515785,0.000962,0.000319,0.000335,0,1,0,-0.023243,0,0.290000,0,0,0,202
5855, 101,237804,237803,-4207,0,0,-0.227318,-0.373544,9.802633,0.048754,-0.197619,0.009270,62.408649,-23.414207,-51.432331,0.480526,1.922103,15.376827,-0.634907,1.096133,4.507751,93.558490,-179.423114,11.614514,0.078185,-0.064812,-0.688344,-0.718240,0.077163,-0.065640,-0.681659,-0.724623,1299.890625,87206.250000,1.215369,0.789488,4.018677,1.671753,1.940764,31.750000,35.106354,9.812382,15.503942,1298.218872,4.018677,0.624086,-0.234142,-0.514323,0.000962,0.000319,0.000335,0,1,0,0.048789,0,0.290000,0,0,0,202
5856, 101,237853,237852,-4158,0,0,-0.176025,-1.083969,9.823334,-0.193903,0.669870,0.058895,61.634029,-23.677288,-51.724644,0.961052,2.402629,15.376827,1.706584,1.055712,-1.489624,92.487735,-179.136177,11.614648,0.078268,-0.064559,-0.688572,-0.718035,0.078268,-0.064559,-0.688572,-0.718035,1299.811279,87207.273438,0.195206,0.787449,4.018677,1.592407,1.919757,31.750000,35.106354,9.884526,15.593045,1298.218872,4.018677,0.616340,-0.236773,-0.517246,0.000962,0.000319,0.000335,0,1,0,0.056421,0,0.290000,0,0,0,202
5857, 101,237904,237900,-4107,0,0,-0.314807,-0.553597,9.832336,0.053625,0.177750,0.050190,62.174805,-23.881907,-50.906170,0.480526,-0.480526,15.857353,-0.676999,-0.949207,3.579670,92.491813,-179.169399,11.683692,0.078504,-0.065179,-0.688488,-0.718034,0.078504,-0.065179,-0.688488,-0.718034,1299.959473,87199.835938,-0.385141,0.787122,4.018677,1.740601,1.908780,31.750000,35.097263,9.852940,15.871908,1298.218872,4.018677,0.621748,-0.238819,-0.509062,0.000962,0.000319,0.000335,0,1,0,0.046218,0,0.290000,0,0,0,202
5858, 101,237954,237948,-4057,0,0,0.068708,-0.490478,9.810019,0.025171,0.315959,0.016397,61.809414,-23.487286,-50.599243,-0.000000,1.922103,15.376827,1.405423,0.311068,-0.046982,90.878911,178.881835,11.645253,0.065469,-0.078096,-0.697304,-0.709494,0.065469,-0.078096,-0.697304,-0.709494,1299.955444,87201.648438,-0.123274,0.786913,4.018677,1.736572,1.905532,31.750000,35.106354,9.822513,15.496493,1298.218872,4.018677,0.618094,-0.234873,-0.505992,0.000962,0.000319,0.000335,0,1,0,0.056701,0,0.290000,0,0,0,202
5859, 101,238003,237996,-4008,0,0,-0.153807,-0.745650,9.872368,0.208678,0.610267,0.079654,61.897106,-23.662672,-51.023090,0.480526,1.922103,16.337879,-0.126449,-1.663950,1.480924,90.876534,178.788056,11.664914,0.065017,-0.078797,-0.697240,-0.709521,0.065017,-0.078797,-0.697240,-0.709521,1300.048706,87197.281250,0.781556,0.786619,4.018677,1.829834,1.907978,31.750000,35.097263,9.901682,16.457573,1298.218872,4.018677,0.618971,-0.236627,-0.510231,0.000962,0.000319,0.000335,0,1,0,0.059554,0,0.290000,0,0,0,202
5860, 101,238054,238045,-3957,0,0,0.165657,-0.320319,9.841879,-0.037930,0.122801,0.046645,62.057877,-23.648056,-51.096172,-0.000000,0.480526,16.337879,-0.136140,3.960478,2.230271,90.913288,178.896178,11.780940,0.065631,-0.079647,-0.692878,-0.713631,0.066420,-0.078813,-0.697008,-0.709617,1299.982788,87202.671875,0.673295,0.787788,4.018677,1.763916,1.914192,31.750000,35.106354,9.848483,16.344944,1298.218872,4.018677,0.620579,-0.236481,-0.510962,0.000962,0.000319,0.000335,0,1,0,0.017519,0,0.290000,0,0,0,202
5861, 101,238103,238093,-3908,0,0,-0.031851,-0.719274,9.813492,0.110297,0.446212,0.028126,61.750950,-23.677288,-51.300789,1.441578,0.961052,16.337879,0.197959,-0.390406,-2.872123,91.543229,178.685549,11.714483,0.065162,-0.079354,-0.692994,-0.713594,0.065162,-0.079354,-0.692994,-0.713594,1299.992432,87200.742188,0.648599,0.787183,4.018677,1.773560,1.915102,31.750000,35.101810,9.839868,16.429487,1298.218872,4.018677,0.617509,-0.236773,-0.513008,0.000962,0.000319,0.000335,0,1,0,0.070075,0,0.290000,0,0,0,202
5862, 101,238155,238141,-3856,0,0,0.060888,-0.420315,9.798568,0.084773,0.134518,0.005479,61.824028,-23.618824,-50.555397,-0.480526,3.363681,15.857353,-0.476095,0.103295,2.872464,91.546549,178.655796,11.738621,0.065134,-0.079683,-0.692936,-0.713616,0.065134,-0.079683,-0.692936,-0.713616,1300.036011,87198.812500,0.056116,0.787386,4.018677,1.817139,1.918403,31.750000,35.097263,9.807768,16.217302,1298.218872,4.018677,0.620433,-0.238819,-0.510085,0.000962,0.000319,0.000335,0,1,0,0.002524,0,0.290000,0,0,0,202
5863, 101,238205,238190,-3806,0,0,0.265830,-0.560942,9.837851,-0.125107,-0.038426,0.055546,62.072491,-23.326513,-50.643085,0.961052,0.480526,16.337879,0.432264,0.385285,-2.549425,93.104228,178.550694,11.698966,0.065333,-0.079215,-0.683123,-0.723049,0.065333,-0.079215,-0.683123,-0.723049,1300.505127,87182.835938,1.813694,0.788737,4.018677,2.286255,1.968892,31.750000,35.101810,9.857415,16.373175,1298.218872,4.018677,0.620725,-0.233265,-0.506431,0.000962,0.000319,0.000335,0,1,0,0.028021,0,0.290000,0,0,0,202
5864, 101,238255,238238,-3756,0,0,-0.196000,-0.580034,9.820067,0.328802,0.081593,0.032301,62.247879,-24.028061,-50.803860,-0.000000,1.441578,15.857353,1.573618,-1.482949,0.696850,93.067734,178.515231,11.693076,0.065058,-0.079424,-0.683332,-0.722853,0.065058,-0.079424,-0.683332,-0.722853,1301.831299,87166.851562,10.638319,0.805556,4.018677,3.612427,2.246104,31.750000,35.106354,9.839135,15.922745,1298.218872,4.018677,0.622479,-0.240281,-0.508039,0.000962,0.000319,0.000335,0,1,0,0.019616,0,0.290000,0,0,0,202
5865, 101,238305,238287,-3706,0,0,-0.114278,-0.532176,9.833954,0.262641,0.015008,0.044492,61.940948,-23.472668,-51.929260,-0.000000,1.441578,15.376827,-0.271961,0.840685,-1.866786,93.081757,178.496380,11.635564,0.073318,-0.070942,-0.683675,-0.722620,0.064592,-0.079192,-0.683270,-0.722979,1301.491821,87198.460938,15.563407,0.820842,4.018677,3.272949,2.509066,31.750000,35.110897,9.849006,15.444253,1298.218872,4.018677,0.619410,-0.234727,-0.519293,0.000962,0.000319,0.000335,0,1,0,0.057205,0,0.290000,0,0,0,202
5866, 101,238354,238335,-3657,0,0,0.181050,-0.445409,9.847745,-0.151800,-0.122732,0.049177,62.116344,-23.925753,-51.315403,0.480526,0.961052,16.337879,-0.550646,0.848847,0.240817,93.240039,179.916431,11.796093,0.074188,-0.071105,-0.683143,-0.723018,0.074188,-0.071105,-0.683143,-0.723018,1300.496216,87202.945312,0.391863,0.824438,4.018677,2.277344,2.567021,31.750000,35.115444,9.859475,16.373175,1298.218872,4.018677,0.621163,-0.239258,-0.513154,0.000962,0.000319,0.000335,0,1,0,0.055871,0,0.290000,0,0,0,202
5867, 101,238405,238383,-3606,0,0,-0.426270,-0.730331,9.840366,-0.104136,0.313527,0.050093,61.984802,-23.560364,-51.636948,0.961052,-0.000000,15.376827,-0.502453,1.074473,0.488240,93.300159,179.914901,11.772299,0.074066,-0.070934,-0.682777,-0.723393,0.074066,-0.070934,-0.682777,-0.723393,1300.204712,87201.921875,-8.705452,0.822004,4.018677,1.985840,2.526343,31.875000,35.115444,9.876635,15.406831,1298.218872,4.018677,0.619848,-0.235604,-0.516369,0.000962,0.000319,0.000335,0,1,0,0.053689,0,0.290000,0,0,0,202
5868, 101,238455,238432,-3556,0,0,0.019759,-0.666878,9.861725,0.034847,-0.008250,0.060176,62.116344,-24.071909,-50.686932,0.480526,0.480526,15.857353,-0.494697,-1.364523,2.691239,94.528507,-178.630538,11.955777,0.084554,-0.061940,-0.675794,-0.729601,0.084554,-0.061940,-0.675794,-0.729601,1300.066162,87202.945312,-8.992682,0.817571,4.018677,1.847290,2.453364,31.875000,35.115444,9.884267,15.871908,1298.218872,4.018677,0.621163,-0.240719,-0.506869,0.000962,0.000319,0.000335,0,1,0,0.068347,0,0.290000,0,0,0,202
5869, 101,238504,238504,-3507,0,0,0.117422,-0.385633,9.909201,-0.422782,-0.427869,0.098138,62.174805,-23.823442,-51.213097,-0.000000,1.441578,15.857353,0.069983,-0.801295,-1.365992,94.515577,-178.682434,11.991795,0.084471,-0.062493,-0.675825,-0.729534,0.084471,-0.062493,-0.675825,-0.729534,1299.883057,87203.179688,-7.486450,0.809435,4.018677,1.664185,2.304372,31.875000,35.106354,9.917397,15.922745,1298.218872,4.018677,0.621748,-0.238234,-0.512131,0.000962,0.000319,0.000335,0,1,0,0.092901,0,0.290000,0,0,0,202
5870, 101,238554,238553,-3457,0,0,0.079351,-0.570592,9.845394,-0.540456,-0.220410,0.043947,62.350189,-23.618824,-50.672318,0.480526,-0.000000,14.896301,0.057570,-0.436141,1.261380,94.434250,-177.999169,12.061955,0.088893,-0.058609,-0.676706,-0.728514,0.088893,-0.058609,-0.676706,-0.728514,1299.900391,87201.531250,-5.485792,0.805881,4.018677,1.681519,2.217047,31.875000,35.110897,9.862234,14.904050,1298.218872,4.018677,0.623502,-0.236188,-0.506723,0.000962,0.000319,0.000335,0,1,0,0.084685,0,0.290000,0,0,0,202
5871, 101,238605,238601,-3406,0,0,0.095634,-0.728324,9.882993,-0.597742,-0.077140,0.090911,62.306343,-23.574978,-51.476173,-0.000000,1.922103,15.857353,-0.818574,1.726182,-2.419268,94.461748,-177.951932,11.977538,0.088648,-0.057788,-0.676601,-0.728707,0.088648,-0.057788,-0.676601,-0.728707,1300.098389,87198.578125,-2.121152,0.804094,4.018677,1.879517,2.178427,31.875000,35.106354,9.910255,15.973419,1298.218872,4.018677,0.623063,-0.235750,-0.514762,0.000962,0.000319,0.000335,0,1,0,0.066508,0,0.290000,0,0,0,202
5872, 101,238655,238649,-3356,0,0,-0.351398,-0.543913,9.856410,-0.126078,-0.175115,0.074302,62.452499,-24.203449,-51.987724,0.480526,0.961052,15.857353,-1.292215,1.596074,0.153127,94.526690,-177.922835,11.934613,0.083929,-0.061887,-0.681681,-0.724180,0.088579,-0.057299,-0.676226,-0.729102,1300.157837,87195.507812,0.263569,0.803430,4.018677,1.938965,2.149086,31.875000,35.106354,9.877659,15.893715,1298.218872,4.018677,0.624525,-0.242034,-0.519877,0.000962,0.000319,0.000335,0,1,0,0.083988,0,0.290000,0,0,0,202
5873, 101,238705,238697,-3306,0,0,0.133695,-0.446265,9.855727,-0.460669,-0.212789,0.052674,62.408649,-23.911137,-51.651562,-0.000000,1.441578,15.857353,-0.013757,-1.818327,1.883467,93.614436,-178.619856,11.971183,0.084218,-0.062636,-0.681590,-0.724168,0.084218,-0.062636,-0.681590,-0.724168,1299.979004,87201.921875,0.195266,0.802116,4.018677,1.760132,2.108825,31.875000,35.115444,9.866732,15.922745,1298.218872,4.018677,0.624086,-0.239111,-0.516516,0.000962,0.000319,0.000335,0,1,0,0.044111,0,0.290000,0,0,0,202
5874, 101,238755,238746,-3256,0,0,-0.236049,-0.935350,9.819766,-0.203974,0.346677,0.057834,62.277115,-24.598070,-51.943874,0.961052,1.922103,15.857353,-0.283229,0.145686,-1.105429,93.593611,-178.589994,11.925685,0.084096,-0.062191,-0.681764,-0.724057,0.084096,-0.062191,-0.681764,-0.724057,1299.896240,87206.406250,-0.342751,0.799824,4.018677,1.677368,2.072681,31.875000,35.119987,9.867036,16.002304,1298.218872,4.018677,0.622771,-0.245981,-0.519439,0.000962,0.000319,0.000335,0,1,0,0.026489,0,0.290000,0,0,0,202
5875, 101,238804,238794,-3207,0,0,-0.149861,-0.285603,9.822663,0.075800,-0.315173,0.021610,61.794800,-24.057293,-51.417713,0.480526,1.922103,15.857353,-0.345081,-4.508999,1.197670,93.647549,-179.930323,11.900265,0.076010,-0.070490,-0.680604,-0.725281,0.076010,-0.070490,-0.680604,-0.725281,1299.868774,87201.015625,-1.556342,0.796185,4.018677,1.649902,2.018668,31.875000,35.110897,9.827957,15.980646,1298.218872,4.018677,0.617948,-0.240573,-0.514177,0.000962,0.000319,0.000335,0,1,0,0.018883,0,0.290000,0,0,0,202
5876, 101,238855,238842,-3156,0,0,-0.085488,-0.555052,9.797885,-0.039527,-0.065350,0.012669,62.130959,-23.838060,-51.549255,-0.000000,0.961052,14.896301,0.871314,-0.694637,0.382945,93.657043,-179.950350,11.923966,0.076047,-0.070751,-0.680516,-0.725334,0.076047,-0.070751,-0.680516,-0.725334,1299.873901,87199.992188,-2.010164,0.792145,4.018677,1.655029,1.971342,31.875000,35.110897,9.813967,14.927271,1298.218872,4.018677,0.622479,-0.238381,-0.515493,0.000962,0.000319,0.000335,0,1,0,0.047515,0,0.290000,0,0,0,202
5877, 101,238905,238891,-3106,0,0,-0.302838,-1.084114,9.824516,0.057984,0.502610,0.074837,61.575562,-23.925753,-51.359253,0.961052,2.402629,16.818405,2.064319,0.668950,-3.657054,93.608385,-179.905065,11.824365,0.079149,-0.066358,-0.664329,-0.740269,0.075656,-0.069905,-0.680915,-0.725082,1299.842407,87201.921875,-1.118060,0.789031,4.018677,1.623535,1.932255,31.875000,35.115444,9.888788,17.016315,1298.218872,4.018677,0.615756,-0.239258,-0.513593,0.000962,0.000319,0.000335,0,1,0,0.051028,0,0.290000,0,0,0,202
5878, 101,238954,238938,-3057,0,0,0.155261,-0.524046,9.832041,-0.324915,-0.594635,0.022879,61.458633,-23.867290,-51.505409,-0.000000,1.441578,15.376827,-0.144055,-1.580469,3.745208,96.262719,-179.623648,11.942144,0.079646,-0.066997,-0.664055,-0.740405,0.079646,-0.066997,-0.664055,-0.740405,1299.756226,87201.804688,-1.085985,0.786429,4.018677,1.537354,1.881246,31.875000,35.119987,9.847220,15.444253,1298.218872,4.018677,0.614586,-0.238673,-0.515054,0.000962,0.000319,0.000335,0,1,0,0.044619,0,0.290000,0,0,0,202
5879, 101,239005,238986,-3006,0,0,-0.280265,-0.499785,9.835937,0.111581,-0.524902,0.036988,61.590176,-24.276527,-51.359253,0.480526,0.961052,16.818405,-0.435097,-0.420815,-2.693053,96.235084,-179.650053,11.850352,0.078884,-0.066655,-0.664270,-0.740324,0.078884,-0.066655,-0.664270,-0.740324,1299.937012,87198.578125,-0.205923,0.785041,4.018677,1.718140,1.867825,31.875000,35.106354,9.852612,16.852694,1298.218872,4.018677,0.615902,-0.242765,-0.513593,0.000962,0.000319,0.000335,0,1,0,0.041449,0,0.290000,0,0,0,202
5880, 101,239054,239035,-2957,0,0,0.075083,-0.383575,9.812713,-0.367796,-0.203996,0.017126,62.145573,-24.159603,-52.075417,-0.000000,0.480526,15.376827,0.372444,-1.601962,1.646578,94.054656,-177.881540,12.140515,0.089891,-0.058621,-0.679142,-0.726119,0.089891,-0.058621,-0.679142,-0.726119,1299.998901,87201.804688,1.957301,0.785501,4.018677,1.780029,1.881651,31.875000,35.119987,9.820494,15.384334,1298.218872,4.018677,0.621456,-0.241596,-0.520754,0.000962,0.000319,0.000335,0,1,0,0.006282,0,0.290000,0,0,0,202
5881, 101,239105,239083,-2906,0,0,-0.186117,-0.711492,9.782408,-0.600231,-0.233692,-0.007242,61.853260,-24.174217,-52.192341,0.480526,1.922103,15.376827,3.236254,-1.157635,-3.169048,94.051336,-177.949801,12.193008,0.089819,-0.059369,-0.679097,-0.726110,0.089819,-0.059369,-0.679097,-0.726110,1300.077515,87199.601562,2.070477,0.784910,4.018677,1.858643,1.895384,31.875000,35.106354,9.810014,15.503942,1298.218872,4.018677,0.618533,-0.241742,-0.521923,0.000962,0.000319,0.000335,0,1,0,0.001033,0,0.290000,0,0,0,202
5882, 101,239158,239156,-2853,0,0,-0.145166,-0.701082,9.813469,-0.063370,-0.010796,0.038341,61.721718,-24.071909,-50.818474,-0.000000,1.441578,15.857353,0.566418,0.734950,0.499233,94.235594,-179.650641,11.981116,0.078537,-0.068797,-0.677007,-0.728533,0.078537,-0.068797,-0.677007,-0.728533,1299.928467,87204.359375,0.761530,0.782688,4.018677,1.709595,1.906531,31.875000,35.119987,9.839551,15.922745,1298.218872,4.018677,0.617217,-0.240719,-0.508185,0.000962,0.000319,0.000335,0,1,0,0.014346,0,0.290000,0,0,0,202
5883, 101,239209,239205,-2802,0,0,0.042545,-0.173713,9.852767,-0.144638,-0.561172,0.036335,61.940948,-23.560364,-50.950016,0.480526,0.961052,16.818405,0.618378,0.411371,1.167768,94.201457,-179.611135,12.013574,0.078956,-0.068761,-0.677230,-0.728284,0.078956,-0.068761,-0.677230,-0.728284,1300.731689,87174.804688,2.769349,0.786376,4.018677,2.512817,1.980863,31.875000,35.115444,9.854390,16.852694,1298.218872,4.018677,0.619410,-0.235604,-0.509500,0.000962,0.000319,0.000335,0,1,0,0.027157,0,0.290000,0,0,0,202
5884, 101,239259,239254,-2752,0,0,-0.153547,-0.534625,9.789734,-0.040184,-0.162689,0.003091,62.130959,-23.531132,-52.557732,0.480526,0.961052,15.857353,-1.588439,2.168192,0.629773,94.194647,-179.536454,12.001936,0.077464,-0.070062,-0.682620,-0.723271,0.079319,-0.068222,-0.677329,-0.728203,1301.670898,87176.101562,10.557026,0.802502,4.018677,3.452026,2.252968,31.875000,35.124535,9.805523,15.893715,1298.218872,4.018677,0.621310,-0.235311,-0.525577,0.000962,0.000319,0.000335,0,1,0,0.054859,0,0.290000,0,0,0,202
5885, 101,239308,239302,-2703,0,0,-0.024177,-0.561978,9.864911,-0.147981,-0.027785,0.078788,62.189419,-23.925753,-51.987724,0.480526,-0.480526,15.857353,-0.749668,2.871489,0.275436,93.380051,-179.680366,11.974998,0.077805,-0.069533,-0.682412,-0.723481,0.077805,-0.069533,-0.682412,-0.723481,1301.037842,87198.617188,12.680546,0.811732,4.018677,2.818970,2.415575,31.875000,35.124535,9.880935,15.871908,1298.218872,4.018677,0.621894,-0.239258,-0.519877,0.000962,0.000319,0.000335,0,1,0,-0.011381,0,0.290000,0,0,0,202
5886, 101,239359,239350,-2652,0,0,-0.311096,-0.691045,9.805408,0.109610,0.158306,0.031765,61.999416,-23.838060,-51.432331,-0.000000,0.480526,15.857353,-0.846791,-0.919092,-1.918385,93.395515,-179.696075,11.922450,0.077389,-0.069309,-0.682336,-0.723619,0.077389,-0.069309,-0.682336,-0.723619,1300.583862,87197.437500,3.246319,0.812824,4.018677,2.364990,2.443820,31.875000,35.110897,9.834650,15.864633,1298.218872,4.018677,0.619994,-0.238381,-0.514323,0.000962,0.000319,0.000335,0,1,0,0.079724,0,0.290000,0,0,0,202
5887, 101,239409,239399,-2602,0,0,-0.182861,-0.494904,9.819260,-0.046510,-0.364976,0.025538,62.087105,-24.101139,-51.256943,-0.000000,0.480526,15.857353,-0.429982,0.947831,4.014485,95.171166,-179.288613,12.061377,0.081728,-0.066303,-0.671224,-0.733746,0.081728,-0.066303,-0.671224,-0.733746,1300.272095,87201.054688,-5.713542,0.811025,4.018677,2.053223,2.411333,31.875000,35.129078,9.833424,15.864633,1298.218872,4.018677,0.620871,-0.241011,-0.512569,0.000962,0.000319,0.000335,0,1,0,0.036474,0,0.290000,0,0,0,202
5888, 101,239458,239447,-2553,0,0,-0.113397,-0.582236,9.759265,-0.136038,-0.290849,-0.028999,61.897106,-24.203449,-51.826954,0.961052,0.961052,15.376827,0.002319,-0.569256,-0.617974,95.182764,-179.265855,12.083154,0.082007,-0.066277,-0.671152,-0.733783,0.082007,-0.066277,-0.671152,-0.733783,1300.083252,87199.640625,-7.496730,0.805694,4.018677,1.864380,2.337557,31.875000,35.124535,9.777275,15.436776,1298.218872,4.018677,0.618971,-0.242034,-0.518270,0.000962,0.000319,0.000335,0,1,0,-0.009273,0,0.290000,0,0,0,202
5889, 101,239508,239495,-2503,0,0,-0.223996,-0.349355,9.814604,0.024096,-0.486974,0.010266,61.897106,-24.481146,-51.520027,0.480526,1.441578,15.857353,1.490489,-2.783983,0.385314,95.108458,-179.289952,12.108273,0.081286,-0.067703,-0.687868,-0.718085,0.081984,-0.066631,-0.671597,-0.733346,1299.905273,87203.218750,-7.050935,0.797615,4.018677,1.686401,2.250335,31.875000,35.124535,9.823374,15.929994,1298.218872,4.018677,0.618971,-0.244811,-0.515200,0.000962,0.000319,0.000335,0,1,0,-0.029022,0,0.290000,0,0,0,202
5890, 101,239558,239543,-2453,0,0,-0.173313,-0.492510,9.815662,-0.079827,0.089784,0.027804,61.750950,-24.013447,-51.958488,0.480526,-0.480526,15.857353,0.998916,0.265571,-2.007620,92.496573,-179.144797,12.048932,0.080942,-0.067216,-0.688262,-0.717792,0.080942,-0.067216,-0.688262,-0.717792,1299.883667,87205.265625,-4.829144,0.791049,4.018677,1.664795,2.181793,31.875000,35.124535,9.829538,15.871908,1298.218872,4.018677,0.618094,-0.238527,-0.519000,0.000962,0.000319,0.000335,0,1,0,0.052539,0,0.290000,0,0,0,202
5891, 101,239609,239592,-2402,0,0,-0.197712,-0.749956,9.882529,-0.088674,0.348213,0.105402,61.750950,-24.013447,-52.046185,-0.000000,-0.000000,16.337879,-0.069038,-3.421516,-0.426787,92.469198,-179.269352,12.008669,0.079927,-0.067774,-0.688380,-0.717740,0.079927,-0.067774,-0.688380,-0.717740,1299.959717,87203.734375,-2.430866,0.787967,4.018677,1.740845,2.136635,31.875000,35.124535,9.912917,16.337879,1298.218872,4.018677,0.617509,-0.240134,-0.520462,0.000962,0.000319,0.000335,0,1,0,0.100264,0,0.290000,0,0,0,202
5892, 101,239659,239640,-2352,0,0,0.018407,-0.533190,9.894682,-0.266565,-0.206936,0.102307,62.072491,-24.174217,-51.651562,0.480526,0.961052,15.857353,0.574859,0.960169,-1.952532,94.193944,-179.198715,11.927242,0.080838,-0.065633,-0.677591,-0.728030,0.080838,-0.065633,-0.677591,-0.728030,1299.854370,87205.031250,-1.592318,0.786719,4.018677,1.635498,2.081347,31.875000,35.133625,9.909055,15.893715,1298.218872,4.018677,0.620725,-0.241742,-0.516516,0.000962,0.000319,0.000335,0,1,0,0.103733,0,0.290000,0,0,0,202
5893, 101,239709,239688,-2302,0,0,-0.219156,-0.620140,9.856906,-0.377617,-0.423982,0.098736,62.291729,-23.998831,-51.476173,-0.000000,0.961052,15.376827,-1.937395,2.759870,0.474861,94.222425,-179.162009,11.924792,0.081055,-0.065365,-0.677434,-0.728176,0.081055,-0.065365,-0.677434,-0.728176,1299.894043,87199.640625,-1.661925,0.784508,4.018677,1.675171,2.011195,31.750000,35.124535,9.878825,15.406831,1298.218872,4.018677,0.622917,-0.239988,-0.514762,0.000962,0.000319,0.000335,0,1,0,0.077609,0,0.290000,0,0,0,202
5894, 101,239759,239737,-2252,0,0,-0.294756,-0.429393,9.869348,-0.204881,-0.241167,0.065877,62.277115,-23.764982,-50.979244,-0.000000,0.480526,16.337879,-1.579194,1.740377,1.917551,94.261009,-179.111534,11.896894,0.073673,-0.072063,-0.684568,-0.721627,0.081198,-0.064851,-0.677236,-0.728390,1299.841187,87205.781250,-0.802085,0.784370,4.018677,1.622314,1.983777,31.750000,35.124535,9.883080,16.344944,1298.218872,4.018677,0.622771,-0.237650,-0.509792,0.000962,0.000319,0.000335,0,1,0,0.077925,0,0.290000,0,0,0,202
5895, 101,239809,239809,-2202,0,0,-0.077311,-0.442293,9.827327,0.016353,-0.071472,0.036305,61.911720,-23.414207,-51.081554,-0.000000,0.961052,15.376827,0.758535,-0.996966,-0.029087,93.030701,179.815194,11.873503,0.073941,-0.072341,-0.684347,-0.721781,0.073941,-0.072341,-0.684347,-0.721781,1299.516968,87208.218750,-1.711531,0.779256,4.018677,1.298096,1.875792,31.750000,35.129078,9.837579,15.406831,1298.218872,4.018677,0.619117,-0.234142,-0.510816,0.000962,0.000319,0.000335,0,1,0,0.066045,0,0.290000,0,0,0,202
5896, 101,239858,239858,-2153,0,0,0.055490,-0.738900,9.881468,-0.181299,0.198079,0.104572,62.101723,-23.794212,-51.315403,1.441578,1.441578,16.337879,1.445752,0.453747,-1.053675,92.974072,179.856448,11.851343,0.068714,-0.076952,-0.677612,-0.728148,0.074012,-0.071985,-0.684745,-0.721432,1299.847778,87196.570312,-1.960839,0.776956,4.018677,1.628906,1.836374,31.750000,35.124535,9.909211,16.464586,1298.218872,4.018677,0.621017,-0.237942,-0.513154,0.000962,0.000319,0.000335,0,1,0,0.023871,0,0.290000,0,0,0,202
5897, 101,239909,239906,-2102,0,0,-0.152885,-0.653671,9.836061,0.195872,-0.008975,0.055992,62.028648,-23.735750,-51.198483,0.961052,1.441578,15.857353,1.786174,0.621910,2.308075,93.956239,178.951147,11.813173,0.069020,-0.076864,-0.677938,-0.727824,0.069020,-0.076864,-0.677938,-0.727824,1299.928345,87201.171875,0.370656,0.777701,4.018677,1.709473,1.838668,31.750000,35.124535,9.858942,15.951721,1298.218872,4.018677,0.620286,-0.237357,-0.511985,0.000962,0.000319,0.000335,0,1,0,0.082534,0,0.290000,0,0,0,202
5898, 101,239958,239954,-2053,0,0,0.315977,-0.368656,9.824130,-0.191025,-0.375801,0.026083,61.692490,-23.706518,-51.666183,-0.000000,1.441578,14.415775,0.369258,-2.541764,-1.364587,93.916194,178.870852,11.801376,0.068442,-0.077327,-0.678143,-0.727638,0.068442,-0.077327,-0.678143,-0.727638,1300.091064,87197.593750,3.139471,0.780049,4.018677,1.872192,1.863406,31.750000,35.124535,9.836122,14.487675,1298.218872,4.018677,0.616925,-0.237065,-0.516662,0.000962,0.000319,0.000335,0,1,0,0.019570,0,0.290000,0,0,0,202
5899, 101,240008,240003,-2003,0,0,-0.235029,-0.555589,9.843772,0.263902,-0.006103,0.057706,61.882488,-23.691902,-51.286171,0.480526,1.441578,16.337879,-1.617696,-3.339205,-0.944860,93.477108,179.143800,11.763869,0.069533,-0.075642,-0.681144,-0.724905,0.069533,-0.075642,-0.681144,-0.724905,1300.003174,87203.101562,2.508179,0.780302,4.018677,1.784302,1.884084,31.750000,35.129078,9.862239,16.408392,1298.218872,4.018677,0.618825,-0.236919,-0.512862,0.000962,0.000319,0.000335,0,1,0,0.021219,0,0.290000,0,0,0,202
5900, 101,240059,240051,-1952,0,0,-0.148462,-0.709677,9.818690,0.153690,0.128254,0.042388,61.882488,-23.867290,-51.286171,0.480526,0.961052,15.376827,0.760197,0.347196,0.036304,93.477238,179.103898,11.805268,0.069557,-0.076140,-0.681088,-0.724903,0.069557,-0.076140,-0.681088,-0.724903,1300.005615,87198.617188,1.256128,0.780013,4.018677,1.786743,1.885152,31.750000,35.124535,9.845423,15.414323,1298.218872,4.018677,0.618825,-0.238673,-0.512862,0.000962,0.000319,0.000335,0,1,0,0.043809,0,0.290000,0,0,0,202
5901, 101,240108,240100,-1903,0,0,0.020527,-0.501106,9.835036,0.027964,-0.109672,0.046165,61.882488,-23.691902,-50.847702,-0.000000,0.480526,15.857353,-0.266553,0.620865,0.172462,93.468468,179.122093,11.820309,0.070299,-0.075598,-0.684867,-0.721319,0.069755,-0.076120,-0.681146,-0.724831,1300.056885,87200.148438,0.404462,0.780921,4.018677,1.838013,1.902985,31.750000,35.124535,9.847816,15.864633,1298.218872,4.018677,0.618825,-0.236919,-0.508477,0.000962,0.000319,0.000335,0,1,0,0.055751,0,0.290000,0,0,0,202
5902, 101,241091,241080,-920,0,0,1.083736,1.111158,6.737944,2.390538,1.376332,-3.460646,62.262493,-24.729610,-51.593102,-0.961052,2.402629,14.415775,8.818585,6.655537,-1.187290,65.409983,153.429121,17.601450,-0.110639,-0.248001,-0.790305,-0.549248,-0.110639,-0.248001,-0.790305,-0.549248,1299.844727,87204.312500,0.931907,0.866429,4.018677,1.625854,1.662424,31.875000,35.219975,6.914409,14.646188,1298.218872,4.018677,0.622625,-0.247296,-0.515931,0.000960,0.000320,0.000335,0,1,0,-0.040375,0,0.290000,0,0,0,202
5903, 101,241142,241128,-869,0,0,-1.487592,1.250914,12.044117,6.941250,3.494212,-0.396320,62.657120,-23.969599,-50.935398,0.961052,2.883155,18.259983,2.818881,0.616089,-0.045331,65.377881,153.732668,17.624584,-0.108403,-0.246831,-0.791125,-0.549039,-0.108403,-0.246831,-0.791125,-0.549039,1300.586670,87178.171875,4.173576,0.801958,4.018677,2.367798,1.762130,31.875000,35.201797,12.199937,18.511164,1298.218872,4.018677,0.626571,-0.239696,-0.509354,0.000960,0.000320,0.000335,0,1,0,-1.783368,0,0.290000,0,0,0,202
5904, 101,241192,241176,-819,0,0,-1.085584,-1.825411,17.343929,8.248880,8.234556,3.217086,62.101723,-24.919615,-51.505409,4.324733,3.363681,16.818405,-5.263071,-23.871064,50.827795,65.440309,153.048925,18.910687,0.083449,-0.089620,-0.677787,-0.724989,-0.107036,-0.258656,-0.786350,-0.550721,1301.807251,87169.078125,12.508360,0.775462,4.018677,3.588379,2.078796,31.875000,35.197250,17.473480,17.688313,1298.218872,4.018677,0.621017,-0.249196,-0.515054,0.000961,0.000320,0.000335,0,1,0,-0.092122,0,0.290000,0,0,0,202
5905, 101,241242,241224,-769,0,0,-0.910831,-3.275314,43.105434,1.072603,0.330424,33.423717,61.692490,-24.598070,-53.010815,0.961052,1.922103,68.234673,-2.992797,-0.943525,46.198088,94.072223,178.648106,14.602979,0.085021,-0.095174,-0.674867,-0.726821,0.085021,-0.095174,-0.674867,-0.726821,1301.128662,87204.632812,15.378695,0.856728,4.018677,2.909790,2.313965,31.875000,35.188160,43.239285,68.268501,1298.218872,4.018677,0.616925,-0.245981,-0.530108,0.000961,0.000320,0.000335,0,1,0,14.663178,0,0.290000,0,0,0,202
5906, 101,241292,241273,-719,0,0,-0.555412,1.276774,87.560043,2.918217,-7.596829,77.391159,60.990936,-25.153463,-51.593102,20.662611,-7.207888,100.429901,-14.734637,0.434630,-98.599702,94.240512,178.623585,12.327852,0.070550,-0.081809,-0.675534,-0.729372,0.070550,-0.081809,-0.675534,-0.729372,1300.279541,87205.890625,3.855640,1.818951,4.018677,2.060669,2.338665,31.875000,35.179073,87.571114,102.786491,1298.218872,4.018677,0.609909,-0.251535,-0.515931,0.000961,0.000320,0.000335,0,1,0,53.702141,0,0.290000,0,0,0,202
5907, 101,241342,241321,-669,0,0,-9.054672,-0.936877,143.106018,15.815815,10.345893,96.189827,60.961704,-24.042679,-52.572346,-4.324733,-4.805259,151.365646,-7.733021,-9.607576,30.613263,91.201508,179.932687,13.571581,0.084013,-0.083086,-0.694703,-0.709525,0.084013,-0.083086,-0.694703,-0.709525,1301.016602,87181.679688,-4.123137,4.484512,4.018677,2.797729,2.456436,31.875000,35.165436,143.395248,151.503647,1298.218872,4.018677,0.609617,-0.240427,-0.525723,0.000962,0.000320,0.000335,0,1,0,102.517860,0,0.290000,0,0,0,202
5908, 101,241391,241370,-620,0,0,-10.196671,-5.829818,134.371582,4.884381,-1.129684,141.443939,60.669392,-23.896521,-51.461559,-3.363681,-0.480526,154.729324,-12.143099,3.469435,-33.801097,91.451329,179.775073,13.158384,0.080676,-0.081381,-0.693335,-0.711446,0.080676,-0.081381,-0.693335,-0.711446,1302.806274,87143.664062,9.944737,8.425716,4.587402,4.587402,2.806558,31.875000,35.151802,134.883957,154.766632,1298.218872,4.587402,0.606694,-0.238965,-0.514616,0.000962,0.000321,0.000335,0,1,0,132.099213,0,0.290000,0,0,0,202
5909, 101,241441,241419,-570,0,0,-4.119030,-3.699868,136.179840,5.832179,0.720569,136.223389,59.719379,-24.349606,-54.063141,-0.480526,-1.441578,121.573044,-93.813242,-15.046862,11.062580,92.338461,179.475610,11.919025,0.084794,-0.062648,-0.688083,-0.717933,0.071746,-0.075185,-0.688438,-0.717811,1303.908325,87145.984375,23.634300,13.817379,5.689453,5.689453,3.564799,31.875000,35.160892,136.292343,121.582542,1298.218872,5.689453,0.597194,-0.243496,-0.540631,0.000962,0.000321,0.000335,0,1,0,125.244858,0,0.290000,0,0,0,202
5910, 101,241491,241490,-520,0,0,-2.782344,-1.069088,100.410049,4.519286,-17.397451,89.032028,57.161648,-25.168079,-58.710903,-0.961052,0.961052,89.858337,-196.059515,-13.833603,-68.196420,100.880412,178.866262,10.788290,0.066199,-0.067462,-0.633315,-0.768101,0.066199,-0.067462,-0.633315,-0.768101,1304.685913,87141.492188,30.657921,21.464294,6.467041,6.467041,5.090942,31.875000,35.156349,100.454285,89.868614,1298.218872,6.467041,0.571616,-0.251681,-0.587109,0.000962,0.000321,0.000335,0,1,0,107.488907,0,0.290000,0,0,0,202
5911, 101,241542,241539,-469,0,0,-2.659528,1.718690,84.203842,7.334638,-29.345177,68.846169,52.630814,-28.222742,-60.669392,-0.480526,5.766310,84.092026,-219.342441,-27.618876,-227.886885,109.385029,176.873144,2.994158,0.032053,-0.014718,-0.700789,-0.712496,0.005549,-0.037352,-0.576970,-0.815892,1305.921387,87118.078125,30.067829,25.356955,7.702515,7.702515,6.300092,31.875000,35.151802,84.263359,84.290863,1298.218872,7.702515,0.526308,-0.282227,-0.606694,0.000962,0.000321,0.000335,0,1,0,77.451088,0,0.290000,0,0,0,202
5912, 101,241592,241587,-419,0,0,-5.408044,5.390442,78.083824,3.725869,-17.471130,66.594452,49.429993,-34.697456,-54.720844,-5.766310,6.727362,80.247818,-156.248418,-40.106721,-501.430961,98.154340,-179.745184,-12.855210,-0.083139,0.075000,-0.650735,-0.751004,-0.083139,0.075000,-0.650735,-0.751004,1309.181519,87047.851562,40.018517,28.332233,10.962646,10.962646,7.889704,31.875000,35.156349,78.456276,80.735497,1298.218872,10.962646,0.494300,-0.346975,-0.547208,0.000962,0.000321,0.000335,0,1,0,70.031311,0,0.290000,0,0,0,202
5913, 101,241642,241635,-369,0,0,-9.707076,3.370610,75.503922,3.287551,-23.772785,62.521038,50.803860,-36.860569,-37.123646,-7.688414,2.883155,76.884140,-69.947858,6.560871,-786.917296,101.411247,-178.724399,-41.928458,-0.270291,0.234617,-0.588264,-0.725151,-0.270291,0.234617,-0.588264,-0.725151,1316.481812,86931.296875,81.008911,31.123550,18.262939,18.262939,10.473479,31.875000,35.151802,76.199936,77.321373,1298.218872,18.262939,0.504531,-0.372552,-0.371236,0.000962,0.000321,0.000335,0,1,0,64.410278,0,0.290000,0,0,0,202
5914, 101,241692,241684,-319,0,0,-8.301807,0.132101,70.652802,-6.156876,0.107470,61.070976,52.966969,-17.407190,-22.698042,-0.480526,0.961052,71.598351,-98.966108,97.810734,-1212.583701,83.201840,-174.530171,-85.079241,-0.422087,0.528345,-0.528931,-0.512763,-0.422087,0.528345,-0.528931,-0.512763,1320.409058,86957.398438,122.778000,33.793060,22.190186,22.190186,13.654283,31.875000,35.151802,71.138992,71.606415,1298.218872,22.190186,0.529670,-0.174072,-0.226980,0.000962,0.000321,0.000335,0,1,0,60.504410,0,0.290000,0,0,0,202
5915, 101,241741,241732,-270,0,0,-2.834689,-0.459235,66.857895,-14.725927,10.930346,54.556587,52.981586,14.206372,-35.135925,2.402629,1.922103,70.156776,-191.816587,8.322729,-1553.249604,78.598170,-169.040570,-144.831716,-0.578690,0.752593,-0.175060,-0.260915,-0.578690,0.752593,-0.175060,-0.260915,1319.580688,87002.429688,112.633148,36.255798,22.190186,21.361816,16.284479,31.875000,35.151802,66.919540,70.224213,1298.218872,22.190186,0.529816,0.142064,-0.351359,0.000962,0.000321,0.000335,0,1,0,57.735348,0,0.290000,0,0,0,202
5916, 101,241792,241781,-219,0,0,-3.963375,-1.552246,66.944641,-21.305885,18.926992,50.924046,54.092373,5.261620,-62.934814,0.480526,-1.922103,71.117828,-108.360268,-108.825834,-1671.376359,73.272808,-165.075796,149.848435,-0.676450,0.696924,0.159640,0.176711,-0.598422,0.748102,0.281775,0.053268,1320.647583,86957.156250,67.866211,38.508286,22.428711,22.428711,18.587967,31.875000,35.160892,67.079826,71.145424,1298.218872,22.428711,0.540924,0.052616,-0.629348,0.000962,0.000321,0.000335,0,1,0,52.380436,0,0.290000,0,0,0,202
5917, 101,241842,241828,-169,0,0,-2.404710,-7.070201,66.640411,-4.802527,10.165689,56.307316,57.088573,-25.299622,-56.036247,3.363681,-6.246836,68.715195,-61.083338,-120.719345,-1620.494401,83.757544,178.220987,85.791698,-0.445862,0.514328,0.538338,0.496856,-0.445862,0.514328,0.538338,0.496856,1323.405396,86914.804688,49.437199,40.635044,25.186523,25.186523,21.030386,31.875000,35.156349,67.057549,69.080498,1298.218872,25.186523,0.570886,-0.252996,-0.560362,0.000962,0.000321,0.000335,0,1,0,57.223244,0,0.290000,0,0,0,202
5918, 101,241892,241876,-119,0,0,-0.188167,-6.192765,64.508911,5.409161,16.925535,52.521168,55.086231,-29.596609,-30.473545,4.324733,-3.844207,68.234673,-53.791455,-186.603268,-1452.473058,79.722842,172.723668,28.438411,-0.109901,0.227591,0.732590,0.632009,-0.109901,0.227591,0.732590,0.632009,1325.841309,86894.851562,59.429214,42.903229,27.622437,27.622437,23.531919,31.875000,35.156349,64.805756,68.479568,1298.218872,27.622437,0.550862,-0.295966,-0.304735,0.000962,0.000321,0.000335,0,1,0,54.436157,0,0.290000,0,0,0,202
5919, 101,241942,241925,-69,0,0,-1.417033,-5.987693,63.635380,9.151650,-0.048759,53.472748,49.795380,-4.852383,-20.184156,3.363681,-6.246836,67.273621,3.726169,-194.029938,-1419.652305,94.140333,175.503172,-29.416798,0.211605,-0.145015,0.665569,0.700865,0.211605,-0.145015,0.665569,0.700865,1328.271729,86868.632812,68.526077,45.101772,30.052856,30.052856,26.138277,31.875000,35.160892,63.932167,67.646713,1298.218872,30.052856,0.497954,-0.048524,-0.201842,0.000962,0.000321,0.000335,0,1,0,50.586769,0,0.290000,0,0,0,202
5920, 101,241991,241972,-20,0,0,-0.746882,-7.020391,62.879589,15.579883,-10.207832,50.670097,47.354576,19.833382,-35.910553,3.844207,-4.805259,65.351517,-8.081650,-162.549650,-1421.283792,99.411423,172.149754,-85.404788,0.548598,-0.399197,0.509555,0.529184,0.548598,-0.399197,0.509555,0.529184,1331.642700,86820.773438,75.835762,47.188698,33.423828,33.423828,28.868141,31.875000,35.151802,63.274693,65.640610,1298.218872,33.423828,0.473546,0.198334,-0.359106,0.000962,0.000321,0.000335,0,1,0,52.227970,0,0.290000,0,0,0,202
5921, 101,242011,242262,0,0,0,-2.961115,-6.610069,61.525608,15.125738,16.319508,48.015499,49.693073,20.841860,-47.500729,0.961052,-3.844207,63.429413,-43.634226,-153.650624,-1505.106278,77.252042,171.896136,-40.008301,-0.264882,0.225136,-0.747357,-0.566223,-0.264882,0.225136,-0.747357,-0.566223,1339.609863,86652.218750,82.656723,57.820271,41.390991,41.390991,40.881168,31.875000,34.951824,61.950478,63.553062,1298.218872,41.390991,0.496931,0.208419,-0.475007,0.000984,0.000327,0.000335,0,1,0,48.880852,1,0.290000,0,0,0,202
5922, 101,242535,242530,524,0,0,-2.485640,-8.611420,56.336796,9.609380,-1.776686,46.401070,52.367729,-22.069571,-23.764982,4.805259,-7.688414,61.026783,-58.113217,-162.538818,-1999.835020,84.051939,175.049334,-131.780659,0.623602,-0.665596,0.329548,0.243928,0.623602,-0.665596,0.329548,0.243928,1376.110474,86336.976562,220.862793,69.947159,77.891602,77.891602,66.346893,31.750000,35.124535,57.045330,61.696602,1298.218872,77.891602,0.523677,-0.220696,-0.237650,0.000971,0.000323,0.000335,0,1,0,45.016483,1,0.290000,0,0,0,202
5923, 101,242587,242587,576,0,0,-2.476957,-8.630177,56.320950,-9.784110,3.592222,46.270668,48.889214,21.382637,-42.546040,5.766310,-6.727362,60.546257,-55.863817,-164.213621,-1999.985175,81.873327,-178.020357,135.140716,0.610545,-0.693862,-0.298654,-0.237900,0.610545,-0.693862,-0.298654,-0.237900,1381.220093,86266.500000,187.943512,72.255684,83.001221,83.001221,71.982193,31.750000,35.138168,57.032135,61.191151,1298.218872,83.001221,0.488892,0.213826,-0.425460,0.000970,0.000322,0.000335,0,1,0,47.332500,1,0.290000,0,0,0,202
5924, 101,242639,242617,628,0,0,-0.167417,-8.788537,15.887641,-10.552052,12.689584,38.997204,53.376205,-20.841860,-62.759430,9.129992,-6.727362,-1.441578,-47.640863,-164.572862,-1999.998726,77.993425,-177.923641,86.958676,0.443147,-0.526412,-0.571694,-0.446852,0.443147,-0.526412,-0.571694,-0.446852,1386.680176,86219.687500,169.288254,73.484604,88.461304,88.461304,74.914925,31.750000,35.129078,18.157190,11.432073,1298.218872,88.461304,0.533762,-0.133587,-0.658872,0.000969,0.000322,0.000335,0,1,0,46.305065,1,0.290000,0,0,0,202
5925, 101,242690,242672,679,0,0,0.883978,-9.290621,-4.360538,-1.787826,7.691246,-16.416117,54.720844,-34.317451,-42.180649,10.571568,-7.688414,-7.207888,-15.027145,-169.893115,-1999.999600,74.144606,176.603762,4.014245,-0.002525,-0.045785,-0.796410,-0.603016,-0.002525,-0.045785,-0.796410,-0.603016,1386.777588,86278.265625,151.352814,75.382393,88.558716,88.558716,80.079247,31.750000,35.138168,10.301036,14.927271,1298.218872,88.558716,0.547208,-0.343175,-0.421806,0.000968,0.000322,0.000335,0,1,0,5.174637,1,0.290000,0,0,0,202
5926, 101,242741,242727,730,0,0,4.181001,-9.741755,-13.921096,7.097254,1.914137,-25.680059,48.129200,11.078632,-26.790413,11.532620,-8.649466,-8.168940,13.345271,-179.398907,-2000.000037,78.744882,171.112563,-85.230242,-0.472292,0.485658,-0.600461,-0.424880,-0.472292,0.485658,-0.600461,-0.424880,1387.098267,86270.976562,110.705986,75.236862,88.879395,88.879395,84.542305,31.750000,35.124535,17.497984,16.569435,1298.218872,88.879395,0.481292,0.110786,-0.267904,0.000968,0.000321,0.000335,0,1,0,-23.425774,1,0.290000,0,0,0,202
5927, 101,242792,242781,781,0,0,4.731546,-10.128284,-14.426468,4.329708,-10.721695,-23.921606,49.809998,11.955568,-64.922539,11.052094,-7.688414,-7.688414,47.847517,-175.604136,-2000.000037,85.468998,174.367462,-173.945001,-0.678743,0.730834,-0.072042,0.000241,-0.678743,0.730834,-0.072042,0.000241,1388.737793,86236.187500,68.907898,74.203041,90.518921,90.518921,88.367950,31.750000,35.124535,18.250826,15.503942,1298.218872,90.518921,0.498100,0.119556,-0.649225,0.000967,0.000321,0.000335,0,1,0,-25.189941,1,0.290000,0,0,0,202
5928, 101,242844,242835,833,0,0,4.565696,-9.632717,-14.438868,-7.977506,-8.514051,-23.438671,56.211632,-30.809704,-51.870800,9.129992,-6.727362,-7.207888,47.944817,-182.464488,-1897.299783,82.840557,-178.915617,103.913521,-0.525372,0.586678,0.467026,0.402094,-0.525372,0.586678,0.467026,0.402094,1391.346191,86202.414062,56.153858,73.186584,93.127319,93.127319,91.813873,31.750000,35.124535,17.947582,13.437551,1298.218872,93.127319,0.562116,-0.308097,-0.518708,0.000967,0.000321,0.000335,0,1,0,-23.285360,1,0.290000,0,0,0,202
5929, 101,242896,242890,885,0,0,3.735931,-9.678620,-14.094961,-7.219495,3.881586,-25.264278,50.146156,-10.055539,-20.359545,9.610518,-7.688414,-7.688414,38.668378,-178.481190,-1820.356664,75.557083,179.289051,21.664880,-0.110314,0.152273,0.775571,0.602605,-0.110314,0.152273,0.775571,0.602605,1394.132812,86169.164062,61.714935,72.150558,95.913940,95.913940,95.235046,31.750000,35.124535,17.501451,14.511562,1298.218872,95.913940,0.501462,-0.100555,-0.203595,0.000966,0.000321,0.000335,0,1,0,-24.338820,2,0.290000,0,0,0,202
5930, 101,242947,242944,936,0,0,2.990919,-9.179147,-13.819951,4.211949,3.884587,-25.655426,46.755333,22.902660,-45.293774,7.688414,-6.727362,-6.727362,25.889041,-168.114588,-1790.874180,76.549010,172.293079,-57.392311,0.343035,-0.339586,0.707062,0.516789,0.343035,-0.339586,0.707062,0.516789,1397.252563,86132.203125,68.871185,71.069809,99.033691,99.033691,98.492012,31.750000,35.110897,16.858036,12.232191,1298.218872,99.033691,0.467553,0.229027,-0.452938,0.000966,0.000320,0.000335,0,1,0,-25.916107,2,0.290000,0,0,0,202
5931, 101,242999,242998,988,0,0,2.782279,-8.879878,-13.402915,6.160697,-6.242119,-23.560114,52.294655,-4.077755,-67.947968,7.688414,-5.766310,-6.246836,25.586584,-161.950219,-1787.961022,83.411028,172.112024,-137.179077,0.636668,-0.676702,0.314491,0.194485,0.636668,-0.676702,0.314491,0.194485,1400.491943,86095.367188,74.368523,69.943100,102.273071,102.273071,101.695908,31.750000,35.110897,16.316601,11.462330,1298.218872,102.273071,0.522947,-0.040778,-0.679480,0.000966,0.000320,0.000335,0,1,0,-24.796419,2,0.290000,0,0,0,202
5932, 101,243049,243028,1038,0,0,2.967337,-8.928062,-13.021366,1.666534,-10.031085,-22.380135,55.013157,-32.768196,-35.822861,7.207888,-6.727362,-6.246836,18.812086,-158.770356,-1786.789617,85.271060,175.322787,179.609264,0.676662,-0.735154,0.025132,-0.032327,0.676662,-0.735154,0.025132,-0.032327,1403.743286,86060.195312,78.567307,69.350533,105.524414,105.524414,103.416740,31.750000,35.106354,16.064600,11.671932,1298.218872,105.524414,0.550132,-0.327682,-0.358229,0.000966,0.000320,0.000335,0,1,0,-23.600159,2,0.290000,0,0,0,202
5933, 101,243102,243083,1091,0,0,3.220178,-8.178049,-12.916592,-6.771519,-7.134836,-21.938915,52.396957,-19.467991,-23.034201,7.207888,-5.285784,-6.246836,20.495154,-161.504208,-1764.116340,82.138926,-179.304924,106.478531,0.529056,-0.601596,-0.454383,-0.389511,0.529056,-0.601596,-0.454383,-0.389511,1405.365356,86044.718750,79.596695,68.414490,107.146484,107.146484,106.404953,31.750000,35.110897,15.623327,10.904867,1298.218872,107.146484,0.523970,-0.194680,-0.230342,0.000965,0.000320,0.000335,0,1,0,-21.863316,2,0.290000,0,0,0,202
5934, 101,243154,243137,1143,0,0,2.715224,-7.891879,-12.259195,-6.558734,2.122353,-22.931906,46.097633,22.391113,-39.929848,7.688414,-3.844207,-4.805259,30.117156,-148.291426,-1758.746500,76.061349,179.770456,32.273146,0.169711,-0.220104,-0.756303,-0.592248,0.169711,-0.220104,-0.756303,-0.592248,1408.540527,86009.796875,80.909775,67.500427,110.321655,110.321655,109.446243,31.750000,35.115444,14.830443,9.847850,1298.218872,110.321655,0.460976,0.223911,-0.399298,0.000965,0.000320,0.000335,0,1,0,-22.379797,2,0.290000,0,0,0,202
5935, 101,243205,243191,1194,0,0,2.994990,-7.158583,-12.088307,1.346079,4.016125,-23.526934,50.672318,4.413914,-67.787193,6.727362,-3.363681,-5.285784,25.427058,-156.243897,-1691.981674,75.771257,173.545271,-43.240579,-0.267211,0.258197,-0.745287,-0.553607,-0.267211,0.258197,-0.745287,-0.553607,1411.852905,85975.523438,82.179504,66.516953,113.634033,113.634033,112.600212,31.750000,35.115444,14.364625,9.193001,1298.218872,113.634033,0.506723,0.044139,-0.677872,0.000965,0.000320,0.000335,0,1,0,-23.589588,2,0.290000,0,0,0,202
5936, 101,243256,243246,1245,0,0,3.403001,-8.112466,-11.488573,6.933248,-2.672525,-22.217421,55.773163,-31.920490,-46.726105,8.649466,-5.285784,-4.324733,25.121163,-140.436653,-1666.235248,81.295186,171.334667,-117.729881,-0.585615,0.622135,-0.433309,-0.286788,-0.585615,0.622135,-0.433309,-0.286788,1414.926270,85941.375000,83.123154,65.493401,116.707397,116.707397,115.691994,31.750000,35.110897,14.469963,11.020712,1298.218872,116.707397,0.557732,-0.319205,-0.504677,0.000965,0.000319,0.000335,0,1,0,-22.850603,2,0.290000,0,0,0,202
5937, 101,243308,243298,1297,0,0,2.415618,-6.779111,-11.433592,1.015065,-7.921865,-20.697433,51.432331,-18.605671,-21.499561,6.727362,-4.324733,-3.844207,36.959472,-164.594869,-1622.562800,85.245269,176.548724,174.103926,-0.674824,0.735571,0.017462,0.056940,-0.674824,0.735571,0.017462,0.056940,1417.963745,85921.671875,84.943665,64.578026,119.744873,119.744873,118.640266,31.750000,35.119987,13.509944,8.873480,1298.218872,119.744873,0.514323,-0.186057,-0.214996,0.000965,0.000319,0.000335,0,1,0,-21.567169,2,0.290000,0,0,0,202
5938, 101,243534,243526,1523,0,0,1.953847,-6.080382,-9.879928,4.353414,-4.116852,-19.925270,48.845367,-12.788658,-19.438761,5.285784,-3.844207,-2.883155,35.852609,-153.418166,-1553.327194,84.554662,173.197738,-137.237953,0.641320,-0.673212,0.306431,0.203946,0.641320,-0.673212,0.306431,0.203946,1431.883911,85784.000000,91.637680,60.597157,133.665039,133.665039,132.570847,31.750000,35.192707,11.764419,7.143530,1298.218872,133.665039,0.488454,-0.127887,-0.194388,0.000961,0.000319,0.000335,0,1,0,-20.624023,2,0.290000,0,0,0,202
5939, 101,243586,243581,1575,0,0,2.699502,-6.299974,-9.495626,-0.567957,-7.388728,-18.868967,44.372990,23.326513,-36.597488,7.207888,-2.402629,-1.441578,23.092576,-139.855910,-1537.165874,86.638470,178.768481,153.761219,0.666343,-0.710186,-0.157948,-0.163329,0.666343,-0.710186,-0.157948,-0.163329,1434.545898,85741.007812,87.121246,59.705299,136.327026,136.327026,135.420685,31.750000,35.210884,11.710846,7.733332,1298.218872,136.327026,0.443730,0.233265,-0.365975,0.000962,0.000319,0.000335,0,1,0,-19.151884,2,0.290000,0,0,0,202
5940, 101,243637,243635,1626,0,0,1.769256,-6.191422,-9.242925,-5.834676,-2.775331,-19.028662,48.450745,12.394037,-66.194092,6.246836,-2.883155,-1.441578,25.305847,-144.753661,-1509.645129,81.848261,-177.303638,86.963977,0.463538,-0.508606,-0.558694,-0.462940,0.463538,-0.508606,-0.558694,-0.462940,1438.036011,85702.796875,84.856056,58.885010,139.817139,139.817139,138.327255,31.750000,35.169983,11.264796,7.029487,1298.218872,139.817139,0.484507,0.123940,-0.661941,0.000963,0.000319,0.000335,0,1,0,-18.833162,2,0.290000,0,0,0,202
5941, 101,243689,243665,1678,0,0,2.416505,-6.473378,-9.079699,-5.905313,0.981555,-19.490017,53.843903,-29.172758,-56.693947,6.727362,-3.363681,-1.922103,8.776993,-137.683254,-1499.344221,78.704591,-178.034946,50.442747,0.282151,-0.319615,-0.704076,-0.567904,0.282151,-0.319615,-0.704076,-0.567904,1440.074951,85694.500000,79.931137,58.437778,141.856079,141.856079,139.846268,31.750000,35.156349,11.409866,7.763133,1298.218872,141.856079,0.538439,-0.291728,-0.566939,0.000963,0.000319,0.000335,0,1,0,-19.022329,2,0.290000,0,0,0,202
5942, 101,243741,243719,1730,0,0,1.896034,-5.788800,-8.852022,-1.733272,3.887392,-19.990164,50.906170,-28.135050,-25.285006,6.246836,-2.402629,-0.480526,26.066580,-147.668581,-1471.421205,76.496295,176.616903,-11.950716,-0.087474,0.063544,-0.782632,-0.613023,-0.087474,0.063544,-0.782632,-0.613023,1442.177002,85672.898438,71.238792,57.640305,143.958130,143.958130,142.414154,31.750000,35.142712,10.745392,6.710178,1298.218872,143.958130,0.509062,-0.281350,-0.252850,0.000963,0.000319,0.000335,0,1,0,-19.800703,2,0.290000,0,0,0,202
5943, 101,243793,243774,1782,0,0,1.856985,-5.841502,-8.620830,3.734139,1.768901,-19.538424,46.857643,-5.437007,-18.459515,5.285784,-2.883155,-1.922103,25.884491,-139.117921,-1471.531035,79.498163,171.755639,-72.654491,-0.422340,0.417256,-0.645050,-0.481079,-0.422340,0.417256,-0.645050,-0.481079,1443.326172,85657.148438,65.914719,56.828671,145.107300,145.107300,144.830338,31.750000,35.156349,10.577818,6.320331,1298.218872,145.107300,0.468576,-0.054370,-0.184595,0.000963,0.000319,0.000335,0,1,0,-19.871035,2,0.290000,0,0,0,202
5944, 101,243845,243828,1834,0,0,1.974092,-5.432463,-8.331455,4.039721,-3.239790,-18.519157,43.203743,25.080385,-39.301376,5.766310,-2.402629,0.000000,22.689357,-133.821192,-1447.418390,85.102463,172.196855,-135.418841,-0.643277,0.662590,-0.321351,-0.209530,-0.643277,0.662590,-0.321351,-0.209530,1445.777588,85630.945312,61.861076,55.993591,147.558716,147.558716,147.293777,31.750000,35.142712,10.140110,6.246836,1298.218872,147.558716,0.432037,0.250804,-0.393014,0.000963,0.000319,0.000335,0,1,0,-19.175772,2,0.290000,0,0,0,202
5945, 101,243896,243883,1885,0,0,1.743590,-5.162953,-7.973664,-0.454829,-5.818512,-17.496035,47.193806,11.560947,-69.497223,5.285784,-0.480526,-0.480526,22.750438,-125.168462,-1431.764034,87.295309,177.263435,160.559183,-0.677201,0.715789,0.105893,0.133535,-0.677201,0.715789,0.105893,0.133535,1448.424561,85600.250000,62.646172,55.159615,150.205688,150.205688,149.832382,31.750000,35.142712,9.657925,5.329289,1298.218872,150.205688,0.471938,0.115609,-0.680357,0.000964,0.000319,0.000335,0,1,0,-17.930319,2,0.290000,0,0,0,202
5946, 101,243948,243937,1937,0,0,2.055195,-5.180531,-8.037498,-4.653774,-3.702343,-17.566187,52.090031,-29.143524,-58.082432,4.805259,-2.883155,-1.441578,9.997978,-129.002398,-1410.003816,83.609869,-178.892025,98.699211,-0.510417,0.561323,0.490464,0.428760,-0.510417,0.561323,0.490464,0.428760,1451.465332,85561.125000,67.224098,54.394112,153.246460,153.246460,152.373428,31.750000,35.133625,9.780751,5.786298,1298.218872,153.246460,0.520900,-0.291435,-0.580824,0.000964,0.000319,0.000335,0,1,0,-17.443018,2,0.290000,0,0,0,202
5947, 101,243999,243989,1988,0,0,2.103553,-5.583247,-8.037108,-5.290018,1.188279,-18.215059,50.555397,-31.525867,-27.228880,5.285784,-2.883155,-0.480526,14.211504,-144.043458,-1389.434019,78.301576,179.577845,40.606858,-0.216397,0.271267,0.726493,0.593123,-0.216397,0.271267,0.726493,0.593123,1454.221313,85540.148438,72.741051,53.682194,156.002441,156.002441,154.857788,31.750000,35.133625,10.009629,6.040116,1298.218872,156.002441,0.505554,-0.315259,-0.272289,0.000964,0.000319,0.000335,0,1,0,-17.842831,2,0.290000,0,0,0,202
5948, 101,244051,244041,2040,0,0,1.499115,-5.306448,-7.834646,-0.714231,3.498256,-18.691416,44.022213,3.463899,-18.649517,3.844207,-2.402629,0.000000,24.467244,-139.338618,-1374.807688,76.232923,174.135208,-16.677124,0.129223,-0.082704,0.782001,0.604100,0.129223,-0.082704,0.782001,0.604100,1456.763916,85516.484375,76.059662,52.948040,158.545044,158.545044,157.343262,31.750000,35.138168,9.580574,4.533272,1298.218872,158.545044,0.440222,0.034639,-0.186495,0.000964,0.000319,0.000335,0,1,0,-18.470915,2,0.290000,0,0,0,202
5949, 101,244102,244095,2091,0,0,1.566795,-5.797509,-7.586343,3.946308,1.188641,-18.554991,41.654488,27.199650,-45.571472,5.285784,-2.883155,0.000000,10.205471,-124.831010,-1384.567536,79.623716,170.026139,-77.914488,0.452964,-0.437859,0.630059,0.454014,0.452964,-0.437859,0.630059,0.454014,1459.252930,85487.835938,74.173325,52.150043,161.034058,161.034058,159.885422,31.750000,35.138168,9.675669,6.020972,1298.218872,161.034058,0.416545,0.271996,-0.455715,0.000964,0.000319,0.000335,0,1,0,-18.608480,2,0.290000,0,0,0,202
5950, 101,244153,244150,2142,0,0,1.547344,-4.891714,-7.609448,3.193606,-3.400221,-17.704557,47.252266,2.192341,-71.324173,4.805259,-1.922103,0.480526,9.991768,-138.120509,-1366.224489,85.195627,171.638925,-139.652151,0.652140,-0.672107,0.299507,0.182433,0.652140,-0.672107,0.299507,0.182433,1461.967529,85458.703125,71.709465,51.344597,163.748657,163.748657,162.446152,31.750000,35.119987,9.177519,5.197682,1298.218872,163.748657,0.472523,0.021923,-0.713242,0.000964,0.000319,0.000335,0,1,0,-18.276028,2,0.290000,0,0,0,202
5951, 101,244204,244205,2193,0,0,1.352518,-5.479721,-7.247602,-1.053875,-5.987385,-16.687578,52.309269,-32.198189,-56.021629,5.766310,-1.441578,0.000000,15.200477,-126.789321,-1368.969242,86.878292,177.008273,159.250983,0.672699,-0.717223,-0.113058,-0.142424,0.672699,-0.717223,-0.113058,-0.142424,1464.236572,85438.992188,68.387711,50.558765,166.017700,166.017700,164.944611,31.750000,35.129078,9.186097,5.943777,1298.218872,166.017700,0.523093,-0.321982,-0.560216,0.000964,0.000318,0.000335,0,1,0,-17.112722,2,0.290000,0,0,0,202
5952, 101,244256,244234,2245,0,0,2.104369,-4.616238,-7.267426,-3.128124,-5.323931,-16.616821,49.298450,-29.698917,-25.869629,5.766310,-2.883155,0.000000,9.291136,-138.248903,-1341.266650,85.172022,179.558283,126.711771,0.603560,-0.659243,-0.327841,-0.305997,0.603560,-0.659243,-0.327841,-0.305997,1466.812866,85407.921875,65.846634,50.156456,168.593994,168.593994,166.264572,31.750000,35.124535,8.863042,6.446931,1298.218872,168.593994,0.492985,-0.296989,-0.258696,0.000965,0.000318,0.000335,0,1,0,-16.701349,2,0.290000,0,0,0,202
5953, 101,244308,244289,2297,0,0,1.163116,-4.385975,-6.933944,-4.331383,-1.428235,-16.866869,41.712948,9.865537,-21.558023,4.324733,-1.441578,0.000000,35.251071,-125.669497,-1327.577531,79.720452,-178.873092,71.617450,0.381092,-0.443981,-0.626170,-0.515326,0.381092,-0.443981,-0.626170,-0.515326,1468.988037,85386.812500,63.001896,49.484730,170.769165,170.769165,168.556595,31.750000,35.129078,8.286688,4.558669,1298.218872,170.769165,0.417129,0.098655,-0.215580,0.000964,0.000318,0.000335,0,1,0,-16.702168,2,0.290000,0,0,0,202
5954, 101,244535,244520,2524,0,0,1.732458,-4.201791,-6.264095,1.241111,-4.719604,-15.807690,48.465363,-34.945923,-31.379715,3.844207,-2.402629,0.000000,8.442688,-117.637031,-1240.827571,85.385049,175.973786,179.355563,-0.677489,0.734672,-0.019688,0.029630,-0.677489,0.734672,-0.019688,0.029630,1478.943115,85293.687500,74.322655,46.275398,180.724243,180.724243,179.593643,31.750000,35.215431,7.739208,4.533272,1298.218872,180.724243,0.484654,-0.349459,-0.313797,0.000961,0.000318,0.000335,0,1,0,-16.127607,2,0.290000,0,0,0,202
5955, 101,244586,244576,2575,0,0,1.281892,-3.930144,-6.233848,-2.490721,-3.924476,-15.661455,42.969891,-6.518562,-16.939491,4.805259,-0.480526,0.961052,16.418035,-124.588620,-1219.849711,83.187312,-178.860729,122.691863,-0.586080,0.653083,0.364393,0.311786,-0.586080,0.653083,0.364393,0.311786,1480.768433,85269.156250,67.119728,45.545490,182.549561,182.549561,181.865585,31.750000,35.197250,7.479982,4.923925,1298.218872,182.549561,0.429699,-0.065186,-0.169395,0.000962,0.000318,0.000335,0,1,0,-15.718314,2,0.290000,0,0,0,202
5956, 101,244638,244629,2627,0,0,1.225956,-4.183845,-5.967859,-4.079621,-1.067048,-15.870676,39.155216,26.249636,-36.933647,4.324733,-1.441578,0.480526,20.822207,-116.055542,-1220.762770,78.509398,-177.382595,71.519580,-0.384037,0.440670,0.636639,0.503007,-0.384037,0.440670,0.636639,0.503007,1483.877930,85225.703125,65.316223,44.908062,185.659058,185.659058,184.060745,31.750000,35.179073,7.390728,4.583925,1298.218872,185.659058,0.389798,0.241596,-0.337182,0.000962,0.000318,0.000335,0,1,0,-15.752280,2,0.290000,0,0,0,202
5957, 101,244690,244682,2679,0,0,1.049969,-3.897254,-5.785438,-2.308098,1.696204,-16.247541,41.406021,20.023384,-66.267174,3.363681,-1.922103,0.961052,12.275195,-114.479182,-1204.462114,74.761051,179.715022,19.304994,-0.099846,0.134724,0.783116,0.598840,-0.099846,0.134724,0.783116,0.598840,1485.371826,85238.359375,65.474182,44.243515,187.152954,187.152954,186.252014,31.750000,35.183617,7.054241,3.991548,1298.218872,187.152954,0.414060,0.200234,-0.662672,0.000963,0.000318,0.000335,0,1,0,-16.082642,2,0.290000,0,0,0,202
5958, 101,244741,244737,2730,0,0,0.970576,-3.634542,-5.623710,0.744341,1.952393,-16.236227,47.398422,-13.314821,-71.514175,3.363681,-0.961052,0.480526,7.240209,-107.713087,-1202.895979,74.973006,175.062407,-34.083587,0.210868,-0.207270,0.765634,0.571296,0.210868,-0.207270,0.765634,0.571296,1486.661011,85214.625000,58.204865,43.531467,188.442139,188.442139,188.259171,31.750000,35.156349,6.765946,3.531130,1298.218872,188.442139,0.473984,-0.133148,-0.715142,0.000963,0.000318,0.000335,0,1,0,-16.370529,2,0.290000,0,0,0,202
5959, 101,244791,244767,2780,0,0,1.502433,-2.892798,-5.568327,1.841439,1.574809,-16.179668,49.225372,-38.745983,-45.293774,3.363681,-1.441578,0.480526,10.316220,-117.069524,-1181.641523,76.956786,173.187725,-63.607926,0.366867,-0.380423,0.683611,0.503351,0.366867,-0.380423,0.683611,0.503351,1488.310425,85190.992188,46.327614,43.129433,190.091553,190.091553,189.303787,31.875000,35.142712,6.452275,3.690989,1298.218872,190.091553,0.492254,-0.387460,-0.452938,0.000964,0.000318,0.000335,0,1,0,-16.240578,2,0.290000,0,0,0,202
5960, 101,244844,244822,2833,0,0,1.143736,-3.464799,-5.207360,2.575521,-1.354039,-15.429899,44.577606,-24.261911,-20.432623,5.285784,-0.480526,1.441578,21.050657,-103.694129,-1173.976084,81.932272,172.385218,-115.957611,0.581222,-0.615714,0.436404,0.304349,0.581222,-0.615714,0.436404,0.304349,1489.900879,85175.367188,42.751564,42.415417,191.682007,191.682007,191.135223,31.875000,35.151802,6.358425,5.499870,1298.218872,191.682007,0.445776,-0.242619,-0.204326,0.000964,0.000318,0.000335,0,1,0,-15.902788,2,0.290000,0,0,0,202
5961, 101,244895,244876,2884,0,0,1.243133,-3.412657,-5.192426,1.650179,-3.393482,-14.891588,40.733704,-2.893891,-17.451038,4.324733,-0.961052,0.961052,19.970399,-101.759812,-1163.335742,85.211828,175.014841,-164.510570,0.674456,-0.724656,0.128265,0.059422,0.674456,-0.724656,0.128265,0.059422,1490.916382,85162.070312,42.829071,41.767410,192.697510,192.697510,192.828384,31.875000,35.151802,6.336632,4.533272,1298.218872,192.697510,0.413622,-0.070301,-0.173049,0.000964,0.000318,0.000335,0,1,0,-15.111938,2,0.290000,0,0,0,202
5962, 101,244948,244931,2937,0,0,1.469946,-2.835219,-5.004287,-0.413822,-3.573465,-14.523415,37.591347,24.934229,-34.580532,4.324733,-1.441578,1.922103,18.373282,-102.005214,-1143.584255,85.287022,179.373007,146.139274,0.646893,-0.704771,-0.210659,-0.201123,0.646893,-0.704771,-0.210659,-0.201123,1492.750366,85145.835938,44.238125,41.122093,194.531494,194.531494,194.593033,31.875000,35.147259,5.936505,4.947317,1298.218872,194.531494,0.375913,0.249342,-0.345805,0.000964,0.000318,0.000335,0,1,0,-14.683028,2,0.290000,0,0,0,202
5963, 101,245000,244985,2989,0,0,1.133572,-2.848111,-4.777083,-2.487377,-2.115421,-14.443756,39.973690,23.925753,-62.423271,3.844207,-0.000000,2.883155,25.829627,-99.844860,-1119.096880,82.058528,-177.494364,96.605758,0.501003,-0.553588,-0.512401,-0.424242,0.501003,-0.553588,-0.512401,-0.424242,1494.538452,85127.046875,45.847275,40.477905,196.319580,196.319580,196.371552,31.875000,35.142712,5.676023,4.805259,1298.218872,196.319580,0.399737,0.239258,-0.624233,0.000964,0.000318,0.000335,0,1,0,-14.426994,2,0.290000,0,0,0,202
5964, 101,245051,245040,3040,0,0,0.982626,-3.259556,-4.556520,-2.900408,0.439903,-14.674013,45.103771,-8.301666,-72.434959,2.883155,-0.961052,1.441578,22.077711,-94.215691,-1095.125101,77.903437,-177.775412,47.990924,0.269399,-0.305044,-0.715296,-0.568087,0.269399,-0.305044,-0.715296,-0.568087,1496.268555,85111.187500,46.419388,39.843689,198.049683,198.049683,198.118530,31.875000,35.142712,5.687894,3.363681,1298.218872,198.049683,0.451038,-0.083017,-0.724350,0.000964,0.000318,0.000335,0,1,0,-14.549483,2,0.290000,0,0,0,202
5965, 101,245101,245092,3090,0,0,1.493462,-3.306240,-4.567039,-1.743087,2.019202,-14.987904,49.210758,-34.536686,-56.299328,3.363681,-0.000000,1.441578,7.578961,-99.456557,-1063.317512,75.829402,178.911737,2.861361,0.007852,-0.025530,-0.788499,-0.614455,0.007852,-0.025530,-0.788499,-0.614455,1498.327271,85084.078125,48.511662,39.232422,200.108398,200.108398,199.819885,31.875000,35.142712,5.832623,3.659576,1298.218872,200.108398,0.492108,-0.345367,-0.562993,0.000964,0.000318,0.000335,0,1,0,-14.781072,2,0.290000,0,0,0,202
5966, 101,245152,245147,3141,0,0,1.111051,-2.475894,-4.616757,0.429692,1.458545,-14.935875,46.974571,-36.480560,-31.014324,3.363681,-0.480526,1.441578,16.610327,-116.751989,-1041.204310,77.229168,174.119663,-43.703614,-0.269180,0.260735,-0.736181,-0.563558,-0.269180,0.260735,-0.736181,-0.563558,1500.257568,85068.218750,51.430515,38.576859,202.038696,202.038696,201.632233,31.875000,35.142712,5.355271,3.690989,1298.218872,202.038696,0.469746,-0.364806,-0.310143,0.000964,0.000318,0.000335,0,1,0,-15.100484,2,0.290000,0,0,0,202
5967, 101,245203,245202,3192,0,0,0.989046,-2.871382,-4.504481,2.161099,0.214794,-14.780649,40.660625,-6.635486,-16.603333,2.883155,-0.961052,1.441578,23.750004,-104.277393,-1036.228326,81.147306,171.306609,-90.208781,-0.500065,0.501733,-0.569497,-0.416979,-0.500065,0.501733,-0.569497,-0.416979,1502.248047,85042.265625,52.402954,37.918369,204.029175,204.029175,203.427383,31.875000,35.138168,5.432623,3.363681,1298.218872,204.029175,0.406606,-0.066355,-0.166033,0.000964,0.000318,0.000335,0,1,0,-14.917399,2,0.290000,0,0,0,202
5968, 101,245255,245232,3244,0,0,0.993250,-2.818080,-4.456264,2.325879,-0.862143,-14.657804,36.582870,21.996492,-29.333529,3.363681,-0.000000,1.922103,13.232566,-98.036116,-1023.622419,83.655050,171.415181,-115.845554,-0.593112,0.603116,-0.436908,-0.305909,-0.593112,0.603116,-0.436908,-0.305909,1504.122925,85027.804688,51.078732,37.557446,205.904053,205.904053,204.418030,31.875000,35.142712,5.365297,3.874123,1298.218872,205.904053,0.365829,0.219965,-0.293335,0.000965,0.000318,0.000335,0,1,0,-14.785078,2,0.290000,0,0,0,202
5969, 101,245307,245287,3296,0,0,0.548349,-2.804132,-4.228983,1.212342,-2.508448,-14.153810,37.401344,27.945045,-57.585503,2.883155,-0.961052,1.922103,7.888646,-96.877942,-1026.545194,86.773305,173.992608,-158.452548,-0.681001,0.706215,-0.171023,-0.090820,-0.681001,0.706215,-0.171023,-0.090820,1505.713501,85014.273438,49.020805,36.959858,207.494629,207.494629,206.096451,31.875000,35.133625,5.103738,3.595926,1298.218872,207.494629,0.374013,0.279450,-0.575855,0.000964,0.000317,0.000335,0,1,0,-14.454211,2,0.290000,0,0,0,202
5970, 101,245538,245534,3527,0,0,1.527968,-1.691281,-3.873452,-1.345934,1.102353,-13.944914,41.712948,-18.298744,-18.050278,2.883155,2.402629,1.922103,6.560667,-110.526367,-995.324672,76.511397,175.111816,-15.523644,0.116726,-0.079794,0.780919,0.608419,0.116726,-0.079794,0.780919,0.608419,1513.371582,84938.937500,49.730385,34.062374,215.152710,215.152710,214.417053,31.875000,35.188160,4.494301,4.216597,1298.218872,215.152710,0.417129,-0.182987,-0.180503,0.000962,0.000317,0.000335,0,1,0,-14.112880,2,0.290000,0,0,0,202
5971, 101,245590,245566,3579,0,0,0.482338,-2.087393,-3.535862,-0.218416,1.143733,-13.947760,36.232098,15.887168,-22.654196,2.883155,-0.000000,2.883155,38.696847,-95.370150,-987.178934,77.375224,172.325400,-41.250828,0.268583,-0.235192,0.743632,0.565296,0.268583,-0.235192,0.743632,0.565296,1514.936890,84908.984375,49.052170,33.698101,216.718018,216.718018,215.325760,31.875000,35.197250,4.134269,4.077397,1298.218872,216.718018,0.362321,0.158872,-0.226542,0.000963,0.000317,0.000335,0,1,0,-13.950355,2,0.290000,0,0,0,202
5972, 101,245642,245620,3631,0,0,0.955691,-2.688392,-3.296012,1.785942,0.362324,-13.694026,33.323589,31.569715,-46.170712,2.883155,0.961052,2.883155,21.771117,-68.710638,-976.765792,79.734419,169.265967,-82.750590,0.475715,-0.460114,0.613059,0.431450,0.475715,-0.460114,0.613059,0.431450,1517.492554,84877.968750,50.395111,33.128189,219.273682,219.273682,216.902924,31.875000,35.174526,4.359414,4.189127,1298.218872,219.273682,0.333236,0.315697,-0.461707,0.000963,0.000317,0.000335,0,1,0,-13.768194,2,0.290000,0,0,0,202
5973, 101,245693,245675,3682,0,0,1.125378,-2.389333,-3.331853,1.954450,-0.831994,-13.484008,35.048233,27.579657,-62.262493,3.363681,-0.000000,2.402629,9.419607,-75.165638,-960.459780,82.697588,169.326236,-122.991449,0.611364,-0.627519,0.410699,0.252547,0.611364,-0.627519,0.410699,0.252547,1517.770752,84899.828125,49.012356,32.583076,219.551880,219.551880,218.524307,31.875000,35.179073,4.251662,4.133640,1298.218872,219.551880,0.350482,0.275797,-0.622625,0.000963,0.000317,0.000335,0,1,0,-13.594410,2,0.290000,0,0,0,202
5974, 101,245745,245729,3734,0,0,0.917329,-1.836873,-3.323607,0.911526,-1.801500,-13.145499,39.315990,4.676995,-75.036537,2.883155,-0.000000,2.883155,12.176968,-87.410931,-937.861143,85.227442,172.065019,-164.170536,0.676007,-0.720727,0.147494,0.042572,0.676007,-0.720727,0.147494,0.042572,1518.329712,84894.476562,43.895966,32.001728,220.110840,220.110840,219.993713,31.875000,35.169983,3.906656,4.077397,1298.218872,220.110840,0.393160,0.046770,-0.750365,0.000963,0.000317,0.000335,0,1,0,-13.366082,2,0.290000,0,0,0,202
5975, 101,245796,245784,3785,0,0,0.598031,-2.132273,-3.279222,-0.625192,-2.418355,-12.869912,43.832214,-25.021923,-68.225662,0.961052,-0.000000,2.883155,15.785097,-83.536287,-931.122315,85.686800,175.794097,154.302074,0.656540,-0.719923,-0.138616,-0.177349,0.656540,-0.719923,-0.138616,-0.177349,1519.171509,84881.460938,32.499508,31.408552,220.952637,220.952637,221.339096,31.875000,35.160892,3.956959,3.039112,1298.218872,220.952637,0.438322,-0.250219,-0.682257,0.000964,0.000317,0.000335,0,1,0,-12.980019,2,0.290000,0,0,0,202
5976, 101,245847,245837,3836,0,0,0.851767,-2.243933,-3.193874,-1.755732,-2.069253,-12.733093,45.454548,-40.441391,-43.832214,2.883155,0.480526,3.363681,3.944906,-82.269820,-924.436707,83.551054,178.395744,115.224444,0.556932,-0.634686,-0.391549,-0.365636,0.556932,-0.634686,-0.391549,-0.365636,1520.444580,84863.554688,28.454363,30.856817,222.225708,222.225708,222.578049,31.875000,35.160892,3.995194,4.456213,1298.218872,222.225708,0.451330,-0.404414,-0.438322,0.000964,0.000317,0.000335,0,1,0,-12.785914,2,0.290000,0,0,0,202
5977, 101,245899,245891,3888,0,0,0.831362,-1.663092,-3.206003,-1.874997,-0.939655,-12.856639,41.596024,-29.348145,-22.493423,1.441578,0.480526,2.883155,9.288175,-90.511317,-909.033155,79.726011,179.014928,75.220395,0.385924,-0.472790,-0.604677,-0.511760,0.385924,-0.472790,-0.604677,-0.511760,1521.839233,84848.343750,31.024487,30.293198,223.620361,223.620361,223.861694,31.875000,35.156349,3.706143,3.259085,1298.218872,223.620361,0.415960,-0.293481,-0.224934,0.000964,0.000317,0.000335,0,1,0,-12.720088,2,0.290000,0,0,0,202
5978, 101,245951,245946,3940,0,0,0.697692,-1.665219,-2.979729,-1.642825,0.230546,-12.864738,36.568253,-2.455422,-16.501022,2.402629,-0.000000,3.844207,28.657343,-82.295993,-899.296420,75.994051,177.726590,34.951277,0.169923,-0.248252,-0.747855,-0.591785,0.169923,-0.248252,-0.747855,-0.591785,1523.119385,84835.046875,33.415405,29.717222,224.900513,224.900513,225.145050,31.875000,35.156349,3.484037,4.533272,1298.218872,224.900513,0.365683,-0.024554,-0.165010,0.000964,0.000317,0.000335,0,1,0,-12.880231,2,0.290000,0,0,0,202
5979, 101,246002,246001,3991,0,0,0.666555,-1.850139,-2.908682,-0.760489,1.035454,-13.068604,31.175095,25.767321,-31.145864,1.441578,0.480526,3.363681,26.806462,-71.527981,-888.008685,73.921655,174.972904,-4.855455,-0.060456,0.007469,-0.798678,-0.598667,-0.060456,0.007469,-0.798678,-0.598667,1524.341919,84825.750000,33.475052,29.137793,226.123047,226.123047,226.404968,31.875000,35.142712,3.511088,3.690989,1298.218872,226.123047,0.311751,0.257673,-0.311459,0.000964,0.000317,0.000335,0,1,0,-12.968156,2,0.290000,0,0,0,202
5980, 101,246053,246031,4042,0,0,0.786939,-1.947129,-2.744710,0.001943,1.189126,-13.081614,31.467407,32.125111,-54.633148,1.441578,-0.000000,3.844207,9.382033,-63.235640,-868.622368,73.833361,173.305340,-26.038257,-0.180564,0.145634,-0.785530,-0.573698,-0.180564,0.145634,-0.785530,-0.573698,1525.574707,84809.375000,32.461205,28.821417,227.355835,227.355835,227.066864,31.750000,35.142712,3.456012,4.105615,1298.218872,227.355835,0.314674,0.321251,-0.546331,0.000965,0.000317,0.000335,0,1,0,-13.065350,2,0.290000,0,0,0,202
5981, 101,246106,246086,4095,0,0,0.775549,-1.691788,-2.773294,0.921447,0.809681,-13.039180,35.428238,14.337913,-74.159607,1.922103,-0.000000,3.844207,0.767476,-75.031950,-847.594565,75.477818,171.283482,-61.770332,-0.364850,0.364846,-0.700583,-0.492905,-0.364850,0.364846,-0.700583,-0.492905,1526.805908,84798.359375,31.708302,28.279440,228.587036,228.587036,228.195999,31.750000,35.151802,3.339878,4.297954,1298.218872,228.587036,0.354282,0.143379,-0.741596,0.000964,0.000317,0.000335,0,1,0,-13.047494,2,0.290000,0,0,0,202
5982, 101,246156,246141,4145,0,0,0.653006,-1.686100,-2.747657,1.279445,-0.151608,-12.827385,37.795967,0.380006,-76.644257,1.441578,0.961052,2.883155,4.810461,-81.966969,-843.725072,78.618865,170.602348,-96.806143,-0.514246,0.542228,-0.550756,-0.371764,-0.514246,0.542228,-0.550756,-0.371764,1527.286621,84795.796875,31.121529,27.744150,229.067749,229.067749,229.299347,31.750000,35.151802,3.289221,3.363681,1298.218872,229.067749,0.377960,0.003800,-0.766443,0.000964,0.000317,0.000335,0,1,0,-12.952975,2,0.290000,0,0,0,202
5983, 101,246209,246195,4198,0,0,0.400876,-1.897874,-2.658217,1.243657,-1.429682,-12.491366,41.727562,-29.786613,-66.486404,2.402629,-0.000000,3.363681,7.788635,-77.792754,-838.297148,81.867740,171.777017,-134.164750,-0.623010,0.675751,-0.336694,-0.204589,-0.623010,0.675751,-0.336694,-0.204589,1528.486450,84780.960938,30.673004,27.175200,230.267578,230.267578,230.460571,31.750000,35.151802,3.290705,4.133640,1298.218872,230.267578,0.417276,-0.297866,-0.664864,0.000964,0.000316,0.000335,0,1,0,-12.680825,2,0.290000,0,0,0,202
5984, 101,246259,246249,4248,0,0,0.708222,-1.971135,-2.559965,0.764999,-2.116277,-12.225153,41.712948,-41.902954,-45.542240,2.883155,-0.480526,2.883155,5.699909,-80.647151,-841.976981,83.644102,174.608855,-170.933503,-0.666768,0.739587,-0.090097,-0.017708,-0.666768,0.739587,-0.090097,-0.017708,1529.674316,84769.195312,30.596447,26.627726,231.455444,231.455444,231.594116,31.750000,35.151802,3.307623,4.105615,1298.218872,231.455444,0.417129,-0.419030,-0.455422,0.000964,0.000316,0.000335,0,1,0,-12.327113,2,0.290000,0,0,0,202
5985, 101,246310,246301,4299,0,0,1.062804,-1.664786,-2.593458,0.168344,-2.249693,-12.154217,38.658287,-33.206665,-24.758842,4.324733,-0.000000,3.363681,5.318803,-89.799584,-814.050960,83.276719,178.112004,154.832274,-0.645695,0.731687,0.152119,0.156755,-0.645695,0.731687,0.152119,0.156755,1530.822266,84756.265625,31.294228,26.114557,232.603394,232.603394,232.671524,31.750000,35.156349,3.259922,5.478838,1298.218872,232.603394,0.386583,-0.332067,-0.247588,0.000964,0.000316,0.000335,0,1,0,-12.180202,2,0.290000,0,0,0,202
5986, 101,246540,246536,4529,0,0,0.608727,-1.401059,-2.162997,-0.569116,0.699238,-12.290829,28.865829,25.197309,-71.119553,0.961052,1.922103,3.844207,3.532925,-66.425454,-730.060943,72.758986,-179.243261,-0.448750,-0.002994,-0.007070,0.805067,0.593134,-0.002994,-0.007070,0.805067,0.593134,1535.416382,84715.273438,29.658010,23.655470,237.197510,237.197510,237.571289,31.750000,35.224522,2.648032,4.404092,1298.218872,237.197510,0.288658,0.251973,-0.711196,0.000962,0.000316,0.000335,0,1,0,-12.287615,2,0.290000,0,0,0,202
5987, 101,246591,246567,4580,0,0,0.343493,-1.268156,-2.086104,0.331222,0.603150,-12.168391,33.440514,3.317743,-79.377380,0.961052,0.480526,4.324733,2.322663,-69.533942,-725.489306,73.623770,177.671798,-33.628836,0.188863,-0.219893,0.769742,0.568749,0.188863,-0.219893,0.769742,0.568749,1536.629150,84688.070312,27.061504,23.088438,238.410278,238.410278,238.559280,31.750000,35.210884,2.465368,4.456213,1298.218872,238.410278,0.334405,0.033177,-0.793774,0.000962,0.000316,0.000335,0,1,0,-12.235119,2,0.290000,0,0,0,202
5988, 101,246643,246622,4632,0,0,0.165564,-1.540880,-1.985663,0.748549,0.434932,-12.072714,36.685181,-21.470331,-73.969597,1.441578,-0.000000,5.285784,-1.799078,-70.384526,-721.825538,74.715603,176.466939,-50.829622,0.282424,-0.324072,0.725625,0.537292,0.282424,-0.324072,0.725625,0.537292,1538.510376,84671.609375,31.075417,22.800041,240.291504,240.291504,239.143295,31.750000,35.197250,2.518845,5.478837,1298.218872,240.291504,0.366852,-0.214703,-0.739696,0.000963,0.000316,0.000335,0,1,0,-12.170552,2,0.290000,0,0,0,202
5989, 101,246696,246676,4685,0,0,0.265873,-1.646862,-1.948232,1.420735,0.064790,-11.935424,37.693657,-34.185909,-64.323303,1.441578,-0.000000,4.324733,-4.111610,-70.728692,-715.842675,77.392607,175.400692,-80.678666,0.428240,-0.485681,0.610653,0.455881,0.428240,-0.485681,0.610653,0.455881,1538.638916,84686.218750,31.810978,22.305929,240.420044,240.420044,240.167526,31.750000,35.188160,2.564849,4.558669,1298.218872,240.420044,0.376937,-0.341859,-0.643233,0.000963,0.000316,0.000335,0,1,0,-12.012433,2,0.290000,0,0,0,202
5990, 101,246747,246731,4736,0,0,0.301273,-1.647669,-1.999199,1.507148,-0.658474,-11.825176,37.182110,-42.852966,-44.899155,1.922103,-0.000000,4.805259,-11.711211,-75.490987,-705.478601,80.447334,176.141713,-111.146719,0.546896,-0.617151,0.449349,0.343680,0.546896,-0.617151,0.449349,0.343680,1538.639160,84686.500000,27.762089,21.789890,240.420288,240.420288,241.010834,31.750000,35.179073,2.608136,5.175422,1298.218872,240.420288,0.371821,-0.428530,-0.448992,0.000963,0.000316,0.000335,0,1,0,-11.906728,2,0.290000,0,0,0,202
5991, 101,246799,246785,4788,0,0,0.295711,-1.563371,-1.954511,1.151391,-1.282719,-11.639646,33.265125,-33.922829,-24.524992,0.961052,0.480526,3.844207,-10.814317,-86.021704,-693.637074,83.093028,178.775939,-142.115282,0.629870,-0.705547,0.249636,0.207721,0.629870,-0.705547,0.249636,0.207721,1539.174438,84676.046875,18.039690,21.253271,240.955566,240.955566,241.789780,31.750000,35.169983,2.520256,3.991548,1298.218872,240.955566,0.332651,-0.339228,-0.245250,0.000963,0.000316,0.000335,0,1,0,-11.745757,2,0.290000,0,0,0,202
5992, 101,246849,246839,4838,0,0,0.241712,-1.087577,-1.868935,0.475779,-1.217421,-11.540450,29.523531,-14.367144,-14.747150,1.922103,2.402629,4.324733,-3.323214,-89.063044,-687.379255,84.364174,-177.594836,-171.616358,0.668408,-0.739900,0.040098,0.064583,0.668408,-0.739900,0.040098,0.064583,1539.771973,84670.414062,14.607512,20.740158,241.553101,241.553101,242.491592,31.750000,35.169983,2.175814,5.307581,1298.218872,241.553101,0.295235,-0.143671,-0.147472,0.000964,0.000316,0.000335,0,1,0,-11.639949,2,0.290000,0,0,0,202
5993, 101,246900,246891,4889,0,0,-0.000269,-1.025347,-1.605811,-0.193494,-1.112898,-11.335270,25.328850,9.660917,-17.114880,0.480526,1.441578,4.805259,15.362521,-76.657419,-682.396496,84.502411,-174.183348,159.574980,0.667536,-0.721490,-0.164644,-0.082098,0.667536,-0.721490,-0.164644,-0.082098,1540.265259,84666.328125,14.796080,20.237965,242.046387,242.046387,243.128571,31.750000,35.169983,1.905247,5.039798,1298.218872,242.046387,0.253289,0.096609,-0.171149,0.000964,0.000316,0.000335,0,1,0,-11.444443,2,0.290000,0,0,0,202
5994, 101,246951,246947,4940,0,0,-0.035522,-1.283817,-1.438630,-0.796954,-0.957557,-11.273092,21.967260,31.072786,-32.636658,0.480526,0.480526,4.324733,13.111744,-56.474903,-671.208482,83.416363,-171.585676,129.120027,0.622731,-0.651371,-0.363903,-0.235578,0.622731,-0.651371,-0.363903,-0.235578,1540.975220,84656.093750,15.625857,19.711849,242.756348,242.756348,243.795273,31.750000,35.169983,1.928499,4.377799,1298.218872,242.756348,0.219380,0.291289,-0.309559,0.000964,0.000316,0.000335,0,1,0,-11.296029,2,0.290000,0,0,0,202
5995, 101,247003,247002,4992,0,0,0.207376,-1.228743,-1.400355,-0.935003,-0.633901,-11.296910,22.040339,36.875183,-52.192341,0.480526,0.480526,3.844207,-4.104284,-48.755461,-654.010175,81.484314,-170.643944,99.405863,0.536087,-0.541514,-0.528978,-0.373571,0.536087,-0.541514,-0.528978,-0.373571,1541.689331,84649.218750,16.541920,19.193455,243.470459,243.470459,244.448868,31.750000,35.160892,1.874516,3.903811,1298.218872,243.470459,0.220403,0.368752,-0.521923,0.000964,0.000316,0.000335,0,1,0,-11.301953,2,0.290000,0,0,0,202
5996, 101,247055,247032,5044,0,0,0.226019,-1.025985,-1.487515,-0.884026,-0.416235,-11.362897,23.940369,28.544287,-69.731071,0.961052,0.961052,4.324733,-11.724225,-53.086986,-647.541986,80.343017,-170.865624,83.380436,0.473117,-0.468245,-0.602958,-0.439715,0.473117,-0.468245,-0.602958,-0.439715,1542.454224,84641.546875,17.770807,18.911663,244.235352,244.235352,244.815384,31.750000,35.160892,1.821107,4.533272,1298.218872,244.235352,0.239404,0.285443,-0.697311,0.000964,0.000316,0.000335,0,1,0,-11.297074,2,0.290000,0,0,0,202
5997, 101,247107,247087,5096,0,0,0.110946,-0.905970,-1.456241,-0.650465,0.091337,-11.429774,26.848873,6.620871,-81.087402,2.402629,1.441578,4.805259,-8.848387,-56.963259,-644.143338,78.400586,-172.046304,56.085214,0.343856,-0.324757,-0.702922,-0.531221,0.343856,-0.324757,-0.702922,-0.531221,1543.095459,84633.132812,17.735039,18.426105,244.876587,244.876587,245.402618,31.750000,35.151802,1.718642,5.562489,1298.218872,244.876587,0.268489,0.066209,-0.810874,0.000964,0.000316,0.000335,0,1,0,-11.423215,2,0.290000,0,0,0,202
5998, 101,247160,247142,5149,0,0,0.072502,-0.954594,-1.499792,-0.374402,0.428385,-11.486880,28.441978,-4.676995,-80.824318,-0.000000,-0.000000,3.844207,-9.080494,-56.072100,-642.685448,77.099421,-173.970041,29.625836,0.198875,-0.167981,-0.763410,-0.591132,0.198875,-0.167981,-0.763410,-0.591132,1543.395020,84632.617188,17.550854,17.947861,245.176147,245.176147,245.975266,31.750000,35.151802,1.779293,3.844207,1298.218872,245.176147,0.284420,-0.046770,-0.812189,0.000964,0.000316,0.000335,0,1,0,-11.422384,2,0.290000,0,0,0,202
5999, 101,247212,247196,5201,0,0,0.072493,-1.090006,-1.450508,-0.022289,0.724851,-11.465763,31.540485,-28.558901,-72.244957,0.961052,-0.000000,4.324733,-9.259886,-58.370141,-628.772680,76.773382,-176.412721,2.146490,0.036155,0.004758,-0.783680,-0.620093,0.036155,0.004758,-0.783680,-0.620093,1543.960449,84628.242188,16.756042,17.439772,245.741577,245.741577,246.570068,31.750000,35.160892,1.815858,4.430230,1298.218872,245.741577,0.315405,-0.285589,-0.722450,0.000964,0.000316,0.000335,0,1,0,-11.499393,2,0.290000,0,0,0,202
6000, 101,247264,247250,5253,0,0,0.088984,-1.123310,-1.432799,0.425521,0.732261,-11.415119,31.569715,-42.005260,-57.117802,-0.000000,-0.000000,4.324733,-14.813309,-57.876257,-614.403711,77.856623,-178.765967,-25.036379,-0.128008,0.175212,-0.757928,-0.615190,-0.128008,0.175212,-0.757928,-0.615190,1544.482544,84622.984375,15.984857,16.922522,246.263672,246.263672,247.141556,31.750000,35.165436,1.822815,4.324733,1298.218872,246.263672,0.315697,-0.420053,-0.571178,0.000964,0.000316,0.000335,0,1,0,-11.455878,2,0.290000,0,0,0,202
6001, 101,247315,247304,5304,0,0,0.098010,-0.993568,-1.384947,0.700239,0.449227,-11.291880,26.278866,-42.399883,-35.618240,0.480526,1.922103,4.805259,-15.824119,-65.842061,-605.542879,80.092048,179.480952,-51.191940,-0.281089,0.328093,-0.691653,-0.578757,-0.281089,0.328093,-0.691653,-0.578757,1544.902100,84619.914062,14.600042,16.416933,246.683228,246.683228,247.657471,31.750000,35.165436,1.707297,5.197682,1298.218872,246.683228,0.300205,-0.428237,-0.380444,0.000964,0.000316,0.000335,0,1,0,-11.343626,2,0.290000,0,0,0,202
6002, 101,247543,247519,5532,0,0,-0.157528,-0.915657,-1.052552,0.120473,-0.844795,-10.895135,15.887168,34.843613,-37.050568,-0.000000,0.480526,3.844207,7.552740,-32.336417,-558.949460,90.927228,-179.328297,-159.800991,-0.701027,0.691215,-0.118874,-0.129042,-0.701027,0.691215,-0.118874,-0.129042,1547.761230,84587.000000,18.756493,14.297455,249.542358,249.542358,249.691849,31.875000,35.219975,1.403962,3.874123,1298.218872,249.542358,0.158872,0.348436,-0.370506,0.000962,0.000315,0.000335,0,1,0,-10.956065,2,0.290000,0,0,0,202
6003, 101,247594,247576,5583,0,0,-0.075415,-0.930349,-1.092089,-0.104746,-0.899406,-10.916344,15.594855,37.839813,-45.615318,1.922103,0.961052,4.324733,-2.946739,-25.629146,-552.542797,91.210394,-178.127959,175.977188,-0.714402,0.698664,0.036217,0.013654,-0.714402,0.698664,0.036217,0.013654,1547.992676,84586.492188,18.674257,13.815651,249.773804,249.773804,250.214066,31.875000,35.219975,1.436627,4.829225,1298.218872,249.773804,0.155949,0.378398,-0.456153,0.000962,0.000315,0.000335,0,1,0,-10.874702,2,0.290000,0,0,0,202
6004, 101,247647,247630,5636,0,0,0.024185,-0.641035,-1.103989,-0.218761,-0.573439,-10.920650,16.223326,35.618240,-64.206375,1.441578,0.480526,4.324733,-16.220772,-33.511920,-550.179224,90.284500,-177.037438,152.337438,-0.692435,0.680287,0.186360,0.151701,-0.692435,0.680287,0.186360,0.151701,1549.876709,84554.031250,23.262272,13.355369,251.657837,251.657837,250.912750,31.875000,35.210884,1.276833,4.583925,1298.218872,251.657837,0.162233,0.356182,-0.642064,0.000963,0.000315,0.000335,0,1,0,-10.912608,2,0.290000,0,0,0,202
6005, 101,247698,247685,5687,0,0,-0.075556,-0.536057,-1.089976,-0.397025,-0.297299,-10.912350,17.831043,22.698042,-77.901199,1.441578,1.441578,5.766310,-18.035815,-39.027182,-547.792592,88.625919,-176.271664,128.008906,-0.637771,0.632842,0.333880,0.285104,-0.637771,0.632842,0.333880,0.285104,1550.023804,84581.062500,25.504623,12.881110,252.219849,251.804932,251.608505,31.875000,35.197250,1.217010,6.116096,1298.218872,252.219849,0.178310,0.226980,-0.779012,0.000963,0.000315,0.000335,0,1,0,-10.939874,2,0.290000,0,0,0,202
6006, 101,247749,247739,5738,0,0,-0.240904,-0.679159,-1.081475,-0.643509,0.003584,-10.930054,19.994154,1.710026,-82.885124,0.961052,0.480526,5.766310,-15.782592,-38.997173,-542.375487,86.794212,-176.161193,104.217765,-0.556849,0.558970,0.464167,0.402518,-0.556849,0.558970,0.464167,0.402518,1549.596802,84581.210938,18.393476,12.398904,252.219849,251.377930,252.058853,31.875000,35.192707,1.299569,5.865565,1298.218872,252.219849,0.199942,0.043408,-0.833382,0.000963,0.000315,0.000335,0,1,0,-10.935993,2,0.290000,0,0,0,202
6007, 101,247801,247792,5790,0,0,-0.306970,-0.856554,-1.031335,-0.746282,0.339610,-10.905217,21.236481,-18.094124,-79.947380,-0.000000,0.480526,4.805259,-22.419365,-36.160890,-530.815091,85.231281,-176.978548,81.498077,-0.456505,0.466674,0.568968,0.500094,-0.456505,0.466674,0.568968,0.500094,1549.721436,84574.101562,6.884615,11.924708,252.219849,251.502563,252.399033,31.875000,35.174526,1.375343,4.829225,1298.218872,252.219849,0.212365,-0.180941,-0.799474,0.000963,0.000315,0.000335,0,1,0,-10.892383,2,0.290000,0,0,0,202
6008, 101,247852,247847,5841,0,0,-0.271184,-0.987561,-1.139751,-0.676620,0.625875,-11.025057,22.639578,-33.835136,-70.271851,0.961052,0.480526,4.805259,-35.514859,-40.971207,-514.750541,84.097216,-178.879676,58.400242,-0.333072,0.356542,0.651375,0.581079,-0.333072,0.356542,0.651375,0.581079,1549.889160,84570.156250,3.141967,11.426627,252.219849,251.670288,252.701279,31.875000,35.169983,1.532269,4.923925,1298.218872,252.219849,0.226396,-0.338351,-0.702718,0.000964,0.000315,0.000335,0,1,0,-10.974488,2,0.290000,0,0,0,202
6009, 101,247904,247901,5893,0,0,-0.189023,-0.773695,-1.189732,-0.341208,0.602692,-11.054050,21.368021,-43.013741,-55.714703,0.480526,1.441578,5.285784,-42.950238,-53.770726,-499.121428,83.759552,178.296761,36.322065,-0.197536,0.241469,0.704286,0.637693,-0.197536,0.241469,0.704286,0.637693,1550.053223,84568.906250,3.502661,10.927603,252.219849,251.834351,252.956512,31.875000,35.160892,1.431711,5.499870,1298.218872,252.219849,0.213680,-0.430137,-0.557147,0.000964,0.000315,0.000335,0,1,0,-11.041737,2,0.290000,0,0,0,202
6010, 101,247955,247932,5944,0,0,-0.245585,-0.605115,-1.232444,-0.208256,0.542559,-11.053668,19.760305,-43.612976,-38.585209,0.480526,2.402629,5.285784,-35.246850,-60.683847,-502.197582,83.922773,176.532987,23.922857,-0.116506,0.173829,0.722925,0.658475,-0.116506,0.173829,0.722925,0.658475,1550.241699,84566.859375,4.050052,10.645833,252.219849,252.022827,253.100601,31.875000,35.160892,1.394773,5.826066,1298.218872,252.219849,0.197603,-0.436130,-0.385852,0.000964,0.000315,0.000335,0,1,0,-11.053652,2,0.290000,0,0,0,202
6011, 101,248006,247986,5995,0,0,-0.424846,-0.430253,-1.133716,0.139716,0.418339,-11.049117,17.611809,-34.814381,-24.817305,-0.000000,0.480526,4.805259,-23.632803,-56.953109,-504.778246,84.679401,173.680400,2.008600,0.028950,0.050056,0.737277,0.673112,0.028950,0.050056,0.737277,0.673112,1550.193604,84569.414062,3.308301,10.146966,252.219849,251.974731,253.289932,31.875000,35.160892,1.284883,4.829225,1298.218872,252.219849,0.176118,-0.348144,-0.248173,0.000964,0.000315,0.000335,0,1,0,-11.094555,2,0.290000,0,0,0,202
6012, 101,248058,248041,6047,0,0,-0.491481,-0.467963,-1.055097,0.456366,0.199099,-10.952461,15.770243,-25.591930,-18.883368,-0.000000,0.961052,4.805259,-15.823018,-50.155790,-504.913484,85.796021,171.614800,-18.952067,0.164593,-0.071197,0.728830,0.660793,0.164593,-0.071197,0.728830,0.660793,1550.359009,84563.507812,3.186480,9.671931,252.219849,252.140137,253.416397,31.875000,35.169983,1.254501,4.900422,1298.218872,252.219849,0.157702,-0.255919,-0.188834,0.000964,0.000315,0.000335,0,1,0,-11.015018,2,0.290000,0,0,0,202
6013, 101,248109,248095,6098,0,0,-0.451502,-0.538883,-0.967719,0.523217,0.049659,-10.875481,13.607132,-7.176264,-14.162525,-0.000000,1.441578,5.285784,-11.020312,-35.985931,-509.536210,87.123967,170.345055,-41.575546,0.300725,-0.202044,0.695637,0.620349,0.300725,-0.202044,0.695637,0.620349,1550.488892,84563.132812,2.615886,9.169189,252.270020,252.270020,253.550919,31.875000,35.165436,1.196131,5.478837,1298.218872,252.270020,0.136071,-0.071763,-0.141625,0.000964,0.000315,0.000335,0,1,0,-10.911730,2,0.290000,0,0,0,202
6014, 101,248160,248149,6149,0,0,-0.285499,-0.524149,-0.967699,0.422084,-0.056546,-10.855197,11.020169,14.045601,-18.254896,0.480526,0.961052,4.805259,-13.382343,-24.340207,-509.572875,88.372102,170.158126,-63.975240,0.420032,-0.327753,0.637631,0.556397,0.420032,-0.327753,0.637631,0.556397,1550.730957,84560.070312,3.665979,8.677921,252.512085,252.512085,253.679947,31.875000,35.165436,1.136962,4.923925,1298.218872,252.512085,0.110202,0.140456,-0.182549,0.000964,0.000315,0.000335,0,1,0,-10.846561,2,0.290000,0,0,0,202
6015, 101,248212,248202,6201,0,0,-0.160445,-0.137376,-1.049955,-0.024567,-0.158897,-10.859853,9.836305,29.713535,-28.178894,0.961052,2.402629,4.805259,-17.402659,-23.018648,-512.830165,89.485915,170.578415,-85.583623,0.519394,-0.438460,0.558729,0.475189,0.519394,-0.438460,0.558729,0.475189,1550.801758,84561.828125,4.044234,8.206145,252.582886,252.582886,253.778625,31.875000,35.174526,1.070991,5.457725,1298.218872,252.582886,0.098363,0.297135,-0.281789,0.000964,0.000315,0.000335,0,1,0,-10.868145,2,0.290000,0,0,0,202
6016, 101,248262,248256,6251,0,0,-0.175135,0.014888,-1.003861,-0.224850,-0.156934,-10.782552,8.769365,38.629055,-43.949139,-0.000000,1.922103,5.285784,-4.471601,-14.993705,-531.493738,90.246600,171.086717,-108.666971,0.605933,-0.539394,0.454893,0.367384,0.605933,-0.539394,0.454893,0.367384,1550.803101,84562.625000,3.380176,7.714028,252.584229,252.584229,253.856171,31.875000,35.165436,1.019132,5.624411,1298.218872,252.584229,0.087694,0.386291,-0.439491,0.000964,0.000315,0.000335,0,1,0,-10.776173,2,0.290000,0,0,0,202
6017, 101,248315,248311,6304,0,0,-0.286369,-0.049041,-0.870191,-0.288571,-0.236431,-10.639135,7.234727,37.489040,-63.256359,-0.000000,2.402629,5.285784,-0.187106,-2.130463,-541.450351,90.494857,171.264330,-132.719318,0.670170,-0.621403,0.331045,0.234820,0.670170,-0.621403,0.331045,0.234820,1550.869873,84560.437500,2.156160,7.214803,252.651001,252.651001,253.913742,31.875000,35.169983,0.917412,5.806216,1298.218872,252.651001,0.072347,0.374890,-0.632564,0.000964,0.000315,0.000335,0,1,0,-10.695877,2,0.290000,0,0,0,202
6018, 101,248545,248526,6534,0,0,0.271929,-0.265846,-1.178101,-0.314112,-0.503129,-10.853687,10.625548,-36.889797,-67.027191,0.961052,2.402629,4.324733,-32.246819,-42.069908,-553.657156,85.325838,170.040988,126.959611,0.575587,-0.681759,-0.274473,-0.358565,0.575587,-0.681759,-0.274473,-0.358565,1551.105957,84559.093750,0.690117,5.159829,252.898193,252.887085,253.894089,31.875000,35.229065,1.237959,5.039798,1298.218872,252.898193,0.106255,-0.368898,-0.670272,0.000962,0.000314,0.000335,0,1,0,-10.813555,2,0.290000,0,0,0,202
6019, 101,248596,248579,6585,0,0,0.320912,-0.171264,-1.192101,-0.285588,-0.490439,-10.910653,10.932476,-41.201405,-56.343174,-0.000000,0.961052,4.324733,-25.431362,-49.587433,-555.945488,83.197701,169.853745,105.901291,0.487961,-0.629874,-0.401938,-0.451218,0.487961,-0.629874,-0.401938,-0.451218,1551.218140,84555.875000,0.760269,4.729486,252.999268,252.999268,253.885910,31.875000,35.233608,1.246363,4.430230,1298.218872,252.999268,0.109325,-0.412014,-0.563432,0.000962,0.000314,0.000335,0,1,0,-10.900162,2,0.290000,0,0,0,202
6020, 101,248648,248634,6637,0,0,-0.035476,-0.296177,-1.194243,-0.499018,-0.104543,-10.921378,9.412453,-41.406021,-38.833675,1.441578,2.402629,5.285784,-5.002773,-54.811086,-558.225678,80.712188,169.592094,81.741880,0.369708,-0.541000,-0.535432,-0.532867,0.369708,-0.541000,-0.535432,-0.532867,1552.791016,84526.781250,8.212320,4.250793,254.572144,254.572144,254.125793,31.875000,35.215431,1.230933,5.982499,1298.218872,254.572144,0.094125,-0.414060,-0.388337,0.000962,0.000315,0.000335,0,1,0,-10.872644,2,0.290000,0,0,0,202
6021, 101,248699,248688,6688,0,0,0.017422,-0.527043,-1.130278,-0.663573,0.059057,-10.855414,6.577024,-29.684301,-23.779596,0.480526,1.922103,4.805259,4.907580,-44.461304,-550.847872,78.663186,168.973389,57.916773,0.240430,-0.426053,-0.644168,-0.587979,0.240430,-0.426053,-0.644168,-0.587979,1552.562012,84559.296875,13.180111,3.778886,254.947998,254.343140,254.368469,31.875000,35.206341,1.247240,5.197682,1298.218872,254.947998,0.065770,-0.296843,-0.237796,0.000963,0.000315,0.000335,0,1,0,-10.866374,2,0.290000,0,0,0,202
6022, 101,248750,248740,6739,0,0,0.212845,-0.650895,-1.069314,-0.761667,0.192070,-10.798683,3.434668,-12.057878,-17.377958,1.441578,1.441578,5.285784,5.100516,-41.446507,-543.704915,77.208650,167.907715,35.303503,0.109708,-0.298273,-0.720609,-0.616214,0.109708,-0.298273,-0.720609,-0.616214,1551.599121,84567.765625,6.309412,3.313388,254.947998,253.380249,254.362167,31.875000,35.197250,1.269803,5.665316,1298.218872,254.947998,0.034347,-0.120579,-0.173780,0.000963,0.000315,0.000335,0,1,0,-10.832615,2,0.290000,0,0,0,202
6023, 101,248802,248793,6791,0,0,0.229729,-0.530509,-1.043916,-0.578810,0.233350,-10.818105,0.073078,7.892429,-18.298744,1.441578,1.441578,5.766310,-0.511686,-42.226234,-536.037891,76.414988,166.373313,12.917600,-0.023545,-0.160678,-0.767021,-0.620732,-0.023545,-0.160678,-0.767021,-0.620732,1551.123291,84564.328125,-7.031900,2.843925,254.947998,252.904419,254.222488,31.875000,35.192707,1.193305,6.116096,1298.218872,254.947998,0.000731,0.078924,-0.182987,0.000963,0.000315,0.000335,0,1,0,-10.791881,2,0.290000,0,0,0,202
6024, 101,248854,248845,6843,0,0,0.005793,-0.152731,-1.004725,-0.247530,-0.085348,-10.782976,-1.812336,26.395792,-27.068108,0.961052,1.922103,5.766310,6.436324,-42.812538,-534.245540,76.185146,164.633077,-9.470087,-0.155334,-0.017819,-0.784096,-0.600622,-0.155334,-0.017819,-0.784096,-0.600622,1550.633423,84568.562500,-12.725208,2.369994,254.947998,252.414551,253.998825,31.875000,35.188160,1.016284,6.153733,1298.218872,254.947998,-0.018123,0.263958,-0.270681,0.000963,0.000315,0.000335,0,1,0,-10.860528,2,0.290000,0,0,0,202
6025, 101,248906,248899,6895,0,0,-114.140381,-16.292711,165.930115,125.126869,50.728691,140.519150,-8.696288,26.629642,-25.591930,46.130482,-3.363681,-1.922103,290.766836,740.637355,190.143915,65.435412,176.109557,-16.277881,-0.104748,0.100882,-0.834987,-0.530705,-0.104748,0.100882,-0.834987,-0.530705,1492.746704,86580.820312,-194.577087,1.519557,254.947998,194.527832,248.185074,31.875000,35.188160,202.055145,46.292873,1298.218872,254.947998,-0.086963,0.266296,-0.255919,0.000963,0.000315,0.000335,0,1,0,-6.105732,2,0.290000,0,0,0,202
6026, 101,248957,248954,6946,0,0,4.419191,-17.549217,-52.391754,-10.105592,-18.248707,-61.155277,4.823151,-9.997077,-19.891844,269.094482,110.520950,-186.924561,466.538148,102.065183,672.328523,57.026253,-176.907746,31.559955,0.152583,-0.226478,-0.848787,-0.452755,0.152583,-0.226478,-0.848787,-0.452755,1523.302490,84498.765625,-279.764954,3.797544,254.947998,225.083618,242.766617,31.875000,35.179073,55.429234,345.785370,1298.218872,254.947998,0.048232,-0.099971,-0.198918,0.000964,0.000314,0.000335,0,1,0,34.075127,2,0.290000,0,0,0,202
6027, 101,249008,249008,6997,0,0,77.682861,27.488361,-18.550211,-83.371376,2.069022,-23.190573,-11.005553,37.532883,-43.729904,65.351517,49.013638,19.701561,607.869242,-353.863058,-1705.636151,41.370650,172.195722,-27.449584,-0.145461,0.198097,-0.912418,-0.327248,-0.145461,0.198097,-0.912418,-0.327248,1540.005005,84556.632812,-212.386566,3.379683,254.947998,241.786133,242.315765,31.875000,35.160892,84.465065,84.031593,1298.218872,254.947998,-0.110056,0.375329,-0.437299,0.000964,0.000314,0.000335,0,1,0,-26.908955,2,0.290000,0,0,0,202
6028, 101,249061,249038,7050,0,0,23.733402,9.687930,-19.765100,-27.042044,11.646576,-60.188816,-21.104940,-25.211927,-44.709148,14.896301,12.974198,-13.454724,-252.528677,-72.138218,-1966.098694,30.990136,177.234803,-71.901121,-0.175621,0.560365,-0.783658,-0.202555,-0.175621,0.560365,-0.783658,-0.202555,1545.198975,84571.695312,116.151283,2.761672,254.947998,246.980103,242.634369,31.875000,35.088173,32.369579,23.901030,1298.218872,254.947998,-0.211049,-0.252119,-0.447091,0.000964,0.000314,0.000335,0,1,0,-23.311014,2,0.290000,0,0,0,202
6029, 101,249113,249093,7102,0,0,12.659014,-8.494753,-10.574244,9.856614,-4.312114,-25.471054,-34.668224,36.407482,-65.682549,15.376827,-14.896301,0.961052,136.679380,-237.019257,-1987.805582,38.083472,-172.504187,-153.328786,-0.302528,0.922744,-0.196816,-0.135215,-0.302528,0.922744,-0.196816,-0.135215,1549.130615,84526.015625,150.783630,1.083460,254.947998,250.911743,243.668274,31.875000,34.979095,18.553331,21.430592,1298.218872,254.947998,-0.346682,0.364075,-0.656825,0.000964,0.000314,0.000335,0,1,0,-42.576530,2,0.290000,0,0,0,202
