checksum, eulerx, eulery, euler z, accelx, accely, accel z, gyro x, gyro y, gyro z, altitude, vvel, lyra uptime, errorflag MP, errorflag NAV, state, uptime reciver, dataage,checksum2
AB,0.000000,-0.572958,-67.036060,-9.080000,3.740000,-0.020000,0.000000,-0.010000,0.000000,0.040000,-0.540000,13445,1,1,0,9013,4,CD
AB,0.000000,-0.572958,-67.036060,-9.090000,3.750000,-0.030000,0.000000,0.000000,0.000000,0.050000,0.290000,13981,1,1,0,9549,3,CD
AB,0.000000,-0.572958,-67.036060,-9.070000,3.750000,-0.040000,0.000000,0.000000,0.000000,0.040000,0.320000,14517,1,1,0,10085,4,CD
AB,0.000000,-0.572958,-67.609017,-9.090000,3.730000,-0.030000,0.000000,0.020000,-0.010000,0.050000,0.020000,15054,1,1,0,10622,3,CD
AB,0.000000,-0.572958,-67.036060,-9.090000,3.760000,-0.030000,0.000000,0.000000,0.000000,0.040000,0.120000,15590,1,1,0,11158,4,CD
AB,0.000000,-0.572958,-67.036060,-9.090000,3.740000,-0.040000,0.010000,0.010000,0.000000,0.040000,-0.430000,16126,1,1,0,11694,3,CD
AB,0.000000,-0.572958,-67.609017,-9.090000,3.740000,-0.040000,0.000000,0.000000,0.000000,0.030000,0.280000,16663,1,1,0,12229,3,CD
AB,0.000000,-0.572958,-67.036060,-9.090000,3.760000,-0.020000,0.000000,0.000000,0.000000,0.030000,-0.040000,17199,1,1,0,12767,3,CD
AB,0.000000,-0.572958,-67.036060,-9.070000,3.750000,-0.030000,0.000000,0.000000,-0.010000,0.000000,-0.690000,17735,1,1,0,13303,3,CD
AB,0.000000,-0.572958,-67.036060,-9.090000,3.760000,-0.030000,-0.010000,0.020000,-0.010000,0.040000,0.090000,18271,1,1,0,13839,4,CD
AB,0.000000,-0.572958,-67.036060,-9.080000,3.760000,-0.030000,0.000000,0.020000,0.000000,0.040000,0.820000,18807,1,1,0,14375,3,CD
AB,0.000000,-0.572958,-67.036060,-9.100000,3.760000,-0.030000,0.000000,-0.010000,-0.010000,0.020000,0.290000,19344,1,1,0,14913,4,CD
AB,0.000000,-1.145916,-67.036060,-9.070000,3.750000,-0.020000,0.000000,0.010000,0.000000,0.000000,-0.400000,19880,1,1,0,15448,3,CD
AB,0.572958,-1.718873,-63.598316,-9.170000,3.370000,0.020000,-0.120000,0.030000,1.120000,0.000000,-0.270000,20226,1,1,0,15996,4,CD
AB,2.291831,2.864789,-75.057468,-9.620000,2.590000,1.020000,-0.370000,0.200000,0.080000,0.000000,0.120000,20965,1,1,0,16533,3,CD
AB,0.000000,7.448451,-75.630432,-9.680000,2.050000,-0.070000,-0.270000,-0.040000,0.200000,-0.010000,-0.780000,21502,1,1,0,17070,3,CD
AB,0.000000,14.323945,-75.057468,-9.510000,2.450000,-0.020000,0.060000,0.000000,-0.060000,0.000000,0.350000,22038,1,1,0,17606,4,CD
AB,142.666492,-144.958321,-53.858033,3.080000,-7.330000,3.850000,0.390000,0.680000,-0.040000,0.000000,-0.440000,5168,1,1,0,1033565,3,CD
AB,153.552693,-151.833821,-46.982539,4.910000,-7.350000,4.120000,0.340000,0.230000,0.030000,0.010000,-0.100000,6202,1,1,0,1034100,3,CD
AB,145.531278,-155.844522,-50.993243,5.160000,-7.020000,4.700000,-0.390000,-0.580000,-0.140000,0.020000,0.070000,6738,1,1,0,1034636,3,CD
AB,149.541979,-156.417479,-49.274371,5.340000,-6.660000,4.660000,0.130000,0.220000,0.030000,0.030000,0.550000,7274,1,1,0,1035172,3,CD
AB,146.677192,-157.563394,-52.712118,5.230000,-6.690000,4.980000,0.120000,0.110000,0.040000,0.040000,0.210000,7666,1,1,0,1035720,3,CD
AB,146.104235,-158.136351,-50.993243,5.240000,-6.220000,5.220000,0.050000,-0.070000,0.110000,0.020000,-0.590000,8358,1,1,0,1036256,3,CD
AB,144.958321,-159.282265,-52.712118,5.350000,-6.350000,5.390000,0.100000,0.160000,0.030000,0.010000,-0.300000,8894,1,1,0,1036792,3,CD
AB,146.677192,-161.574094,-53.285075,5.860000,-6.130000,5.080000,0.010000,0.040000,0.060000,0.000000,-0.110000,9431,1,1,0,1037329,4,CD
AB,144.385363,-162.147052,-55.003947,5.550000,-6.000000,5.420000,-0.010000,0.030000,-0.080000,0.000000,-0.140000,9966,1,1,0,1037866,4,CD
AB,143.812406,-161.001137,-53.858033,5.450000,-6.240000,5.390000,-0.010000,-0.010000,0.000000,0.010000,-0.380000,10502,1,1,0,1038401,4,CD
AB,145.531278,-158.709308,-50.993243,6.000000,-6.400000,4.790000,-0.010000,-0.220000,0.120000,0.000000,-0.540000,11038,1,1,0,1038937,4,CD
AB,144.958321,-159.855223,-53.858033,5.450000,-6.210000,5.290000,0.010000,-0.040000,-0.020000,0.010000,0.630000,11574,1,1,0,1039473,4,CD
AB,146.677192,-159.855223,-52.712118,5.780000,-6.440000,5.020000,0.010000,0.040000,0.090000,0.000000,0.210000,12110,1,1,0,1040009,4,CD
AB,144.958321,-159.855223,-54.430990,5.460000,-6.050000,5.580000,0.120000,0.060000,-0.100000,-0.010000,0.100000,12647,1,1,0,1040546,4,CD
AB,142.666492,-158.709308,-53.858033,5.230000,-6.460000,5.450000,-0.090000,0.050000,0.000000,0.000000,0.590000,13183,1,1,0,1041082,4,CD
AB,140.374663,-161.574094,-57.295780,4.880000,-6.130000,5.880000,-0.060000,-0.170000,-0.070000,-0.020000,-0.610000,13720,1,1,0,1041617,3,CD
AB,141.520577,-159.855223,-53.858033,5.410000,-5.990000,5.780000,0.030000,0.050000,0.100000,0.000000,0.220000,14255,1,1,0,1042154,3,CD
AB,143.239449,-159.282265,-53.858033,5.460000,-6.560000,5.300000,0.030000,-0.020000,0.090000,0.010000,1.090000,14791,1,1,0,1042690,3,CD
AB,155.844522,-163.865923,-52.712118,6.550000,-6.330000,3.910000,-0.490000,-0.810000,0.110000,0.030000,0.420000,15327,1,1,0,1043225,3,CD
AB,160.428180,-158.709308,-49.274371,6.080000,-7.020000,3.020000,-0.050000,-0.050000,-0.090000,0.010000,-0.470000,15863,1,1,0,1043761,3,CD
AB,154.698607,-164.438881,-56.722822,5.530000,-6.040000,4.770000,-0.280000,-0.040000,-0.190000,0.030000,0.260000,16400,1,1,0,1044298,3,CD
AB,155.844522,-148.969021,-44.690706,4.820000,-8.480000,2.370000,0.120000,0.550000,-0.350000,0.010000,-0.590000,16936,1,1,0,1044834,3,CD
AB,143.812406,-154.698607,-47.555496,5.760000,-6.060000,5.010000,0.140000,-0.460000,0.430000,0.020000,0.090000,17472,1,1,0,1045370,3,CD
AB,140.947620,-165.011852,-57.868737,5.730000,-5.630000,5.590000,-0.330000,-0.020000,-0.260000,0.020000,-0.150000,18008,1,1,0,1045906,3,CD
AB,152.406778,-142.093534,-43.544792,4.470000,-8.550000,4.460000,0.260000,-0.840000,0.410000,0.020000,-0.520000,18544,1,1,0,1046444,4,CD
AB,150.687907,-156.417479,-47.555496,6.690000,-7.260000,3.020000,-0.610000,-0.690000,0.450000,0.000000,-0.780000,19081,1,1,0,1046980,4,CD
AB,159.855223,-154.698607,-45.263667,5.860000,-7.220000,3.010000,0.150000,-0.340000,0.350000,0.020000,-0.020000,19618,1,1,0,1047516,4,CD
AB,166.730723,-169.022552,-52.139161,7.750000,-5.130000,2.510000,0.140000,-0.160000,-0.010000,0.020000,-0.150000,20154,1,1,0,1048051,4,CD
AB,167.303681,-165.584809,-49.847328,6.640000,-7.190000,1.910000,-0.110000,0.010000,-0.150000,0.000000,-0.320000,20689,1,1,0,1048588,4,CD
AB,162.720009,-157.563394,-41.252963,4.160000,-8.240000,2.570000,0.690000,0.660000,-1.680000,0.000000,-0.080000,21225,1,1,0,1049124,3,CD
AB,149.541979,-151.833821,-27.501974,0.800000,-8.580000,5.080000,0.030000,-0.250000,-0.120000,0.010000,0.160000,21761,1,1,0,1049659,3,CD
AB,156.417479,-152.406778,-21.199439,0.630000,-9.400000,2.560000,-0.410000,-0.480000,0.170000,0.000000,-0.100000,22298,1,1,0,1050196,3,CD
AB,152.979736,-158.136351,-21.199439,1.620000,-8.860000,4.100000,-0.110000,-0.170000,0.120000,0.000000,0.190000,22833,1,1,0,1050732,3,CD
AB,155.844522,-161.001137,-21.199439,2.330000,-8.960000,3.890000,0.080000,0.140000,-0.080000,0.000000,-0.010000,23370,1,1,0,1051267,3,CD
AB,163.865923,-160.428180,-18.907608,2.840000,-8.810000,2.550000,0.020000,-0.290000,0.110000,0.000000,-0.120000,23905,1,1,0,1051803,3,CD
AB,162.720009,-161.001137,-28.074933,3.770000,-8.800000,3.670000,0.570000,0.580000,-0.100000,0.020000,1.050000,24441,1,1,0,1052340,3,CD
AB,155.844522,-155.844522,-28.647890,2.580000,-8.610000,4.510000,-0.370000,0.150000,-0.340000,0.010000,-0.030000,24977,1,1,0,1052875,3,CD
AB,162.720009,-158.136351,-30.939722,4.310000,-8.850000,3.400000,-0.370000,0.000000,-0.420000,0.020000,0.720000,25513,1,1,0,1053411,3,CD
AB,178.189868,-147.250150,4.583662,0.820000,-10.450000,0.880000,-0.780000,-0.990000,0.710000,0.020000,0.110000,26049,1,1,0,1053948,3,CD
AB,166.730723,-145.531278,-13.178030,-1.960000,-9.900000,1.540000,0.330000,0.380000,-0.550000,0.000000,-0.370000,26585,1,1,0,1054483,3,CD
AB,174.752125,-149.541979,-9.740283,0.940000,-9.940000,1.660000,0.540000,0.260000,-0.570000,0.030000,0.330000,27121,1,1,0,1055020,4,CD
AB,14.896902,-21.772396,-163.292966,-0.770000,-9.770000,-0.580000,-1.100000,-0.570000,0.570000,0.020000,-0.220000,27657,1,1,0,1055556,4,CD
AB,14.896902,-19.480565,-167.876638,-0.840000,-10.520000,-2.660000,-0.340000,0.930000,-0.470000,0.010000,0.210000,28194,1,1,0,1056092,4,CD
AB,5.729578,-31.512679,179.335796,1.530000,-10.080000,-1.200000,0.820000,0.950000,0.140000,0.020000,0.360000,28729,1,1,0,1056628,4,CD
AB,126.623675,-138.082834,-37.815216,1.270000,-7.460000,4.750000,1.730000,1.410000,0.040000,0.020000,0.070000,29265,1,1,0,1057165,4,CD
AB,126.623675,-177.616911,-45.836624,4.850000,-4.380000,6.050000,0.060000,-0.050000,-0.220000,0.000000,-0.530000,29802,1,1,0,1057701,4,CD
AB,138.082834,-163.292966,-43.544792,6.200000,-5.630000,6.960000,-0.980000,0.190000,0.280000,-0.010000,-0.520000,30338,1,1,0,1058237,4,CD
AB,91.100291,-174.179168,-60.733523,-0.560000,0.370000,10.390000,0.270000,0.130000,0.570000,-0.010000,0.340000,30874,1,1,0,1058772,3,CD
AB,81.360004,-176.470997,-43.544792,-1.270000,-0.710000,9.600000,-0.280000,0.250000,0.250000,0.000000,0.180000,31410,1,1,0,1059309,3,CD
AB,79.068175,-173.606210,-42.971835,-1.500000,-0.080000,9.540000,-0.310000,-0.010000,0.490000,-0.010000,-0.570000,31946,1,1,0,1059845,3,CD
AB,87.662541,-178.189868,-44.690706,-1.100000,-0.320000,9.960000,-0.410000,0.010000,-0.030000,-0.010000,-0.050000,32482,1,1,0,1060380,3,CD
AB,42.971835,-179.335796,-41.252963,0.680000,-0.840000,8.970000,-0.370000,-0.150000,0.290000,-0.020000,-0.510000,33018,1,1,0,1060917,3,CD
AB,91.100291,177.616911,-35.523384,0.340000,-0.040000,9.770000,-0.020000,-0.080000,0.300000,-0.010000,-0.150000,33555,1,1,0,1061452,3,CD
AB,91.100291,179.908754,-17.188735,0.070000,-0.120000,9.960000,0.040000,-0.030000,0.010000,0.000000,0.980000,34091,1,1,0,1061989,3,CD
AB,89.954377,-179.335796,-17.188735,-0.040000,-0.110000,9.930000,0.010000,0.000000,0.240000,-0.010000,-0.970000,34627,1,1,0,1062526,3,CD
AB,91.673249,-178.762826,-17.761692,-0.170000,-0.060000,9.950000,0.000000,-0.030000,-0.040000,0.000000,-0.010000,35163,1,1,0,1063061,3,CD
AB,91.673249,-177.043954,-16.615776,0.000000,-0.180000,9.950000,0.030000,-0.030000,-0.160000,0.010000,0.370000,35699,1,1,0,1063599,4,CD
AB,90.527334,-178.762826,-17.761692,-0.090000,-0.230000,9.950000,0.000000,0.000000,0.000000,0.000000,0.690000,36236,1,1,0,1064135,4,CD
AB,90.527334,-178.762826,-17.761692,-0.080000,-0.180000,9.930000,-0.010000,0.020000,0.000000,0.010000,0.380000,36772,1,1,0,1064671,4,CD
AB,90.527334,-178.762826,-17.761692,-0.140000,-0.170000,9.950000,0.000000,0.000000,0.000000,0.010000,0.080000,37308,1,1,0,1065207,4,CD
AB,90.527334,-178.762826,-18.334649,-0.080000,-0.190000,9.940000,0.000000,-0.010000,0.000000,0.000000,-0.480000,37844,1,1,0,1065743,4,CD
AB,90.527334,-178.762826,-18.334649,-0.120000,-0.210000,9.940000,0.000000,0.020000,0.000000,0.000000,-0.230000,38380,1,1,0,1066279,4,CD
AB,90.527334,-178.762826,-18.334649,-0.090000,-0.190000,9.940000,0.000000,0.000000,0.000000,0.000000,0.170000,38916,1,1,0,1066815,3,CD
AB,90.527334,-178.762826,-18.334649,-0.100000,-0.190000,9.940000,0.000000,-0.010000,0.000000,0.000000,-0.230000,39452,1,1,0,1067351,3,CD
AB,90.527334,-178.762826,-18.334649,-0.090000,-0.210000,9.940000,0.010000,0.000000,0.000000,0.010000,0.170000,39988,1,1,0,1067887,3,CD
AB,90.527334,-178.762826,-18.334649,-0.090000,-0.190000,9.930000,0.000000,0.000000,-0.010000,0.000000,-0.760000,40525,1,1,0,1068424,3,CD
AB,90.527334,-178.762826,-18.907608,-0.110000,-0.180000,9.940000,0.000000,0.000000,-0.010000,0.000000,-0.340000,41061,1,1,0,1068959,3,CD
AB,90.527334,-178.762826,-18.907608,-0.100000,-0.190000,9.950000,0.000000,0.020000,-0.010000,-0.010000,-0.950000,41577,1,1,0,1069628,3,CD
AB,90.527334,-178.762826,-18.907608,-0.110000,-0.200000,9.930000,0.000000,0.040000,-0.020000,0.000000,-0.300000,42266,1,1,0,1070165,4,CD
AB,90.527334,-178.762826,-18.907608,-0.080000,-0.210000,9.930000,0.010000,0.020000,0.000000,-0.010000,-0.250000,42802,1,1,0,1070701,4,CD
AB,90.527334,-178.762826,-18.907608,-0.110000,-0.200000,9.960000,-0.010000,0.000000,-0.010000,0.000000,0.630000,43338,1,1,0,1071237,4,CD
AB,90.527334,-178.762826,-19.480565,-0.080000,-0.200000,9.930000,0.000000,-0.010000,0.000000,-0.020000,-0.080000,43874,1,1,0,1071773,4,CD
AB,90.527334,-178.762826,-19.480565,-0.090000,-0.200000,9.940000,0.000000,0.010000,0.000000,-0.040000,-0.540000,44412,1,1,0,1072310,4,CD
AB,90.527334,-178.762826,-19.480565,-0.090000,-0.190000,9.960000,-0.010000,0.010000,0.000000,-0.010000,0.100000,44948,1,1,0,1072846,4,CD
AB,90.527334,-178.762826,-20.053522,-0.090000,-0.200000,9.960000,0.010000,0.010000,0.010000,0.010000,0.470000,45483,1,1,0,1073382,4,CD
AB,90.527334,-178.762826,-20.053522,-0.080000,-0.210000,9.930000,0.000000,-0.010000,0.000000,0.000000,-0.010000,46019,1,1,0,1073918,3,CD
AB,90.527334,-178.762826,-20.053522,-0.100000,-0.200000,9.940000,0.000000,0.000000,-0.020000,0.000000,0.110000,46555,1,1,0,1074453,3,CD
AB,90.527334,-178.762826,-20.626481,-0.090000,-0.200000,9.940000,0.010000,0.010000,0.010000,0.000000,0.890000,47091,1,1,0,1074990,3,CD
AB,90.527334,-178.762826,-20.626481,-0.100000,-0.210000,9.940000,0.000000,0.030000,0.000000,0.010000,0.710000,47627,1,1,0,1075526,3,CD
AB,90.527334,-178.762826,-20.626481,-0.100000,-0.200000,9.950000,0.000000,0.020000,0.000000,0.000000,-0.690000,48163,1,1,0,1076061,3,CD
AB,90.527334,-178.762826,-20.626481,-0.090000,-0.210000,9.940000,0.000000,-0.030000,0.000000,0.000000,0.240000,48699,1,1,0,1076598,3,CD
AB,90.527334,-178.762826,-20.626481,-0.070000,-0.210000,9.940000,0.000000,0.010000,0.000000,0.000000,-0.350000,49236,1,1,0,1077133,3,CD
AB,90.527334,-178.762826,-20.626481,-0.120000,-0.210000,9.920000,0.000000,0.010000,-0.010000,-0.010000,-0.190000,49771,1,1,0,1077670,4,CD
AB,90.527334,-178.762826,-21.199439,-0.110000,-0.200000,9.950000,0.000000,0.000000,0.000000,-0.010000,0.200000,50307,1,1,0,1078207,4,CD
AB,90.527334,-178.762826,-21.199439,-0.080000,-0.200000,9.930000,0.000000,0.000000,0.000000,-0.030000,-0.850000,50810,1,1,0,1078911,3,CD
AB,90.527334,-178.762826,-21.199439,-0.100000,-0.210000,9.930000,0.000000,0.020000,0.000000,-0.010000,0.110000,51549,1,1,0,1079448,3,CD
AB,90.527334,-178.762826,-21.199439,-0.080000,-0.170000,9.950000,0.000000,0.010000,0.000000,-0.010000,0.360000,52074,1,1,0,1080071,3,CD
AB,90.527334,-178.762826,-21.199439,-0.120000,-0.200000,9.940000,0.000000,0.020000,-0.010000,0.000000,-0.010000,52710,1,1,0,1080608,4,CD
AB,90.527334,-178.762826,-21.772396,-0.090000,-0.200000,9.940000,0.010000,-0.020000,0.000000,0.000000,-0.270000,53247,1,1,0,1081145,4,CD
AB,90.527334,-178.762826,-21.772396,-0.100000,-0.220000,9.940000,0.000000,0.010000,-0.010000,0.000000,-0.480000,53782,1,1,0,1081681,4,CD
AB,90.527334,-178.762826,-21.772396,-0.080000,-0.210000,9.940000,0.000000,0.000000,0.010000,0.000000,0.300000,54318,1,1,0,1082217,4,CD
AB,90.527334,-178.762826,-21.772396,-0.100000,-0.210000,9.940000,0.000000,0.010000,0.000000,0.000000,-0.200000,54855,1,1,0,1082754,4,CD
AB,90.527334,-178.762826,-21.772396,-0.090000,-0.190000,9.940000,0.000000,0.030000,0.000000,0.010000,0.520000,55391,1,1,0,1083290,3,CD
AB,90.527334,-178.762826,-21.772396,-0.100000,-0.200000,9.940000,0.000000,0.020000,-0.010000,-0.020000,-1.040000,55927,1,1,0,1083826,3,CD
AB,90.527334,-178.762826,-22.345353,-0.120000,-0.220000,9.930000,0.000000,0.020000,-0.010000,0.000000,0.340000,56463,1,1,0,1084362,3,CD
AB,90.527334,-178.762826,-22.345353,-0.080000,-0.190000,9.940000,0.000000,0.000000,0.000000,0.000000,0.360000,57000,1,1,0,1084899,3,CD
AB,90.527334,-178.762826,-22.345353,-0.090000,-0.200000,9.930000,0.000000,-0.010000,-0.010000,-0.020000,-1.060000,57536,1,1,0,1085434,3,CD
AB,90.527334,-178.762826,-22.345353,-0.100000,-0.200000,9.930000,0.000000,0.000000,0.000000,0.000000,0.500000,58072,1,1,0,1085970,3,CD
AB,90.527334,-178.762826,-22.345353,-0.090000,-0.200000,9.940000,0.000000,0.000000,0.000000,-0.010000,-0.030000,58608,1,1,0,1086507,3,CD
AB,90.527334,-178.762826,-22.345353,-0.100000,-0.190000,9.960000,0.000000,0.000000,0.000000,0.000000,-0.550000,59144,1,1,0,1087042,3,CD
AB,90.527334,-178.762826,-22.345353,-0.080000,-0.200000,9.930000,0.000000,0.020000,-0.010000,0.010000,-0.020000,59680,1,1,0,1087578,3,CD
AB,90.527334,-178.762826,-22.918312,-0.100000,-0.210000,9.930000,-0.010000,0.020000,0.000000,-0.010000,-0.620000,60216,1,1,0,1088115,3,CD
AB,90.527334,-178.762826,-22.918312,-0.130000,-0.200000,9.950000,0.000000,-0.010000,0.010000,0.000000,0.360000,60752,1,1,0,1088651,4,CD
AB,90.527334,-178.762826,-22.918312,-0.070000,-0.200000,9.940000,0.000000,-0.010000,-0.010000,0.000000,0.720000,61289,1,1,0,1089188,4,CD
AB,90.527334,-178.762826,-22.918312,-0.130000,-0.200000,9.940000,-0.010000,0.010000,0.000000,0.000000,0.300000,61825,1,1,0,1089724,4,CD
AB,90.527334,-178.762826,-22.918312,-0.080000,-0.190000,9.940000,0.000000,0.000000,0.000000,-0.010000,0.250000,62361,1,1,0,1090260,4,CD
AB,90.527334,-178.762826,-22.918312,-0.090000,-0.200000,9.950000,0.000000,0.000000,0.000000,-0.020000,-0.310000,62897,1,1,0,1090796,4,CD
AB,90.527334,-178.762826,-23.491269,-0.100000,-0.200000,9.940000,0.000000,-0.020000,0.000000,0.000000,0.090000,63433,1,1,0,1091332,3,CD
AB,90.527334,-178.762826,-23.491269,-0.100000,-0.200000,9.940000,-0.010000,-0.020000,0.000000,0.030000,0.480000,63969,1,1,0,1091868,3,CD
AB,90.527334,-178.762826,-23.491269,-0.100000,-0.190000,9.930000,-0.020000,0.010000,0.000000,0.010000,0.200000,64505,1,1,0,1092403,3,CD
AB,90.527334,-178.762826,-23.491269,-0.090000,-0.200000,9.950000,0.000000,0.000000,0.000000,0.000000,-0.480000,65041,1,1,0,1092940,3,CD
AB,90.527334,-178.762826,-23.491269,-0.080000,-0.200000,9.950000,0.000000,0.000000,0.000000,0.000000,-0.210000,65577,1,1,0,1093476,3,CD
AB,90.527334,-178.762826,-23.491269,-0.080000,-0.200000,9.940000,0.000000,0.010000,-0.010000,0.000000,0.080000,66113,1,1,0,1094011,3,CD
AB,90.527334,-178.762826,-23.491269,-0.100000,-0.200000,9.950000,0.000000,0.010000,0.000000,0.010000,0.180000,66649,1,1,0,1094548,4,CD
AB,90.527334,-178.762826,-24.064227,-0.090000,-0.200000,9.950000,0.000000,0.000000,0.000000,0.000000,-0.950000,67185,1,1,0,1095084,4,CD
AB,90.527334,-178.762826,-24.064227,-0.090000,-0.210000,9.950000,0.000000,0.010000,-0.010000,0.000000,0.000000,67722,1,1,0,1095621,4,CD
AB,90.527334,-178.762826,-24.064227,-0.100000,-0.220000,9.930000,0.000000,0.010000,0.000000,0.000000,0.290000,68258,1,1,0,1096158,4,CD
AB,90.527334,-178.762826,-24.064227,-0.090000,-0.220000,9.940000,-0.010000,0.000000,-0.010000,0.000000,0.270000,68794,1,1,0,1096693,4,CD
AB,90.527334,-178.762826,-24.064227,-0.080000,-0.190000,9.930000,0.000000,-0.010000,0.000000,-0.030000,-0.990000,69330,1,1,0,1097229,4,CD
AB,90.527334,-178.762826,-24.637186,-0.110000,-0.190000,9.950000,0.000000,0.000000,-0.010000,0.010000,0.890000,69867,1,1,0,1097766,4,CD
AB,90.527334,-178.762826,-24.637186,-0.100000,-0.210000,9.930000,0.000000,0.000000,0.000000,0.010000,0.680000,70403,1,1,0,1098302,4,CD
AB,90.527334,-178.762826,-24.637186,-0.090000,-0.200000,9.930000,0.000000,-0.010000,0.000000,0.000000,-0.130000,70939,1,1,0,1098837,3,CD
AB,90.527334,-178.762826,-24.637186,-0.110000,-0.210000,9.940000,0.000000,0.000000,0.000000,0.020000,0.610000,71475,1,1,0,1099374,3,CD
AB,90.527334,-178.762826,-24.637186,-0.100000,-0.200000,9.930000,0.000000,0.000000,0.000000,0.000000,-0.610000,72011,1,1,0,1099910,3,CD
AB,90.527334,-178.762826,-24.637186,-0.090000,-0.200000,9.950000,0.000000,0.000000,0.010000,0.000000,-0.030000,72547,1,1,0,1100445,3,CD
AB,90.527334,-178.762826,-24.637186,-0.100000,-0.190000,9.940000,-0.010000,0.010000,0.000000,0.010000,-0.340000,73083,1,1,0,1100982,3,CD
AB,90.527334,-178.762826,-24.637186,-0.090000,-0.200000,9.950000,0.000000,-0.030000,-0.010000,0.020000,0.350000,73619,1,1,0,1101517,3,CD
AB,90.527334,-178.762826,-24.637186,-0.090000,-0.210000,9.940000,0.000000,0.000000,0.000000,0.020000,0.950000,74155,1,1,0,1102054,3,CD
AB,90.527334,-178.762826,-24.637186,-0.100000,-0.200000,9.950000,0.000000,0.010000,0.000000,0.020000,-0.070000,74691,1,1,0,1102589,3,CD
AB,90.527334,-178.762826,-24.637186,-0.110000,-0.200000,9.940000,0.000000,0.010000,0.000000,0.010000,0.270000,75227,1,1,0,1103126,4,CD
AB,90.527334,-178.762826,-25.210143,-0.110000,-0.210000,9.940000,-0.010000,0.010000,0.000000,0.000000,-0.330000,75764,1,1,0,1103663,4,CD
AB,90.527334,-178.762826,-25.210143,-0.090000,-0.190000,9.960000,0.000000,0.000000,0.000000,0.020000,-0.350000,76300,1,1,0,1104199,4,CD
AB,90.527334,-178.762826,-25.210143,-0.100000,-0.210000,9.940000,0.010000,-0.020000,-0.010000,0.000000,-0.130000,76836,1,1,0,1104735,4,CD
AB,90.527334,-178.762826,-25.783100,-0.090000,-0.200000,9.930000,0.000000,0.000000,0.000000,0.010000,0.490000,77372,1,1,0,1105271,4,CD
AB,90.527334,-178.762826,-25.783100,-0.090000,-0.210000,9.940000,0.000000,-0.020000,-0.010000,0.010000,-0.230000,77908,1,1,0,1105807,4,CD
AB,90.527334,-178.762826,-25.783100,-0.100000,-0.200000,9.950000,0.000000,0.020000,0.000000,0.030000,0.360000,78445,1,1,0,1106343,3,CD
AB,90.527334,-178.762826,-25.783100,-0.090000,-0.190000,9.950000,0.000000,-0.020000,-0.010000,0.030000,0.770000,78981,1,1,0,1106880,3,CD
AB,90.527334,-178.762826,-25.783100,-0.090000,-0.200000,9.930000,0.000000,0.000000,0.000000,0.000000,-1.040000,79517,1,1,0,1107415,3,CD
AB,90.527334,-178.762826,-26.356059,-0.100000,-0.190000,9.930000,0.000000,0.030000,-0.010000,0.020000,0.130000,80053,1,1,0,1107952,3,CD
AB,90.527334,-178.762826,-26.356059,-0.070000,-0.210000,9.930000,0.000000,0.000000,0.000000,0.000000,-0.690000,80590,1,1,0,1108489,3,CD
AB,90.527334,-178.762826,-26.356059,-0.100000,-0.200000,9.930000,0.000000,-0.030000,0.000000,0.000000,-0.550000,81126,1,1,0,1109024,3,CD
AB,90.527334,-178.762826,-26.356059,-0.090000,-0.190000,9.940000,0.000000,0.000000,0.000000,0.000000,-0.150000,81465,1,1,0,1109567,4,CD
AB,90.527334,-178.762826,-26.356059,-0.090000,-0.200000,9.930000,0.000000,0.000000,0.000000,0.000000,-0.110000,82204,1,1,0,1110103,4,CD
AB,90.527334,-178.762826,-26.356059,-0.100000,-0.190000,9.950000,0.000000,0.010000,0.000000,0.000000,0.170000,82740,1,1,0,1110639,4,CD
AB,90.527334,-178.762826,-26.356059,-0.090000,-0.190000,9.950000,0.000000,0.010000,0.010000,-0.010000,0.270000,83276,1,1,0,1111175,4,CD
AB,90.527334,-178.762826,-26.356059,-0.080000,-0.190000,9.950000,0.000000,0.010000,0.000000,0.000000,0.010000,83806,1,1,0,1111790,3,CD
AB,90.527334,-178.762826,-26.356059,-0.100000,-0.220000,9.930000,0.000000,0.010000,0.000000,0.000000,0.100000,84427,1,1,0,1112326,3,CD
AB,90.527334,-178.762826,-26.929016,-0.090000,-0.200000,9.940000,0.000000,-0.020000,0.020000,0.000000,-0.290000,84964,1,1,0,1112862,3,CD
AB,90.527334,-178.762826,-26.929016,-0.100000,-0.190000,9.950000,0.000000,-0.010000,0.000000,0.010000,0.410000,85499,1,1,0,1113398,3,CD
AB,90.527334,-178.762826,-26.929016,-0.110000,-0.190000,9.950000,0.000000,-0.010000,0.000000,0.010000,0.310000,86035,1,1,0,1113934,3,CD
AB,90.527334,-178.762826,-26.929016,-0.090000,-0.190000,9.940000,0.000000,-0.010000,0.000000,0.010000,-0.190000,86573,1,1,0,1114471,3,CD
AB,90.527334,-178.762826,-26.929016,-0.090000,-0.210000,9.930000,0.000000,0.000000,0.000000,0.010000,0.040000,87108,1,1,0,1115006,3,CD
AB,90.527334,-178.762826,-26.929016,-0.090000,-0.190000,9.940000,0.000000,0.000000,-0.010000,0.000000,-0.060000,87644,1,1,0,1115542,3,CD
AB,90.527334,-178.762826,-27.501974,-0.100000,-0.190000,9.950000,0.000000,0.000000,-0.010000,-0.010000,-0.180000,88180,1,1,0,1116079,3,CD
AB,90.527334,-178.762826,-27.501974,-0.090000,-0.210000,9.940000,0.020000,0.000000,0.000000,0.000000,0.480000,88718,1,1,0,1116615,3,CD
AB,90.527334,-178.762826,-27.501974,-0.090000,-0.200000,9.930000,0.000000,0.010000,0.000000,0.000000,0.450000,89254,1,1,0,1117153,4,CD
AB,90.527334,-178.762826,-27.501974,-0.080000,-0.210000,9.930000,-0.010000,0.000000,0.000000,0.000000,-0.080000,89789,1,1,0,1117688,4,CD
AB,90.527334,-178.762826,-28.074933,-0.090000,-0.210000,9.930000,0.000000,-0.020000,0.000000,0.020000,0.300000,90325,1,1,0,1118225,4,CD
AB,90.527334,-178.762826,-28.074933,-0.090000,-0.190000,9.940000,0.000000,0.000000,-0.010000,0.040000,1.110000,90862,1,1,0,1118761,4,CD
AB,90.527334,-178.762826,-28.074933,-0.090000,-0.200000,9.950000,0.010000,-0.030000,0.000000,0.020000,-0.230000,91398,1,1,0,1119297,4,CD
AB,90.527334,-178.762826,-28.074933,-0.080000,-0.200000,9.940000,0.000000,-0.010000,-0.010000,0.020000,0.550000,91934,1,1,0,1119833,4,CD
AB,90.527334,-178.762826,-28.074933,-0.100000,-0.190000,9.930000,0.000000,0.000000,0.000000,0.040000,0.650000,92470,1,1,0,1120369,3,CD
AB,90.527334,-178.762826,-28.074933,-0.100000,-0.200000,9.950000,0.000000,0.000000,0.000000,0.030000,0.470000,93007,1,1,0,1120906,3,CD
AB,90.527334,-178.762826,-28.647890,-0.100000,-0.200000,9.950000,0.000000,0.000000,0.000000,0.010000,-0.760000,93543,1,1,0,1121442,3,CD
AB,90.527334,-178.762826,-28.647890,-0.100000,-0.200000,9.940000,0.000000,0.000000,0.000000,0.020000,-0.690000,94079,1,1,0,1121978,3,CD
AB,90.527334,-178.762826,-28.647890,-0.100000,-0.200000,9.930000,0.000000,-0.010000,-0.010000,0.050000,1.010000,94616,1,1,0,1122514,3,CD
AB,90.527334,-178.762826,-28.647890,-0.100000,-0.200000,9.940000,0.000000,0.000000,0.000000,0.040000,0.680000,95152,1,1,0,1123051,3,CD
AB,90.527334,-178.189868,-28.647890,-0.100000,-0.200000,9.940000,0.000000,0.000000,0.000000,0.030000,0.050000,95688,1,1,0,1123587,4,CD
AB,90.527334,-178.762826,-29.220847,-0.100000,-0.190000,9.940000,-0.010000,0.000000,-0.010000,0.020000,-0.140000,96224,1,1,0,1124123,4,CD
AB,90.527334,-178.762826,-29.220847,-0.090000,-0.200000,9.940000,0.000000,0.000000,0.000000,0.010000,-0.670000,96760,1,1,0,1124659,4,CD
AB,90.527334,-178.762826,-29.220847,-0.100000,-0.190000,9.930000,0.000000,-0.010000,0.000000,0.020000,0.500000,97297,1,1,0,1125196,4,CD
AB,90.527334,-178.762826,-29.793804,-0.090000,-0.200000,9.930000,0.000000,0.000000,0.000000,0.010000,-0.430000,97833,1,1,0,1125732,4,CD
AB,90.527334,-178.762826,-29.793804,-0.100000,-0.190000,9.940000,0.000000,0.000000,0.000000,0.010000,0.280000,98369,1,1,0,1126268,4,CD
AB,90.527334,-178.762826,-29.793804,-0.100000,-0.200000,9.940000,0.000000,0.020000,0.000000,0.000000,0.370000,98905,1,1,0,1126804,3,CD
AB,90.527334,-178.762826,-29.793804,-0.110000,-0.200000,9.940000,0.000000,0.000000,0.000000,0.000000,-0.210000,99441,1,1,0,1127340,3,CD
AB,90.527334,-178.762826,-30.366762,-0.090000,-0.200000,9.940000,0.000000,0.010000,-0.010000,0.000000,-0.080000,99977,1,1,0,1127876,3,CD
AB,90.527334,-178.762826,-30.366762,-0.090000,-0.210000,9.940000,0.000000,0.000000,-0.010000,0.000000,-0.330000,100513,1,1,0,1128411,3,CD
AB,90.527334,-178.762826,-30.366762,-0.090000,-0.210000,9.950000,0.010000,0.010000,0.000000,0.000000,-0.080000,101050,1,1,0,1128948,3,CD
AB,90.527334,-178.762826,-30.366762,-0.100000,-0.200000,9.950000,0.000000,0.000000,0.000000,0.020000,0.440000,101586,1,1,0,1129484,3,CD
AB,90.527334,-178.762826,-30.939722,-0.090000,-0.210000,9.930000,0.000000,-0.020000,-0.010000,0.000000,0.270000,102122,1,1,0,1130021,3,CD
AB,90.527334,-178.762826,-30.939722,-0.100000,-0.180000,9.940000,0.000000,0.000000,-0.010000,0.040000,1.220000,102658,1,1,0,1130556,3,CD
AB,90.527334,-178.762826,-30.939722,-0.110000,-0.200000,9.940000,0.000000,0.010000,0.000000,0.020000,-0.360000,103195,1,1,0,1131094,4,CD
AB,90.527334,-178.762826,-30.939722,-0.090000,-0.200000,9.930000,0.000000,-0.030000,0.000000,0.010000,0.440000,103731,1,1,0,1131631,4,CD
AB,90.527334,-178.762826,-30.939722,-0.090000,-0.210000,9.940000,0.000000,0.010000,0.000000,0.010000,-0.060000,104267,1,1,0,1132166,4,CD
AB,90.527334,-178.762826,-30.939722,-0.100000,-0.210000,9.930000,0.000000,0.000000,0.000000,0.020000,-0.110000,104804,1,1,0,1132703,4,CD
AB,90.527334,-178.762826,-30.939722,-0.090000,-0.200000,9.940000,0.000000,0.000000,0.000000,0.030000,-0.010000,105340,1,1,0,1133238,4,CD
AB,90.527334,-178.762826,-30.939722,-0.100000,-0.180000,9.960000,0.000000,-0.010000,0.000000,0.010000,-0.180000,105875,1,1,0,1133774,4,CD
AB,90.527334,-178.762826,-31.512679,-0.100000,-0.200000,9.950000,0.000000,0.020000,0.000000,0.020000,-0.110000,106411,1,1,0,1134310,3,CD
AB,90.527334,-178.762826,-31.512679,-0.100000,-0.200000,9.940000,0.000000,-0.010000,0.000000,0.030000,-0.060000,106947,1,1,0,1134846,3,CD
AB,90.527334,-178.762826,-31.512679,-0.090000,-0.200000,9.960000,-0.010000,0.010000,-0.010000,0.010000,-1.000000,107483,1,1,0,1135382,3,CD
AB,90.527334,-178.762826,-31.512679,-0.090000,-0.190000,9.920000,0.000000,0.000000,0.000000,0.020000,0.470000,108019,1,1,0,1135918,3,CD
AB,90.527334,-178.762826,-31.512679,-0.080000,-0.210000,9.950000,0.000000,0.040000,0.010000,0.020000,0.510000,108555,1,1,0,1136453,3,CD
AB,90.527334,-178.762826,-31.512679,-0.100000,-0.190000,9.950000,0.000000,0.000000,-0.010000,0.020000,0.560000,109092,1,1,0,1136990,3,CD
AB,90.527334,-178.762826,-32.085637,-0.090000,-0.210000,9.940000,0.000000,0.010000,0.000000,0.000000,-0.800000,109627,1,1,0,1137525,3,CD
AB,90.527334,-178.762826,-32.085637,-0.090000,-0.190000,9.950000,0.000000,0.000000,0.000000,0.020000,0.760000,110163,1,1,0,1138062,3,CD
AB,90.527334,-178.762826,-32.085637,-0.090000,-0.210000,9.930000,0.000000,0.000000,0.000000,0.010000,0.110000,110699,1,1,0,1138597,3,CD
AB,90.527334,-178.762826,-32.085637,-0.090000,-0.200000,9.950000,0.000000,0.020000,-0.010000,0.030000,-0.020000,111235,1,1,0,1139134,3,CD
AB,90.527334,-178.762826,-32.085637,-0.100000,-0.200000,9.940000,0.000000,0.010000,0.000000,0.030000,-0.880000,111771,1,1,0,1139669,3,CD
AB,90.527334,-178.762826,-32.085637,-0.090000,-0.190000,9.960000,0.000000,0.000000,0.000000,0.000000,-0.650000,112307,1,1,0,1140206,4,CD
AB,90.527334,-178.762826,-32.085637,-0.100000,-0.200000,9.940000,0.000000,0.010000,-0.010000,0.000000,-0.250000,112843,1,1,0,1140742,4,CD
AB,90.527334,-178.762826,-32.085637,-0.090000,-0.210000,9.930000,0.000000,0.000000,0.000000,-0.010000,-0.930000,113379,1,1,0,1141278,4,CD
AB,90.527334,-178.762826,-32.658594,-0.090000,-0.200000,9.940000,-0.010000,0.010000,-0.010000,0.000000,0.380000,113915,1,1,0,1141815,4,CD
AB,90.527334,-178.762826,-32.658594,-0.090000,-0.200000,9.930000,0.000000,0.000000,0.000000,0.000000,0.090000,114452,1,1,0,1142351,4,CD
AB,90.527334,-178.762826,-32.658594,-0.090000,-0.190000,9.940000,-0.010000,0.000000,0.000000,-0.010000,-0.800000,114988,1,1,0,1142887,4,CD
AB,90.527334,-178.189868,-32.658594,-0.100000,-0.180000,9.940000,0.000000,0.040000,-0.010000,0.000000,0.340000,115524,1,1,0,1143423,4,CD
AB,90.527334,-178.762826,-32.658594,-0.100000,-0.200000,9.940000,0.000000,0.000000,0.000000,0.000000,-0.230000,116060,1,1,0,1143960,3,CD
AB,90.527334,-178.762826,-32.658594,-0.100000,-0.180000,9.950000,0.000000,0.000000,-0.010000,-0.010000,0.020000,116597,1,1,0,1144496,3,CD
AB,90.527334,-178.762826,-32.658594,-0.110000,-0.200000,9.940000,0.000000,0.000000,0.000000,-0.010000,-0.420000,117133,1,1,0,1145032,3,CD
AB,90.527334,-178.762826,-32.658594,-0.080000,-0.180000,9.940000,0.000000,0.020000,0.000000,0.000000,-0.120000,117669,1,1,0,1145568,3,CD
AB,90.527334,-178.189868,-32.658594,-0.100000,-0.200000,9.940000,0.000000,0.010000,0.000000,0.000000,-0.080000,118205,1,1,0,1146104,3,CD
AB,90.527334,-178.762826,-32.658594,-0.100000,-0.200000,9.940000,0.000000,0.010000,0.000000,-0.010000,-0.530000,118741,1,1,0,1146639,3,CD
AB,90.527334,-178.762826,-33.231551,-0.090000,-0.210000,9.940000,0.010000,-0.040000,-0.010000,-0.020000,-0.570000,119277,1,1,0,1147176,3,CD
AB,90.527334,-178.762826,-33.231551,-0.100000,-0.190000,9.960000,-0.010000,0.020000,-0.010000,-0.010000,0.190000,119813,1,1,0,1147711,3,CD
AB,90.527334,-178.762826,-33.231551,-0.100000,-0.200000,9.950000,-0.010000,0.000000,-0.020000,-0.010000,0.650000,120350,1,1,0,1148249,3,CD
AB,90.527334,-178.762826,-33.231551,-0.100000,-0.180000,9.950000,-0.010000,0.010000,-0.010000,-0.010000,-0.280000,120886,1,1,0,1148784,3,CD
AB,89.954377,-178.189868,-33.804508,-0.200000,-0.560000,9.980000,-0.010000,0.020000,-0.010000,-0.020000,-0.300000,121423,1,1,0,1149321,4,CD
AB,90.527334,-179.335796,-33.804508,0.020000,-0.110000,9.930000,0.000000,0.010000,0.000000,-0.010000,0.270000,121930,1,1,0,1149915,4,CD
AB,90.527334,-178.762826,-33.804508,-0.090000,-0.210000,9.960000,0.000000,0.010000,0.000000,-0.020000,-0.570000,122552,1,1,0,1150451,4,CD
AB,90.527334,-178.762826,-33.804508,-0.100000,-0.190000,9.940000,0.000000,0.000000,0.000000,-0.010000,0.380000,123088,1,1,0,1150988,4,CD
AB,90.527334,-178.762826,-33.804508,-0.100000,-0.200000,9.940000,0.000000,0.020000,0.000000,0.000000,0.230000,123624,1,1,0,1151523,4,CD
AB,90.527334,-178.762826,-34.377469,-0.100000,-0.200000,9.950000,0.000000,0.000000,0.000000,0.000000,0.080000,124161,1,1,0,1152060,4,CD
AB,90.527334,-178.762826,-34.377469,-0.080000,-0.200000,9.940000,0.000000,0.000000,-0.010000,0.000000,-0.240000,124697,1,1,0,1152596,4,CD
AB,90.527334,-178.189868,-34.377469,-0.090000,-0.220000,9.920000,0.000000,0.030000,0.000000,0.000000,0.140000,125233,1,1,0,1153132,3,CD
AB,90.527334,-178.762826,-34.377469,-0.090000,-0.200000,9.950000,0.000000,-0.020000,0.000000,-0.040000,-0.840000,125769,1,1,0,1153668,3,CD
AB,90.527334,-178.762826,-34.377469,-0.100000,-0.190000,9.940000,0.000000,-0.010000,0.000000,-0.020000,0.360000,126305,1,1,0,1154204,3,CD
AB,90.527334,-178.189868,-34.950426,-0.110000,-0.200000,9.960000,0.000000,0.010000,0.000000,-0.020000,-0.160000,126842,1,1,0,1154741,3,CD
AB,90.527334,-178.762826,-34.950426,-0.100000,-0.210000,9.930000,0.000000,0.000000,-0.010000,-0.010000,0.500000,127378,1,1,0,1155277,3,CD
AB,90.527334,-178.762826,-34.950426,-0.100000,-0.190000,9.940000,0.010000,-0.020000,0.010000,-0.030000,-0.570000,127914,1,1,0,1155812,3,CD
AB,90.527334,-178.762826,-35.523384,-0.100000,-0.190000,9.950000,-0.010000,0.000000,0.000000,0.000000,0.410000,128451,1,1,0,1156349,3,CD
AB,90.527334,-178.762826,-35.523384,-0.110000,-0.200000,9.950000,0.000000,-0.050000,0.000000,-0.010000,0.540000,128986,1,1,0,1156884,3,CD
AB,90.527334,-178.762826,-35.523384,-0.100000,-0.200000,9.940000,0.000000,-0.030000,0.000000,0.000000,-0.150000,129522,1,1,0,1157421,3,CD
AB,90.527334,-178.189868,-35.523384,-0.090000,-0.190000,9.930000,0.000000,0.020000,0.000000,-0.020000,-0.320000,130058,1,1,0,1157957,4,CD
AB,90.527334,-178.762826,-35.523384,-0.120000,-0.200000,9.960000,0.000000,0.020000,-0.010000,-0.020000,0.150000,130595,1,1,0,1158495,4,CD
AB,90.527334,-178.762826,-36.096341,-0.090000,-0.190000,9.930000,0.000000,0.010000,0.000000,0.000000,-0.410000,131132,1,1,0,1159031,4,CD
AB,90.527334,-178.189868,-36.096341,-0.100000,-0.190000,9.930000,0.000000,0.000000,0.000000,0.000000,-0.260000,131668,1,1,0,1159567,4,CD
AB,90.527334,-178.189868,-36.096341,-0.090000,-0.210000,9.940000,0.000000,-0.010000,0.000000,0.010000,0.540000,132204,1,1,0,1160103,4,CD
AB,90.527334,-178.762826,-36.096341,-0.120000,-0.210000,9.950000,0.000000,-0.010000,0.000000,-0.020000,-0.660000,132740,1,1,0,1160640,3,CD
AB,89.954377,-178.762826,-36.096341,-0.100000,-0.190000,9.940000,0.000000,0.010000,0.000000,0.000000,0.300000,133276,1,1,0,1161175,3,CD
AB,90.527334,-178.762826,-36.669298,-0.100000,-0.190000,9.950000,0.000000,0.000000,0.000000,0.000000,0.000000,133813,1,1,0,1161711,3,CD
AB,90.527334,-178.189868,-36.669298,-0.100000,-0.200000,9.940000,0.000000,0.000000,0.000000,0.000000,0.270000,134348,1,1,0,1162247,3,CD
AB,90.527334,-178.189868,-36.669298,-0.100000,-0.190000,9.930000,-0.010000,0.000000,-0.010000,0.000000,-0.060000,134884,1,1,0,1162783,3,CD
AB,90.527334,-178.762826,-37.242255,-0.090000,-0.210000,9.940000,0.000000,0.000000,0.000000,0.010000,-0.230000,135420,1,1,0,1163319,3,CD
AB,89.954377,-178.189868,-37.242255,-0.110000,-0.200000,9.950000,0.000000,0.010000,0.000000,0.010000,-0.190000,135956,1,1,0,1163855,3,CD
AB,89.954377,-178.762826,-37.242255,-0.090000,-0.200000,9.940000,0.000000,0.000000,0.000000,-0.010000,-0.390000,136492,1,1,0,1164390,3,CD
AB,90.527334,-178.762826,-37.242255,-0.090000,-0.200000,9.930000,0.000000,-0.010000,0.000000,0.000000,0.530000,137028,1,1,0,1164927,3,CD
AB,90.527334,-178.762826,-37.242255,-0.100000,-0.200000,9.940000,0.000000,-0.020000,0.000000,-0.010000,0.060000,137565,1,1,0,1165463,3,CD
AB,89.954377,-178.189868,-37.242255,-0.080000,-0.220000,9.940000,0.000000,0.010000,0.000000,0.000000,0.100000,138101,1,1,0,1166000,3,CD
AB,91.673249,-177.043954,-37.242255,0.130000,-0.170000,9.940000,0.000000,0.000000,-0.040000,0.000000,0.550000,138637,1,1,0,1166535,3,CD
AB,89.954377,-178.762826,-37.242255,0.020000,-0.200000,9.930000,0.000000,0.010000,-0.020000,-0.030000,-1.030000,139173,1,1,0,1167072,3,CD
AB,90.527334,-178.189868,-37.815216,-0.080000,-0.140000,9.940000,0.000000,0.000000,0.000000,0.010000,0.780000,139711,1,1,0,1167609,3,CD
AB,90.527334,-178.189868,-37.815216,-0.130000,-0.140000,9.960000,0.010000,0.000000,-0.020000,0.000000,-0.200000,140246,1,1,0,1168144,3,CD
AB,90.527334,-178.762826,-37.815216,-0.190000,-0.180000,9.930000,0.000000,0.000000,0.000000,0.000000,0.140000,140783,1,1,0,1168681,3,CD
AB,89.954377,-178.762826,-37.815216,-0.120000,-0.210000,9.950000,0.000000,-0.020000,-0.010000,0.000000,0.090000,141318,1,1,0,1169216,3,CD
AB,90.527334,-178.762826,-37.815216,-0.100000,-0.210000,9.950000,0.000000,-0.010000,0.000000,-0.010000,-0.330000,141855,1,1,0,1169753,3,CD
AB,90.527334,-178.189868,-37.815216,-0.100000,-0.220000,9.950000,-0.010000,0.020000,0.000000,-0.010000,0.350000,142390,1,1,0,1170288,3,CD
AB,89.954377,-178.762826,-37.815216,-0.070000,-0.220000,9.940000,0.000000,-0.010000,0.000000,0.000000,0.260000,142926,1,1,0,1170826,4,CD
AB,90.527334,-178.762826,-38.388173,-0.100000,-0.190000,9.950000,0.010000,-0.030000,0.010000,0.000000,0.370000,143462,1,1,0,1171361,4,CD
AB,90.527334,-178.762826,-37.815216,-0.110000,-0.190000,9.960000,0.000000,0.000000,-0.010000,0.010000,0.750000,143999,1,1,0,1171898,4,CD
AB,89.954377,-178.189868,-38.388173,-0.100000,-0.190000,9.950000,0.000000,0.010000,0.000000,0.000000,0.370000,144535,1,1,0,1172434,4,CD
AB,89.954377,-178.762826,-38.388173,-0.100000,-0.210000,9.940000,0.000000,0.000000,0.000000,0.000000,-0.320000,145071,1,1,0,1172970,4,CD
AB,90.527334,-178.189868,-38.388173,-0.120000,-0.210000,9.930000,0.000000,0.000000,0.000000,0.000000,0.470000,145607,1,1,0,1173506,4,CD
AB,89.954377,-178.762826,-38.388173,-0.090000,-0.210000,9.950000,0.010000,0.020000,0.000000,0.010000,0.400000,146144,1,1,0,1174043,3,CD
AB,90.527334,-178.189868,-38.961130,-0.100000,-0.210000,9.930000,-0.010000,0.020000,-0.010000,0.000000,-0.500000,146680,1,1,0,1174579,3,CD
AB,90.527334,-178.762826,-38.961130,-0.090000,-0.190000,9.950000,0.000000,0.000000,0.000000,0.000000,0.110000,147216,1,1,0,1175115,3,CD
AB,90.527334,-178.189868,-39.534088,-0.110000,-0.200000,9.950000,0.000000,-0.010000,0.000000,0.010000,0.540000,147752,1,1,0,1175651,3,CD
AB,89.954377,-178.189868,-39.534088,-0.090000,-0.230000,9.950000,0.000000,0.010000,0.010000,-0.010000,-0.370000,148288,1,1,0,1176187,3,CD
AB,90.527334,-178.189868,-39.534088,-0.130000,-0.180000,9.930000,-0.020000,0.000000,0.000000,0.020000,0.110000,148824,1,1,0,1176722,3,CD
AB,89.954377,-178.189868,-39.534088,-0.200000,-0.070000,9.930000,0.010000,0.000000,0.040000,0.010000,0.370000,149360,1,1,0,1177259,3,CD
AB,89.954377,-178.189868,-39.534088,-0.110000,-0.170000,9.930000,0.000000,0.000000,0.000000,0.040000,-0.010000,149896,1,1,0,1177795,3,CD
AB,90.527334,-178.762826,-39.534088,-0.110000,-0.210000,9.960000,0.000000,-0.010000,-0.010000,0.010000,-0.270000,150432,1,1,0,1178331,3,CD
AB,90.527334,-178.189868,-39.534088,-0.100000,-0.220000,9.940000,-0.010000,0.000000,0.000000,0.030000,0.310000,150968,1,1,0,1178867,3,CD
AB,89.954377,-178.762826,-39.534088,-0.100000,-0.190000,9.960000,0.000000,-0.010000,0.000000,0.030000,0.400000,151504,1,1,0,1179403,3,CD
AB,89.954377,-178.762826,-40.107045,-0.090000,-0.190000,9.940000,0.000000,0.000000,0.000000,0.010000,-0.790000,152040,1,1,0,1179939,3,CD
AB,90.527334,-178.762826,-39.534088,-0.090000,-0.190000,9.940000,0.000000,0.000000,-0.010000,0.030000,0.000000,152577,1,1,0,1180475,3,CD
AB,90.527334,-178.762826,-40.107045,-0.100000,-0.210000,9.930000,0.000000,0.000000,0.000000,0.010000,-1.160000,152919,1,1,0,1181020,3,CD
AB,90.527334,-178.762826,-40.107045,-0.100000,-0.210000,9.940000,-0.010000,-0.020000,0.000000,0.040000,0.430000,153658,1,1,0,1181556,3,CD
AB,90.527334,-178.762826,-40.107045,-0.070000,-0.200000,9.940000,0.000000,0.010000,-0.010000,0.040000,-0.040000,154194,1,1,0,1182093,3,CD
AB,89.954377,-178.189868,-40.107045,-0.110000,-0.200000,9.930000,0.000000,0.020000,0.000000,0.030000,-0.800000,154730,1,1,0,1182628,3,CD
AB,89.954377,-178.762826,-40.107045,-0.100000,-0.200000,9.940000,0.000000,0.000000,0.000000,0.040000,0.480000,155266,1,1,0,1183165,3,CD
AB,89.954377,-178.189868,-40.680002,-0.080000,-0.220000,9.930000,0.000000,0.000000,-0.010000,0.040000,0.220000,155802,1,1,0,1183701,4,CD
AB,89.954377,-178.762826,-40.680002,-0.100000,-0.190000,9.940000,-0.010000,0.010000,0.000000,0.000000,-0.570000,156338,1,1,0,1184238,4,CD
AB,89.954377,-178.762826,-40.680002,-0.080000,-0.190000,9.940000,0.000000,0.000000,0.000000,0.010000,-0.280000,156875,1,1,0,1184774,4,CD
AB,90.527334,-178.762826,-40.680002,-0.100000,-0.200000,9.930000,0.000000,0.000000,-0.010000,0.040000,0.560000,157411,1,1,0,1185311,4,CD
AB,89.954377,-178.189868,-41.252963,-0.080000,-0.210000,9.950000,0.000000,0.020000,0.000000,0.020000,-0.750000,157947,1,1,0,1185846,4,CD
AB,89.954377,-178.762826,-41.252963,-0.090000,-0.190000,9.940000,0.000000,0.000000,0.000000,0.010000,-0.460000,158483,1,1,0,1186383,4,CD
AB,89.954377,-178.189868,-41.252963,-0.100000,-0.200000,9.950000,0.000000,0.010000,0.000000,0.020000,0.220000,159020,1,1,0,1186919,4,CD
AB,89.954377,-178.189868,-41.252963,-0.090000,-0.190000,9.940000,0.000000,0.010000,-0.010000,0.010000,0.380000,159556,1,1,0,1187455,4,CD
AB,89.954377,-178.762826,-41.252963,-0.090000,-0.190000,9.940000,0.000000,-0.010000,0.000000,0.020000,-0.330000,160092,1,1,0,1187991,4,CD
AB,90.527334,-178.762826,-41.252963,-0.090000,-0.210000,9.950000,0.000000,-0.010000,0.000000,0.010000,-0.040000,160629,1,1,0,1188528,4,CD
AB,90.527334,-178.762826,-41.252963,-0.100000,-0.190000,9.920000,0.000000,-0.010000,0.000000,0.010000,-0.210000,161165,1,1,0,1189064,4,CD
AB,89.954377,-178.189868,-41.252963,-0.100000,-0.200000,9.950000,0.000000,0.010000,0.000000,0.030000,0.240000,161701,1,1,0,1189600,4,CD
AB,89.954377,-178.762826,-41.252963,-0.100000,-0.210000,9.940000,-0.010000,0.000000,0.000000,0.010000,-0.240000,162237,1,1,0,1190136,3,CD
AB,89.954377,-178.189868,-41.252963,-0.080000,-0.200000,9.950000,0.000000,0.000000,-0.010000,0.020000,0.190000,162773,1,1,0,1190672,3,CD
AB,89.954377,-178.762826,-41.825920,-0.100000,-0.200000,9.940000,0.000000,0.000000,-0.010000,0.010000,-0.750000,163122,1,1,0,1191222,3,CD
AB,89.954377,-178.762826,-41.825920,-0.110000,-0.200000,9.940000,0.000000,0.000000,0.000000,0.010000,-0.830000,163860,1,1,0,1191759,3,CD
AB,89.954377,-178.762826,-41.825920,-0.100000,-0.180000,9.940000,0.000000,0.000000,0.000000,0.020000,0.370000,164352,1,1,0,1192331,3,CD
AB,89.954377,-178.189868,-41.825920,-0.080000,-0.210000,9.940000,0.000000,0.000000,0.000000,0.020000,-0.450000,164968,1,1,0,1192867,3,CD
AB,89.954377,-178.762826,-41.825920,-0.090000,-0.210000,9.930000,0.000000,-0.010000,0.000000,0.030000,0.160000,165504,1,1,0,1193402,3,CD
AB,89.954377,-178.189868,-41.825920,-0.100000,-0.200000,9.950000,0.000000,0.010000,0.010000,0.030000,-0.040000,166040,1,1,0,1193939,3,CD
AB,90.527334,-178.189868,-42.398877,-0.100000,-0.190000,9.950000,0.000000,0.000000,0.000000,0.020000,0.070000,166576,1,1,0,1194475,3,CD
AB,89.954377,-178.189868,-42.398877,-0.110000,-0.200000,9.940000,-0.010000,0.000000,-0.010000,0.010000,-0.440000,167112,1,1,0,1195011,3,CD
AB,89.954377,-178.189868,-42.398877,-0.090000,-0.200000,9.950000,0.000000,0.000000,0.000000,0.020000,0.010000,167648,1,1,0,1195547,3,CD
AB,89.954377,-178.189868,-42.398877,-0.090000,-0.190000,9.950000,0.000000,0.000000,0.000000,0.010000,-0.250000,168184,1,1,0,1196083,3,CD
AB,89.954377,-178.189868,-42.398877,-0.100000,-0.190000,9.940000,0.000000,0.010000,0.000000,0.030000,0.100000,168721,1,1,0,1196620,3,CD
AB,90.527334,-178.189868,-42.398877,-0.090000,-0.200000,9.940000,0.000000,-0.010000,-0.010000,0.010000,-0.070000,169257,1,1,0,1197155,3,CD
AB,89.954377,-178.189868,-42.398877,-0.090000,-0.210000,9.930000,0.000000,0.000000,0.000000,0.030000,0.820000,169793,1,1,0,1197692,3,CD
AB,90.527334,-178.762826,-42.398877,-0.100000,-0.190000,9.940000,-0.010000,0.000000,0.000000,0.040000,0.340000,170329,1,1,0,1198227,3,CD
AB,90.527334,-178.189868,-42.971835,-0.090000,-0.200000,9.950000,-0.010000,-0.010000,0.000000,0.020000,0.150000,170865,1,1,0,1198764,3,CD
AB,89.954377,-178.189868,-42.971835,-0.110000,-0.200000,9.950000,0.000000,0.000000,0.000000,0.030000,0.050000,171401,1,1,0,1199299,3,CD
AB,89.954377,-178.189868,-42.971835,-0.100000,-0.200000,9.940000,0.000000,-0.030000,-0.010000,0.020000,-0.160000,171937,1,1,0,1199836,3,CD
AB,89.954377,-178.189868,-42.971835,-0.100000,-0.190000,9.960000,0.000000,0.010000,0.000000,0.020000,0.230000,172473,1,1,0,1200372,4,CD
AB,89.954377,-178.762826,-42.971835,-0.100000,-0.210000,9.940000,0.000000,0.000000,-0.020000,0.000000,-0.270000,173009,1,1,0,1200909,4,CD
AB,89.954377,-178.762826,-42.971835,-0.090000,-0.200000,9.960000,0.000000,0.000000,0.010000,0.000000,-0.120000,173546,1,1,0,1201445,4,CD
AB,89.954377,-178.189868,-42.971835,-0.100000,-0.190000,9.940000,0.000000,0.010000,0.000000,0.000000,-0.950000,174082,1,1,0,1201982,4,CD
AB,89.954377,-178.762826,-43.544792,-0.110000,-0.190000,9.940000,0.010000,0.000000,0.000000,0.020000,0.260000,174618,1,1,0,1202518,4,CD
AB,89.954377,-178.762826,-43.544792,-0.110000,-0.200000,9.930000,0.000000,0.000000,0.000000,0.000000,0.380000,175154,1,1,0,1203054,4,CD
AB,89.954377,-178.189868,-43.544792,-0.100000,-0.200000,9.940000,0.000000,0.000000,0.000000,0.020000,0.450000,175691,1,1,0,1203590,4,CD
AB,89.954377,-178.189868,-43.544792,-0.110000,-0.210000,9.940000,0.000000,-0.020000,0.000000,0.020000,0.540000,176227,1,1,0,1204126,4,CD
AB,89.954377,-178.189868,-43.544792,-0.080000,-0.210000,9.930000,0.000000,0.000000,0.000000,0.020000,0.110000,176763,1,1,0,1204663,3,CD
AB,89.954377,-178.762826,-43.544792,-0.090000,-0.190000,9.960000,0.000000,0.000000,0.000000,0.010000,0.870000,177299,1,1,0,1205198,3,CD
AB,89.954377,-178.762826,-43.544792,-0.100000,-0.210000,9.940000,0.000000,0.010000,-0.010000,0.030000,0.060000,177836,1,1,0,1205735,3,CD
AB,89.954377,-178.189868,-44.117749,-0.100000,-0.210000,9.940000,0.000000,0.000000,0.000000,0.010000,-0.120000,178372,1,1,0,1206271,3,CD
AB,89.954377,-178.189868,-44.117749,-0.110000,-0.210000,9.950000,0.000000,0.000000,0.000000,0.030000,-0.060000,178909,1,1,0,1206806,3,CD
AB,89.954377,-178.762826,-44.117749,-0.100000,-0.210000,9.940000,-0.010000,0.000000,-0.010000,0.010000,-0.050000,179444,1,1,0,1207343,3,CD
AB,89.954377,-178.762826,-44.117749,-0.100000,-0.220000,9.950000,0.000000,0.000000,0.000000,0.020000,0.250000,179981,1,1,0,1207878,3,CD
AB,89.954377,-178.189868,-44.117749,-0.080000,-0.200000,9.950000,0.000000,0.000000,0.010000,0.020000,-0.660000,180516,1,1,0,1208415,3,CD
AB,89.954377,-178.189868,-44.117749,-0.070000,-0.200000,9.940000,0.000000,0.000000,0.000000,0.030000,-0.220000,181052,1,1,0,1208950,3,CD
AB,89.954377,-178.189868,-44.117749,-0.090000,-0.200000,9.950000,0.010000,0.010000,0.000000,0.030000,0.820000,181589,1,1,0,1209488,4,CD
AB,89.954377,-178.189868,-44.690706,-0.090000,-0.200000,9.940000,0.000000,0.010000,0.000000,0.020000,-0.470000,182125,1,1,0,1210024,4,CD
AB,89.954377,-178.189868,-44.690706,-0.070000,-0.210000,9.940000,0.000000,0.000000,0.000000,0.010000,-0.630000,182661,1,1,0,1210561,4,CD
AB,89.954377,-178.762826,-44.690706,-0.100000,-0.210000,9.950000,0.010000,-0.020000,0.000000,0.020000,0.150000,183197,1,1,0,1211096,4,CD
AB,89.954377,-178.189868,-44.690706,-0.090000,-0.200000,9.920000,0.000000,0.000000,0.000000,0.030000,0.470000,183733,1,1,0,1211633,4,CD
AB,89.954377,-178.189868,-44.690706,-0.090000,-0.220000,9.930000,0.000000,0.000000,0.000000,0.010000,0.410000,184269,1,1,0,1212168,4,CD
AB,89.954377,-178.189868,-44.690706,-0.090000,-0.200000,9.930000,-0.010000,0.000000,0.000000,0.010000,0.160000,184805,1,1,0,1212704,4,CD
AB,89.954377,-178.762826,-44.690706,-0.080000,-0.210000,9.950000,0.000000,0.000000,0.000000,0.020000,0.400000,185341,1,1,0,1213240,4,CD
AB,89.954377,-178.762826,-44.690706,-0.110000,-0.190000,9.960000,0.000000,0.010000,-0.010000,0.010000,-0.040000,185877,1,1,0,1213777,4,CD
AB,89.954377,-178.189868,-45.263667,-0.090000,-0.190000,9.950000,-0.010000,0.000000,-0.010000,0.010000,-0.060000,186414,1,1,0,1214313,3,CD
AB,89.954377,-178.762826,-45.263667,-0.100000,-0.200000,9.940000,0.000000,-0.010000,-0.010000,0.030000,0.280000,186950,1,1,0,1214849,3,CD
AB,89.954377,-178.762826,-45.263667,-0.100000,-0.200000,9.950000,0.010000,-0.030000,0.000000,0.010000,-0.090000,187486,1,1,0,1215385,3,CD
AB,89.954377,-178.762826,-45.263667,-0.100000,-0.210000,9.930000,0.000000,0.000000,0.000000,0.040000,0.210000,188022,1,1,0,1215921,3,CD
AB,89.954377,-178.762826,-45.263667,-0.100000,-0.200000,9.950000,0.000000,0.020000,0.000000,0.020000,0.100000,188559,1,1,0,1216458,3,CD
AB,89.954377,-178.189868,-45.263667,-0.120000,-0.200000,9.940000,0.000000,-0.010000,0.000000,0.030000,-0.110000,189095,1,1,0,1216994,3,CD
AB,89.954377,-178.762826,-45.263667,-0.080000,-0.220000,9.920000,0.000000,0.010000,0.000000,0.000000,-1.070000,189631,1,1,0,1217530,3,CD
AB,89.954377,-178.189868,-45.263667,-0.110000,-0.210000,9.960000,0.000000,-0.010000,-0.010000,0.040000,0.990000,190168,1,1,0,1218066,3,CD
AB,89.954377,-178.189868,-45.263667,-0.090000,-0.200000,9.950000,-0.010000,0.010000,0.000000,0.040000,0.450000,190705,1,1,0,1218603,3,CD
AB,89.954377,-178.762826,-45.263667,-0.100000,-0.190000,9.960000,0.000000,-0.020000,0.000000,0.040000,0.100000,191240,1,1,0,1219140,4,CD
AB,89.954377,-178.189868,-45.836624,-0.110000,-0.200000,9.950000,0.000000,0.000000,-0.010000,0.030000,-0.510000,191776,1,1,0,1219675,4,CD
AB,89.954377,-178.189868,-45.836624,-0.100000,-0.190000,9.940000,0.000000,0.000000,0.000000,0.010000,-0.110000,192312,1,1,0,1220211,4,CD
AB,89.954377,-178.189868,-45.836624,-0.090000,-0.190000,9.950000,0.000000,-0.030000,0.000000,0.030000,-0.020000,192849,1,1,0,1220749,4,CD
AB,89.954377,-178.189868,-45.836624,-0.100000,-0.210000,9.940000,0.000000,0.000000,0.000000,0.010000,-0.760000,193385,1,1,0,1221284,3,CD
AB,89.954377,-178.762826,-45.836624,-0.080000,-0.200000,9.940000,0.000000,0.000000,0.000000,0.030000,-0.240000,193728,1,1,0,1221829,3,CD
AB,89.954377,-178.189868,-45.836624,-0.090000,-0.210000,9.940000,0.000000,0.000000,-0.010000,0.020000,-0.880000,194466,1,1,0,1222365,3,CD
AB,89.954377,-178.189868,-45.836624,-0.090000,-0.200000,9.940000,0.000000,0.000000,0.000000,0.020000,-0.090000,195003,1,1,0,1222902,3,CD
AB,89.954377,-178.189868,-46.409582,-0.090000,-0.190000,9.950000,0.000000,0.000000,-0.010000,0.040000,0.060000,195539,1,1,0,1223438,3,CD
AB,89.954377,-178.762826,-46.409582,-0.090000,-0.190000,9.940000,0.000000,-0.020000,0.000000,0.030000,-0.350000,196075,1,1,0,1223974,3,CD
AB,89.954377,-178.189868,-46.409582,-0.100000,-0.200000,9.940000,0.000000,0.010000,0.000000,0.030000,0.120000,196611,1,1,0,1224510,3,CD
AB,89.954377,-178.762826,-46.409582,-0.110000,-0.200000,9.950000,-0.010000,-0.010000,0.000000,0.030000,0.000000,197147,1,1,0,1225045,3,CD
AB,89.954377,-178.762826,-46.409582,-0.070000,-0.200000,9.940000,0.000000,-0.010000,0.000000,0.020000,0.020000,197683,1,1,0,1225582,3,CD
AB,89.954377,-178.762826,-46.409582,-0.110000,-0.200000,9.940000,0.000000,0.040000,0.000000,0.020000,-0.710000,198219,1,1,0,1226118,3,CD
AB,89.954377,-178.189868,-46.409582,-0.090000,-0.200000,9.940000,0.000000,0.010000,0.000000,0.030000,-0.090000,198755,1,1,0,1226655,4,CD
AB,89.954377,-178.189868,-46.982539,-0.080000,-0.200000,9.940000,0.000000,0.000000,0.000000,0.030000,-0.100000,199292,1,1,0,1227191,4,CD
AB,89.954377,-178.762826,-46.982539,-0.120000,-0.220000,9.960000,0.000000,0.000000,0.000000,0.030000,-0.090000,199828,1,1,0,1227728,4,CD
AB,89.954377,-178.762826,-46.982539,-0.080000,-0.190000,9.950000,0.000000,0.000000,0.000000,0.030000,0.000000,200364,1,1,0,1228263,4,CD
AB,89.954377,-178.762826,-46.982539,-0.120000,-0.210000,9.950000,0.010000,-0.010000,0.000000,0.030000,-0.020000,200900,1,1,0,1228800,4,CD
AB,89.954377,-178.189868,-47.555496,-0.070000,-0.190000,9.940000,-0.010000,0.000000,0.000000,0.030000,0.080000,201437,1,1,0,1229336,4,CD
AB,89.954377,-178.189868,-47.555496,-0.110000,-0.200000,9.950000,-0.020000,0.000000,0.000000,0.050000,0.280000,201973,1,1,0,1229872,4,CD
AB,89.954377,-178.189868,-47.555496,-0.080000,-0.210000,9.940000,0.000000,-0.020000,0.000000,0.020000,-0.170000,202471,1,1,0,1230449,3,CD
AB,89.954377,-178.189868,-47.555496,-0.100000,-0.200000,9.950000,-0.010000,0.010000,0.000000,0.040000,0.440000,203087,1,1,0,1230986,3,CD
AB,89.954377,-178.762826,-47.555496,-0.100000,-0.210000,9.940000,0.000000,-0.010000,0.000000,0.040000,-0.700000,203624,1,1,0,1231522,3,CD
AB,89.954377,-178.189868,-47.555496,-0.080000,-0.210000,9.940000,0.000000,0.010000,0.000000,0.050000,1.050000,204159,1,1,0,1232058,3,CD
AB,89.954377,-178.189868,-47.555496,-0.090000,-0.200000,9.940000,0.000000,0.010000,0.000000,0.030000,0.040000,204696,1,1,0,1232594,3,CD
AB,89.954377,-178.189868,-47.555496,-0.120000,-0.190000,9.950000,0.000000,-0.010000,0.000000,0.050000,0.260000,205232,1,1,0,1233131,3,CD
AB,89.954377,-178.189868,-48.128453,-0.070000,-0.190000,9.950000,0.010000,0.000000,0.000000,0.050000,-0.310000,205768,1,1,0,1233667,3,CD
AB,89.954377,-178.189868,-48.128453,-0.130000,-0.200000,9.940000,-0.010000,0.000000,-0.010000,0.040000,-0.340000,206304,1,1,0,1234203,3,CD
AB,89.954377,-178.762826,-48.128453,-0.090000,-0.190000,9.950000,0.000000,-0.010000,0.000000,0.050000,0.480000,206840,1,1,0,1234739,3,CD
AB,89.954377,-178.189868,-48.128453,-0.100000,-0.210000,9.940000,0.000000,-0.010000,-0.010000,0.060000,0.720000,207377,1,1,0,1235277,4,CD
AB,89.954377,-178.762826,-48.128453,-0.090000,-0.210000,9.940000,0.010000,-0.030000,0.000000,0.040000,-0.580000,207913,1,1,0,1235813,4,CD
AB,89.954377,-178.762826,-48.128453,-0.090000,-0.190000,9.940000,0.000000,0.000000,0.000000,0.050000,0.540000,208449,1,1,0,1236349,4,CD
AB,89.954377,-178.189868,-48.701414,-0.090000,-0.210000,9.940000,0.010000,0.000000,0.000000,0.050000,0.100000,208985,1,1,0,1236885,4,CD
AB,89.954377,-178.189868,-48.701414,-0.100000,-0.210000,9.930000,-0.010000,-0.020000,-0.010000,0.050000,0.120000,209522,1,1,0,1237422,4,CD
AB,89.954377,-178.189868,-48.701414,-0.080000,-0.200000,9.930000,0.000000,0.000000,0.000000,0.040000,-0.090000,210058,1,1,0,1237957,4,CD
AB,89.954377,-178.189868,-48.701414,-0.100000,-0.190000,9.940000,0.000000,0.000000,0.000000,0.030000,-0.670000,210594,1,1,0,1238493,4,CD
AB,89.954377,-178.189868,-49.274371,-0.100000,-0.180000,9.940000,0.000000,0.000000,0.000000,0.030000,-0.130000,211130,1,1,0,1239030,4,CD
AB,89.954377,-178.189868,-49.274371,-0.100000,-0.200000,9.940000,0.000000,0.000000,0.000000,0.030000,0.110000,211667,1,1,0,1239567,3,CD
AB,89.954377,-178.189868,-49.847328,-0.090000,-0.200000,9.950000,0.000000,0.020000,-0.010000,0.040000,-0.180000,212203,1,1,0,1240102,3,CD
AB,89.954377,-178.762826,-49.847328,-0.100000,-0.190000,9.940000,0.000000,0.000000,0.000000,0.030000,0.060000,212739,1,1,0,1240639,3,CD
AB,89.954377,-178.189868,-49.847328,-0.100000,-0.210000,9.930000,-0.010000,0.010000,0.000000,0.010000,-0.130000,213275,1,1,0,1241174,3,CD
AB,89.954377,-178.189868,-49.847328,-0.090000,-0.220000,9.940000,0.000000,0.020000,0.000000,0.010000,0.470000,213811,1,1,0,1241710,3,CD
AB,89.954377,-178.762826,-49.847328,-0.100000,-0.220000,9.940000,0.000000,0.000000,-0.010000,0.030000,0.480000,214347,1,1,0,1242246,3,CD
AB,89.954377,-178.762826,-49.847328,-0.090000,-0.220000,9.940000,0.000000,0.010000,0.000000,0.040000,0.090000,214883,1,1,0,1242782,3,CD
AB,89.954377,-178.189868,-49.847328,-0.070000,-0.200000,9.940000,0.010000,0.000000,0.000000,0.040000,-0.090000,215419,1,1,0,1243318,3,CD
AB,89.954377,-178.762826,-49.847328,-0.090000,-0.120000,9.940000,0.000000,0.030000,0.000000,0.010000,-0.590000,215955,1,1,0,1243854,3,CD
AB,89.954377,-178.189868,-49.847328,-0.070000,-0.220000,9.940000,0.000000,-0.010000,0.000000,0.040000,0.470000,216491,1,1,0,1244391,4,CD
AB,89.954377,-178.762826,-49.847328,-0.080000,-0.200000,9.950000,0.000000,0.000000,0.000000,0.020000,-0.010000,217027,1,1,0,1244927,4,CD
AB,89.954377,-178.189868,-49.847328,-0.090000,-0.200000,9.960000,0.000000,0.010000,-0.010000,0.040000,0.430000,217563,1,1,0,1245462,4,CD
AB,89.954377,-178.189868,-49.847328,-0.100000,-0.190000,9.940000,0.000000,0.010000,-0.010000,0.010000,-0.090000,218099,1,1,0,1245999,4,CD
AB,89.954377,-178.189868,-50.420286,-0.100000,-0.210000,9.950000,0.000000,0.000000,-0.010000,0.010000,0.360000,218635,1,1,0,1246534,4,CD
AB,89.954377,-178.189868,-50.420286,-0.110000,-0.200000,9.940000,0.000000,0.030000,-0.010000,0.000000,-0.050000,219171,1,1,0,1247071,4,CD
AB,89.954377,-178.189868,-50.420286,-0.090000,-0.210000,9.940000,0.000000,-0.010000,0.000000,0.020000,-0.520000,219707,1,1,0,1247606,4,CD
AB,89.954377,-178.189868,-50.993243,-0.090000,-0.200000,9.940000,0.000000,0.000000,0.000000,0.010000,0.000000,220243,1,1,0,1248143,3,CD
AB,89.954377,-178.189868,-50.993243,-0.100000,-0.200000,9.950000,0.000000,0.010000,-0.010000,0.010000,0.160000,220779,1,1,0,1248678,3,CD
AB,89.954377,-178.189868,-50.993243,-0.080000,-0.190000,9.930000,0.000000,0.000000,0.000000,0.020000,-0.060000,221316,1,1,0,1249215,3,CD
AB,89.954377,-178.189868,-50.993243,-0.080000,-0.210000,9.940000,0.000000,0.000000,0.000000,0.000000,0.310000,221851,1,1,0,1249750,3,CD
AB,89.954377,-178.189868,-50.993243,-0.110000,-0.210000,9.940000,0.000000,0.010000,0.000000,0.020000,-0.040000,222388,1,1,0,1250287,3,CD
AB,89.954377,-178.189868,-50.993243,-0.090000,-0.190000,9.950000,0.000000,-0.010000,0.000000,0.010000,-0.330000,222924,1,1,0,1250823,3,CD
AB,89.954377,-178.189868,-50.993243,-0.100000,-0.190000,9.940000,-0.010000,0.000000,0.000000,0.010000,0.600000,223460,1,1,0,1251359,3,CD
AB,89.954377,-178.189868,-50.993243,-0.120000,-0.180000,9.930000,0.000000,0.000000,0.000000,0.000000,-0.310000,223996,1,1,0,1251895,3,CD
AB,89.954377,-178.189868,-50.993243,-0.100000,-0.200000,9.940000,0.000000,0.010000,0.000000,0.020000,0.050000,224334,1,1,0,1252434,3,CD
AB,89.954377,-178.189868,-51.566200,-0.100000,-0.180000,9.940000,0.000000,-0.010000,0.000000,0.010000,0.490000,225072,1,1,0,1252971,3,CD
AB,89.954377,-178.762826,-51.566200,-0.060000,-0.220000,9.930000,0.010000,-0.030000,0.000000,0.020000,0.530000,225607,1,1,0,1253623,4,CD
AB,89.954377,-178.189868,-51.566200,-0.110000,-0.190000,9.960000,0.000000,0.000000,0.010000,0.000000,-0.440000,226261,1,1,0,1254161,4,CD
AB,89.954377,-178.189868,-51.566200,-0.100000,-0.180000,9.950000,0.000000,-0.010000,0.000000,0.000000,-0.100000,226797,1,1,0,1254696,4,CD
AB,89.954377,-178.762826,-51.566200,-0.080000,-0.220000,9.940000,0.000000,0.000000,-0.010000,0.000000,0.210000,227333,1,1,0,1255233,3,CD
AB,90.527334,-178.189868,-52.139161,-0.070000,-0.220000,9.960000,0.000000,-0.030000,0.000000,0.000000,-0.350000,227724,1,1,0,1255803,3,CD
AB,89.954377,-178.762826,-52.139161,-0.060000,-0.220000,9.970000,0.000000,0.010000,0.000000,0.000000,-0.290000,228440,1,1,0,1256339,3,CD
AB,90.527334,-178.189868,-51.566200,-0.080000,-0.180000,9.960000,0.000000,-0.010000,0.000000,0.010000,-0.050000,228977,1,1,0,1256875,3,CD
AB,89.954377,-178.762826,-51.566200,-0.090000,-0.190000,9.950000,0.000000,0.000000,0.000000,0.000000,-0.490000,229512,1,1,0,1257411,3,CD
AB,89.954377,-178.762826,-51.566200,-0.080000,-0.200000,9.950000,0.010000,-0.010000,0.000000,0.000000,0.670000,230048,1,1,0,1257947,3,CD
AB,89.954377,-178.189868,-52.139161,-0.100000,-0.220000,9.950000,0.000000,0.000000,0.000000,0.000000,0.610000,230585,1,1,0,1258482,3,CD
AB,89.381413,-179.335796,-51.566200,-0.240000,-0.380000,9.950000,0.000000,0.000000,0.010000,-0.020000,-0.400000,231120,1,1,0,1259019,3,CD
AB,89.954377,-178.189868,-51.566200,-0.090000,-0.200000,9.940000,0.000000,0.000000,0.000000,0.000000,0.390000,231656,1,1,0,1259554,3,CD
AB,89.954377,-178.189868,-51.566200,-0.090000,-0.210000,9.940000,0.000000,-0.020000,0.000000,0.000000,0.190000,232192,1,1,0,1260091,4,CD
AB,89.954377,-178.189868,-51.566200,-0.110000,-0.200000,9.950000,0.000000,0.000000,0.000000,0.000000,-0.610000,232729,1,1,0,1260628,4,CD
AB,89.954377,-178.762826,-51.566200,-0.110000,-0.210000,9.940000,0.000000,0.000000,0.000000,-0.010000,-0.820000,233265,1,1,0,1261165,4,CD
AB,89.954377,-178.189868,-52.139161,-0.110000,-0.210000,9.950000,0.000000,0.010000,-0.010000,0.000000,0.180000,233801,1,1,0,1261700,4,CD
AB,89.954377,-178.762826,-52.139161,-0.090000,-0.210000,9.920000,0.000000,0.000000,0.000000,0.000000,0.460000,234337,1,1,0,1262237,4,CD
AB,89.954377,-178.189868,-52.139161,-0.070000,-0.230000,9.940000,0.000000,0.000000,0.010000,-0.010000,-0.990000,234874,1,1,0,1262773,4,CD
AB,89.954377,-178.189868,-52.139161,-0.070000,-0.250000,9.940000,0.000000,0.000000,0.000000,0.000000,0.120000,235410,1,1,0,1263310,4,CD
AB,89.954377,-178.762826,-52.712118,-0.140000,-0.220000,9.950000,0.000000,-0.010000,0.000000,0.010000,0.780000,235946,1,1,0,1263845,4,CD
AB,89.954377,-178.189868,-53.285075,-0.090000,-0.180000,9.950000,0.000000,0.020000,0.000000,0.020000,0.490000,236482,1,1,0,1264382,4,CD
AB,89.954377,-178.762826,-53.285075,0.000000,-0.240000,9.950000,0.000000,0.030000,0.000000,0.000000,0.150000,237019,1,1,0,1264918,3,CD
AB,89.954377,-178.189868,-53.285075,-0.070000,-0.210000,9.940000,-0.010000,0.000000,0.000000,0.000000,0.240000,237555,1,1,0,1265455,3,CD
AB,89.954377,-178.189868,-53.285075,-0.090000,-0.110000,9.970000,-0.010000,0.020000,-0.030000,-0.020000,-0.330000,238091,1,1,0,1265990,3,CD
AB,89.954377,-178.762826,-53.858033,-0.120000,-0.190000,9.940000,0.000000,-0.030000,-0.030000,0.000000,0.270000,238627,1,1,0,1266527,3,CD
AB,89.954377,-178.189868,-53.858033,-0.090000,-0.220000,9.950000,0.000000,-0.010000,0.000000,-0.010000,-1.020000,239164,1,1,0,1267063,3,CD
AB,89.954377,-178.189868,-53.858033,-0.090000,-0.210000,9.930000,0.000000,0.000000,0.000000,0.000000,1.330000,239700,1,1,0,1267600,3,CD
AB,89.954377,-178.762826,-54.430990,-0.080000,-0.180000,9.950000,0.000000,-0.010000,-0.010000,0.020000,0.790000,240236,1,1,0,1268135,3,CD
AB,89.954377,-178.762826,-54.430990,-0.090000,-0.180000,9.930000,0.000000,0.000000,-0.010000,-0.010000,-0.570000,240772,1,1,0,1268672,3,CD
AB,89.954377,-178.762826,-54.430990,-0.100000,-0.200000,9.940000,0.000000,0.000000,0.000000,0.010000,0.930000,241308,1,1,0,1269207,3,CD
AB,89.381413,-177.616911,-54.430990,-0.240000,-0.130000,9.950000,0.000000,0.020000,0.020000,0.000000,-0.390000,241844,1,1,0,1269743,3,CD
AB,89.954377,-178.762826,-54.430990,-0.100000,-0.220000,9.950000,-0.010000,0.000000,0.000000,-0.020000,-0.600000,242380,1,1,0,1270279,3,CD
AB,89.954377,-178.189868,-54.430990,-0.110000,-0.210000,9.940000,0.000000,0.000000,0.000000,-0.010000,-0.210000,242917,1,1,0,1270817,4,CD
AB,89.954377,-178.189868,-55.003947,-0.090000,-0.200000,9.940000,0.000000,0.000000,-0.010000,-0.010000,0.180000,243454,1,1,0,1271354,4,CD
AB,89.954377,-178.189868,-55.003947,-0.080000,-0.190000,9.970000,0.000000,0.010000,0.000000,0.000000,0.850000,243990,1,1,0,1271890,4,CD
AB,89.954377,-178.189868,-55.003947,-0.100000,-0.200000,9.940000,-0.010000,0.000000,-0.010000,-0.030000,-0.680000,244526,1,1,0,1272426,4,CD
AB,89.954377,-178.762826,-57.868737,0.010000,-0.250000,8.090000,0.000000,0.000000,0.030000,-0.010000,0.110000,244728,1,1,0,1272988,4,CD
AB,88.808456,-178.762826,-55.003947,-0.150000,-0.340000,10.380000,0.000000,0.000000,-0.020000,-0.030000,0.220000,245625,1,1,0,1273525,4,CD
AB,89.381413,-178.762826,-55.003947,-0.150000,-0.200000,9.940000,0.010000,0.000000,0.040000,-0.010000,-0.110000,246161,1,1,0,1274061,4,CD
AB,89.954377,-177.616911,-53.858033,-0.160000,-0.240000,9.840000,0.000000,-0.010000,0.050000,0.000000,0.590000,246697,1,1,0,1274596,4,CD
AB,90.527334,-178.762826,-53.285075,-0.110000,-0.110000,9.930000,-0.010000,0.020000,0.090000,-0.030000,-0.130000,247233,1,1,0,1275133,4,CD
AB,88.808456,-177.616911,-52.139161,-0.270000,-0.060000,9.940000,0.000000,0.020000,0.000000,0.000000,0.560000,247769,1,1,0,1275668,3,CD
AB,90.527334,179.335796,-52.139161,-0.270000,-0.390000,8.970000,0.000000,0.020000,0.070000,-0.020000,-1.460000,248305,1,1,0,1276205,3,CD
AB,89.381413,-178.762826,-51.566200,-0.120000,-0.150000,9.960000,0.010000,-0.020000,0.030000,-0.020000,0.320000,248841,1,1,0,1276740,3,CD
AB,90.527334,-178.189868,-56.149865,-0.050000,-0.770000,9.980000,-0.040000,-0.020000,-0.930000,-0.020000,-0.410000,249377,1,1,0,1277277,3,CD
AB,91.673249,-178.762826,-54.430990,0.020000,-0.320000,9.890000,0.020000,-0.010000,0.630000,-0.040000,-0.050000,249914,1,1,0,1277813,3,CD
AB,89.381413,-178.189868,-55.003947,0.050000,0.170000,10.450000,0.020000,-0.010000,-0.570000,-0.010000,1.020000,250450,1,1,0,1278349,3,CD
AB,89.954377,-178.762826,-60.160566,-0.250000,-0.040000,10.020000,0.000000,0.000000,-0.030000,-0.040000,-0.250000,250986,1,1,0,1278885,3,CD
AB,89.954377,-178.189868,-68.754938,-0.220000,-0.190000,9.950000,0.000000,-0.020000,0.000000,0.000000,0.370000,251522,1,1,0,1279421,3,CD
AB,89.954377,-178.762826,-58.441694,-0.310000,-0.390000,10.720000,-0.040000,-0.020000,-0.430000,-0.010000,-0.410000,252058,1,1,0,1279957,3,CD
AB,88.808456,-177.616911,-60.160566,-0.210000,-0.020000,10.360000,-0.010000,-0.020000,-0.600000,-0.020000,0.250000,252594,1,1,0,1280493,3,CD
AB,89.954377,-178.189868,-65.317188,-0.300000,-0.280000,10.000000,0.050000,0.020000,-0.380000,-0.010000,-0.730000,253130,1,1,0,1281029,3,CD
AB,90.527334,-178.189868,-62.452402,-0.220000,-0.160000,9.950000,0.000000,0.010000,0.030000,0.010000,0.570000,253666,1,1,0,1281565,3,CD
AB,89.381413,-178.762826,-66.463102,-0.140000,-0.220000,9.730000,-0.010000,0.020000,-0.310000,0.030000,0.000000,254202,1,1,0,1282102,4,CD
AB,88.808456,-178.762826,-64.171273,-0.210000,-0.150000,9.930000,0.000000,-0.010000,0.000000,0.040000,0.580000,254738,1,1,0,1282638,4,CD
AB,88.808456,-177.616911,-63.025359,-0.200000,-0.120000,9.880000,0.000000,-0.010000,0.000000,0.030000,0.610000,255089,1,1,0,1283190,4,CD
AB,88.808456,-178.762826,-65.890145,-0.220000,-0.140000,9.950000,0.000000,0.040000,0.000000,0.030000,-0.260000,255827,1,1,0,1283727,4,CD
AB,88.808456,-178.189868,-64.171273,-0.070000,-0.210000,9.930000,-0.010000,0.010000,0.050000,0.040000,0.340000,256363,1,1,0,1284262,4,CD
AB,88.808456,-178.762826,-65.317188,-0.240000,-0.130000,9.940000,0.000000,0.000000,0.010000,0.030000,-0.100000,256900,1,1,0,1284799,3,CD
AB,88.808456,-178.762826,-63.598316,-0.420000,-0.410000,9.640000,0.000000,0.000000,0.020000,0.040000,0.390000,257425,1,1,0,1285430,3,CD
AB,89.381413,-178.762826,-62.452402,-0.080000,-0.140000,9.930000,0.000000,-0.020000,0.060000,0.040000,0.570000,258068,1,1,0,1285968,3,CD
AB,89.381413,-178.189868,-60.733523,-0.120000,-0.120000,9.940000,0.000000,0.000000,-0.020000,0.040000,0.420000,258604,1,1,0,1286503,3,CD
AB,89.381413,-178.189868,-61.306487,-0.120000,-0.090000,9.940000,0.000000,0.000000,-0.020000,0.040000,-1.090000,259140,1,1,0,1287039,3,CD
AB,89.381413,-178.762826,-61.879444,-0.130000,-0.140000,9.950000,0.000000,0.000000,0.000000,0.030000,-0.760000,259676,1,1,0,1287575,3,CD
AB,89.381413,-178.762826,-61.879444,-0.120000,-0.160000,9.960000,-0.010000,0.000000,0.000000,0.020000,-0.280000,260212,1,1,0,1288112,3,CD
AB,89.381413,-178.762826,-62.452402,-0.140000,-0.160000,9.950000,0.000000,0.000000,0.000000,0.020000,-0.120000,260748,1,1,0,1288647,3,CD
AB,89.381413,-178.762826,-62.452402,-0.100000,-0.190000,9.800000,0.000000,0.020000,0.010000,0.020000,0.160000,261284,1,1,0,1289183,3,CD
AB,89.381413,-178.762826,-62.452402,-0.130000,-0.150000,9.930000,0.000000,0.010000,0.000000,0.010000,0.000000,261820,1,1,0,1289720,4,CD
AB,89.381413,-178.762826,-62.452402,-0.140000,-0.170000,9.950000,0.000000,0.000000,0.000000,0.010000,-0.210000,262356,1,1,0,1290256,4,CD
AB,89.381413,-178.762826,-62.452402,-0.130000,-0.160000,9.940000,0.000000,0.000000,0.000000,0.010000,0.200000,262892,1,1,0,1290792,4,CD
AB,89.381413,-178.762826,-62.452402,-0.140000,-0.150000,9.940000,0.000000,0.000000,0.000000,0.010000,-0.710000,263428,1,1,0,1291328,4,CD
AB,89.381413,-178.762826,-62.452402,-0.140000,-0.150000,9.940000,0.000000,0.000000,0.000000,0.000000,0.220000,263964,1,1,0,1291864,4,CD
AB,89.381413,-178.762826,-62.452402,-0.120000,-0.140000,9.940000,0.000000,0.000000,0.000000,0.010000,0.030000,264500,1,1,0,1292400,4,CD
AB,89.381413,-178.762826,-62.452402,-0.110000,-0.140000,9.940000,0.000000,0.000000,-0.010000,0.010000,0.560000,265037,1,1,0,1292935,4,CD
AB,89.381413,-178.762826,-62.452402,-0.120000,-0.170000,9.960000,0.000000,0.000000,0.010000,0.040000,0.580000,265572,1,1,0,1293472,3,CD
AB,89.381413,-178.762826,-61.879444,-0.140000,-0.160000,9.940000,0.000000,0.000000,0.020000,0.020000,-0.350000,266108,1,1,0,1294007,3,CD
AB,89.381413,-178.762826,-61.879444,-0.110000,-0.120000,9.930000,0.000000,0.030000,0.000000,0.010000,-0.110000,266645,1,1,0,1294545,3,CD
AB,89.381413,-178.762826,-62.452402,-0.120000,-0.140000,9.920000,0.000000,-0.010000,0.000000,0.030000,0.100000,267181,1,1,0,1295080,3,CD
AB,89.381413,-178.762826,-62.452402,-0.120000,-0.140000,9.950000,-0.020000,0.000000,0.000000,0.030000,0.120000,267717,1,1,0,1295617,3,CD
AB,89.381413,-178.762826,-63.025359,-0.130000,-0.130000,9.940000,0.000000,0.000000,0.000000,0.020000,-0.750000,268253,1,1,0,1296152,3,CD
AB,89.381413,-178.762826,-63.025359,-0.110000,-0.150000,9.940000,-0.010000,0.000000,-0.010000,0.020000,0.330000,268790,1,1,0,1296690,3,CD
AB,89.381413,-178.762826,-63.025359,-0.140000,-0.150000,9.950000,0.000000,0.000000,0.000000,0.000000,-1.430000,269326,1,1,0,1297225,3,CD
AB,89.381413,-178.762826,-63.025359,-0.120000,-0.120000,9.950000,0.000000,-0.010000,0.000000,0.060000,1.240000,269862,1,1,0,1297762,3,CD
AB,89.381413,-178.762826,-63.025359,-0.110000,-0.130000,9.940000,0.000000,0.000000,0.000000,0.040000,0.070000,270398,1,1,0,1298297,3,CD
AB,89.381413,-178.762826,-63.025359,-0.150000,-0.160000,9.950000,0.000000,-0.010000,0.000000,0.050000,0.300000,270935,1,1,0,1298835,3,CD
AB,89.381413,-178.189868,-63.025359,-0.140000,-0.200000,9.930000,0.000000,0.000000,0.000000,0.030000,-0.390000,271471,1,1,0,1299370,3,CD
AB,89.381413,-179.335796,-63.025359,-0.150000,-0.250000,9.940000,0.000000,0.020000,-0.010000,0.030000,-0.080000,272007,1,1,0,1299907,3,CD
AB,89.381413,-178.189868,-63.025359,-0.110000,-0.090000,9.960000,0.000000,0.020000,-0.030000,0.010000,0.060000,272543,1,1,0,1300443,3,CD
AB,88.808456,-178.762826,-68.181981,-0.210000,-0.070000,9.970000,0.000000,0.000000,0.080000,0.010000,-0.200000,273081,1,1,0,1300979,3,CD
AB,88.808456,-178.189868,-65.317188,-0.180000,-0.120000,9.960000,-0.020000,0.000000,-0.010000,0.000000,-0.590000,273616,1,1,0,1301516,4,CD
AB,89.381413,-178.189868,-67.609017,-0.140000,-0.220000,9.940000,0.000000,0.000000,0.000000,0.000000,-0.040000,274152,1,1,0,1302052,4,CD
AB,88.808456,-179.908754,-71.619724,-0.150000,-0.220000,9.950000,0.010000,0.020000,-0.010000,0.010000,0.320000,274688,1,1,0,1302589,4,CD
AB,89.381413,-178.189868,-71.046767,-0.150000,-0.180000,9.880000,0.000000,0.010000,0.060000,0.000000,-0.060000,275225,1,1,0,1303125,4,CD
AB,89.381413,-178.189868,-72.192682,-0.110000,-0.240000,10.180000,0.010000,0.000000,-0.210000,0.010000,-0.780000,275761,1,1,0,1303661,4,CD
AB,89.381413,-178.189868,-69.900853,-0.560000,-0.340000,9.260000,0.030000,-0.040000,0.040000,0.000000,-0.020000,276297,1,1,0,1304197,4,CD
AB,89.954377,-179.335796,-73.911553,-0.280000,-0.110000,9.970000,0.000000,0.000000,-0.070000,0.010000,0.110000,276833,1,1,0,1304733,4,CD
AB,88.808456,-179.335796,-73.338596,-0.250000,-0.240000,9.900000,0.000000,-0.020000,0.080000,0.010000,0.260000,277369,1,1,0,1305269,4,CD
AB,88.808456,-177.043954,-65.317188,-0.240000,-0.280000,10.010000,-0.030000,0.000000,0.200000,0.010000,0.050000,277905,1,1,0,1305804,4,CD
AB,88.235498,-178.189868,-63.598316,-0.230000,-0.230000,9.830000,0.000000,-0.010000,0.290000,0.010000,0.450000,278441,1,1,0,1306341,4,CD
AB,89.954377,-178.189868,-64.171273,-0.150000,-0.240000,9.940000,0.000000,0.000000,0.000000,0.010000,0.350000,278977,1,1,0,1306876,3,CD
AB,89.381413,-178.189868,-64.171273,-0.130000,-0.300000,9.930000,0.010000,0.000000,0.040000,0.030000,-0.350000,279513,1,1,0,1307413,3,CD
AB,88.808456,-178.189868,-70.473810,-0.240000,-0.150000,9.960000,0.000000,0.000000,-0.350000,0.020000,0.080000,280049,1,1,0,1307948,3,CD
AB,88.808456,-178.762826,-69.900853,0.040000,-0.240000,9.960000,-0.020000,0.000000,0.230000,0.030000,0.330000,280585,1,1,0,1308485,3,CD
AB,89.381413,-178.189868,-70.473810,-0.130000,-0.230000,9.940000,0.000000,0.000000,-0.010000,0.010000,-0.020000,281121,1,1,0,1309021,3,CD
AB,89.381413,-179.335796,-69.327895,0.180000,0.170000,9.650000,-0.020000,0.000000,1.110000,0.000000,-0.670000,281657,1,1,0,1309557,3,CD
AB,89.381413,-178.762826,-66.463102,-0.430000,0.020000,9.940000,0.000000,0.000000,0.340000,0.000000,0.430000,282193,1,1,0,1310092,3,CD
AB,91.673249,-178.762826,-65.890145,0.020000,0.010000,11.010000,0.010000,0.020000,0.540000,-0.020000,-0.580000,282729,1,1,0,1310628,3,CD
AB,85.370712,-176.470997,-67.036060,-0.330000,-0.040000,9.840000,0.000000,0.000000,-0.020000,-0.010000,0.120000,283265,1,1,0,1311165,3,CD
AB,88.808456,-178.189868,-64.744231,-0.200000,-0.070000,9.950000,-0.010000,0.010000,0.000000,0.000000,-0.150000,283802,1,1,0,1311701,3,CD
AB,87.089584,-175.898039,-67.036060,-0.120000,-0.220000,10.010000,0.010000,0.000000,1.320000,-0.010000,-0.160000,284338,1,1,0,1312238,3,CD
AB,88.235498,-178.189868,-61.879444,0.010000,-0.130000,9.940000,0.000000,-0.010000,-0.020000,0.020000,1.280000,284874,1,1,0,1312773,3,CD
AB,88.235498,-178.189868,-72.192682,-0.240000,-0.160000,9.960000,0.000000,0.000000,-0.020000,-0.010000,-0.730000,285410,1,1,0,1313309,3,CD
AB,88.235498,-179.335796,-68.181981,0.530000,-0.610000,10.070000,0.010000,-0.040000,0.430000,0.020000,0.680000,285946,1,1,0,1313845,3,CD
AB,94.538035,-177.043954,-67.609017,-0.430000,-0.560000,10.080000,0.000000,0.020000,0.590000,0.010000,-0.530000,286482,1,1,0,1314382,4,CD
AB,90.527334,-178.189868,-61.306487,-0.150000,-0.270000,9.920000,0.000000,-0.030000,0.260000,0.020000,0.440000,287018,1,1,0,1314918,4,CD
AB,87.662541,-176.470997,-62.452402,-0.350000,-0.330000,9.940000,-0.060000,-0.010000,-0.550000,0.020000,-0.110000,287554,1,1,0,1315454,4,CD
AB,91.100291,-177.616911,-60.733523,-0.270000,-0.200000,9.950000,0.010000,0.000000,-0.010000,0.050000,0.670000,288090,1,1,0,1315990,4,CD
AB,89.381413,-178.189868,-59.587609,-0.220000,-0.140000,9.960000,0.010000,0.000000,0.000000,0.020000,-0.120000,288626,1,1,0,1316526,3,CD
AB,89.381413,-179.335796,-60.160566,-0.130000,-0.190000,9.950000,0.000000,-0.020000,-0.020000,0.030000,-0.300000,289163,1,1,0,1317062,3,CD
AB,90.527334,-179.335796,-73.338596,-0.620000,-0.360000,9.920000,0.000000,0.020000,0.450000,0.020000,-0.160000,289698,1,1,0,1317598,3,CD
AB,88.808456,-178.762826,-68.181981,-0.210000,-0.150000,9.930000,0.000000,-0.010000,0.000000,0.040000,0.190000,290235,1,1,0,1318134,3,CD
AB,89.381413,-178.189868,-68.754938,-0.420000,-0.140000,10.000000,0.000000,0.000000,-0.230000,0.020000,-0.140000,290771,1,1,0,1318670,3,CD
AB,88.808456,-178.762826,-68.181981,-0.190000,-0.240000,9.940000,0.000000,0.000000,-0.010000,0.040000,0.110000,291283,1,1,0,1319276,3,CD
AB,89.954377,-178.189868,-72.765639,-0.300000,-0.190000,9.950000,-0.010000,0.010000,0.260000,0.010000,-0.650000,291913,1,1,0,1319812,3,CD
AB,89.381413,-178.189868,-72.765639,-0.230000,-0.170000,9.940000,0.000000,0.000000,-0.030000,0.020000,0.120000,292449,1,1,0,1320348,3,CD
AB,89.381413,-178.189868,-73.338596,-0.210000,-0.160000,9.940000,0.000000,0.030000,-0.010000,0.030000,0.040000,292985,1,1,0,1320884,3,CD
AB,89.381413,-178.189868,-74.484511,-0.220000,-0.220000,9.950000,-0.010000,0.000000,-0.070000,0.040000,0.030000,293522,1,1,0,1321421,4,CD
AB,89.954377,-177.616911,-75.630432,-0.130000,-0.100000,9.920000,0.000000,0.000000,-0.130000,0.030000,-0.050000,294058,1,1,0,1321958,4,CD
AB,89.381413,-178.189868,-80.214090,-0.190000,-0.160000,9.950000,-0.010000,0.000000,-0.010000,0.040000,0.640000,294594,1,1,0,1322494,4,CD
AB,88.235498,-178.189868,-75.057468,-0.470000,-0.220000,9.930000,0.020000,0.000000,-0.820000,0.050000,0.380000,295130,1,1,0,1323030,4,CD
AB,88.808456,-178.762826,-75.057468,-0.150000,-0.080000,9.930000,0.000000,0.010000,-0.030000,0.030000,-0.790000,295666,1,1,0,1323566,4,CD
AB,88.808456,-178.189868,-75.057468,-0.210000,-0.150000,9.940000,0.000000,-0.010000,-0.060000,0.030000,-0.220000,296203,1,1,0,1324103,4,CD
AB,88.808456,-178.762826,-77.922261,-0.210000,-0.130000,9.950000,0.000000,0.000000,0.040000,0.040000,-0.640000,296739,1,1,0,1324639,4,CD
AB,88.808456,-178.762826,-78.495218,-0.200000,-0.150000,9.930000,0.000000,-0.010000,0.000000,0.070000,1.290000,297275,1,1,0,1325175,4,CD
AB,88.808456,-178.762826,-78.495218,-0.210000,-0.130000,9.940000,0.000000,0.010000,0.010000,0.040000,-0.400000,297811,1,1,0,1325711,4,CD
AB,88.808456,-178.762826,-78.495218,-0.210000,-0.140000,9.940000,0.000000,-0.010000,-0.010000,0.030000,-0.140000,298348,1,1,0,1326247,4,CD
AB,88.808456,-178.762826,-78.495218,-0.150000,-0.150000,9.940000,0.000000,0.000000,0.060000,0.030000,-0.140000,298883,1,1,0,1326783,4,CD
AB,89.381413,-175.898039,-67.036060,-0.080000,-0.260000,9.950000,0.000000,-0.020000,0.080000,0.050000,-0.150000,299419,1,1,0,1327319,4,CD
AB,91.100291,-174.752125,-65.890145,-0.060000,-0.280000,10.410000,-0.010000,0.050000,0.170000,0.040000,-0.570000,299955,1,1,0,1327855,3,CD
AB,88.235498,-178.762826,-76.203389,-0.180000,-0.250000,10.090000,-0.010000,-0.010000,-0.510000,0.040000,-0.060000,300492,1,1,0,1328391,3,CD
AB,88.808456,-178.762826,-75.057468,-0.320000,-0.270000,10.370000,0.010000,-0.010000,0.480000,0.030000,0.020000,301028,1,1,0,1328928,3,CD
AB,88.808456,-178.762826,-76.203389,-0.160000,-0.210000,9.950000,-0.010000,0.000000,-0.080000,0.040000,0.780000,301564,1,1,0,1329463,3,CD
AB,88.808456,-178.762826,-76.203389,-0.190000,-0.150000,9.950000,0.000000,0.010000,0.000000,0.030000,0.240000,302100,1,1,0,1330000,3,CD
AB,88.808456,-178.762826,-76.203389,-0.180000,-0.160000,9.940000,0.000000,0.010000,0.000000,0.030000,-0.330000,302637,1,1,0,1330536,3,CD
AB,88.808456,-178.762826,-76.203389,-0.180000,-0.130000,9.950000,0.000000,-0.020000,-0.010000,0.040000,0.090000,303173,1,1,0,1331073,3,CD
AB,88.808456,-178.762826,-76.776346,-0.190000,-0.120000,9.940000,0.000000,0.000000,-0.010000,0.030000,-0.540000,303709,1,1,0,1331608,3,CD
AB,88.808456,-178.762826,-76.776346,-0.190000,-0.140000,9.940000,0.000000,0.000000,0.000000,0.050000,0.180000,304245,1,1,0,1332145,3,CD
AB,88.808456,-178.762826,-76.776346,-0.180000,-0.150000,9.940000,0.010000,0.000000,0.000000,0.020000,-0.420000,304782,1,1,0,1332681,3,CD
AB,88.808456,-178.762826,-76.203389,-0.190000,-0.110000,9.940000,0.000000,0.000000,-0.010000,0.030000,0.290000,305318,1,1,0,1333218,3,CD
AB,88.808456,-178.762826,-76.776346,-0.140000,-0.150000,9.930000,0.000000,0.040000,0.000000,0.030000,-0.120000,305855,1,1,0,1333753,3,CD
AB,88.808456,-178.762826,-76.776346,-0.170000,-0.120000,9.940000,0.000000,0.000000,-0.010000,0.030000,-0.080000,306391,1,1,0,1334290,3,CD
AB,88.808456,-178.762826,-76.776346,-0.190000,-0.120000,9.950000,0.000000,0.000000,0.000000,0.030000,0.500000,306927,1,1,0,1334826,3,CD
AB,88.808456,-178.762826,-76.776346,-0.190000,-0.150000,9.950000,0.000000,0.000000,-0.010000,0.040000,0.600000,307463,1,1,0,1335362,3,CD
AB,88.808456,-178.762826,-76.203389,-0.200000,-0.120000,9.950000,0.010000,-0.010000,0.000000,0.020000,-0.250000,307999,1,1,0,1335898,3,CD
AB,88.808456,-178.762826,-76.776346,-0.190000,-0.130000,9.940000,0.000000,0.010000,-0.020000,0.020000,0.350000,308535,1,1,0,1336434,3,CD
AB,88.808456,-178.762826,-76.776346,-0.200000,-0.120000,9.940000,0.000000,-0.010000,0.000000,0.010000,-0.050000,309071,1,1,0,1336970,3,CD
AB,88.808456,-178.762826,-76.776346,-0.200000,-0.100000,9.950000,0.000000,0.000000,0.000000,-0.010000,-0.060000,309607,1,1,0,1337507,4,CD
AB,88.808456,-178.762826,-76.776346,-0.190000,-0.140000,9.930000,0.000000,-0.010000,0.000000,0.030000,1.190000,310143,1,1,0,1338043,4,CD
AB,88.808456,-178.762826,-76.776346,-0.190000,-0.140000,9.950000,0.000000,-0.010000,0.000000,0.000000,0.300000,310679,1,1,0,1338579,4,CD
AB,88.808456,-178.762826,-76.776346,-0.190000,-0.130000,9.940000,-0.010000,0.010000,0.000000,-0.010000,-0.610000,311216,1,1,0,1339117,4,CD
AB,88.808456,-178.762826,-76.776346,-0.190000,-0.120000,9.950000,0.000000,0.020000,-0.010000,0.000000,0.150000,311752,1,1,0,1339652,4,CD
AB,88.808456,-178.762826,-76.776346,-0.190000,-0.130000,9.940000,0.000000,-0.010000,0.000000,0.010000,-0.270000,312288,1,1,0,1340188,4,CD
AB,88.808456,-178.762826,-76.776346,-0.190000,-0.130000,9.920000,0.000000,-0.020000,0.000000,0.010000,-0.350000,312825,1,1,0,1340724,4,CD
AB,88.808456,-178.762826,-76.776346,-0.190000,-0.140000,9.950000,0.000000,0.010000,0.000000,0.010000,-0.060000,313361,1,1,0,1341261,4,CD
AB,88.808456,-178.762826,-77.349304,-0.190000,-0.120000,9.930000,0.000000,0.010000,0.000000,0.020000,0.110000,313897,1,1,0,1341797,3,CD
AB,88.808456,-178.762826,-77.349304,-0.200000,-0.110000,9.960000,0.000000,0.000000,0.000000,0.020000,0.390000,314433,1,1,0,1342333,3,CD
AB,88.808456,-178.762826,-77.349304,-0.180000,-0.130000,9.930000,0.000000,0.010000,0.000000,0.020000,0.440000,314970,1,1,0,1342868,3,CD
AB,88.808456,-178.762826,-77.349304,-0.200000,-0.140000,9.960000,-0.010000,-0.010000,0.000000,0.070000,1.160000,315506,1,1,0,1343406,3,CD
AB,88.808456,-178.762826,-77.349304,-0.200000,-0.130000,9.930000,0.000000,-0.020000,0.000000,0.050000,0.340000,316042,1,1,0,1343941,3,CD
AB,88.808456,-178.762826,-77.349304,-0.190000,-0.140000,9.940000,0.000000,0.010000,0.000000,0.050000,0.860000,316578,1,1,0,1344478,3,CD
AB,88.808456,-178.762826,-77.349304,-0.200000,-0.120000,9.940000,0.000000,0.010000,0.000000,0.050000,0.250000,317115,1,1,0,1345015,3,CD
AB,88.808456,-178.762826,-77.922261,-0.190000,-0.130000,9.940000,0.000000,0.010000,0.000000,0.050000,0.040000,317652,1,1,0,1345552,3,CD
AB,88.808456,-178.762826,-77.922261,-0.200000,-0.110000,9.940000,0.000000,-0.020000,0.000000,0.070000,0.060000,318188,1,1,0,1346087,3,CD
AB,88.808456,-178.762826,-77.922261,-0.190000,-0.140000,9.940000,0.000000,0.000000,0.010000,0.040000,0.160000,318724,1,1,0,1346623,3,CD
AB,88.808456,-178.762826,-77.922261,-0.200000,-0.130000,9.950000,0.000000,0.000000,0.000000,0.070000,0.700000,319261,1,1,0,1347161,4,CD
AB,88.808456,-178.762826,-77.922261,-0.190000,-0.140000,9.950000,0.000000,0.000000,0.000000,0.070000,-0.070000,319797,1,1,0,1347697,4,CD
AB,88.808456,-178.762826,-77.922261,-0.190000,-0.130000,9.950000,-0.010000,-0.020000,0.000000,0.060000,0.290000,320333,1,1,0,1348233,4,CD
AB,88.808456,-178.762826,-77.922261,-0.180000,-0.130000,9.930000,0.000000,-0.020000,0.000000,0.070000,0.340000,320869,1,1,0,1348769,4,CD
AB,88.808456,-178.762826,-78.495218,-0.200000,-0.120000,9.930000,0.000000,0.010000,0.000000,0.060000,0.060000,321406,1,1,0,1349305,4,CD
AB,88.808456,-178.762826,-78.495218,-0.200000,-0.130000,9.940000,0.000000,0.010000,0.000000,0.060000,0.050000,321942,1,1,0,1349842,4,CD
AB,88.808456,-178.762826,-78.495218,-0.190000,-0.140000,9.940000,0.010000,0.010000,0.000000,0.070000,0.430000,322478,1,1,0,1350378,4,CD
AB,88.808456,-178.762826,-78.495218,-0.180000,-0.120000,9.940000,0.000000,0.010000,0.010000,0.060000,0.050000,323014,1,1,0,1350914,4,CD
AB,88.808456,-178.762826,-78.495218,-0.190000,-0.120000,9.950000,0.000000,-0.010000,0.000000,0.050000,-0.870000,323551,1,1,0,1351450,3,CD
AB,88.808456,-178.762826,-78.495218,-0.200000,-0.130000,9.940000,0.000000,0.000000,0.000000,0.040000,-0.710000,324087,1,1,0,1351986,3,CD
AB,88.808456,-178.762826,-78.495218,-0.180000,-0.140000,9.950000,0.000000,0.020000,0.000000,0.050000,-0.290000,324623,1,1,0,1352523,3,CD
AB,88.808456,-178.762826,-78.495218,-0.190000,-0.120000,9.950000,0.000000,0.000000,0.000000,0.030000,-0.520000,325149,1,1,0,1353131,3,CD
AB,88.808456,-178.762826,-78.495218,-0.190000,-0.140000,9.940000,0.000000,0.000000,0.000000,0.040000,-0.650000,325768,1,1,0,1353668,3,CD
AB,88.808456,-178.762826,-78.495218,-0.190000,-0.120000,9.940000,0.000000,0.010000,0.000000,0.050000,0.280000,326304,1,1,0,1354203,3,CD
AB,88.808456,-178.762826,-78.495218,-0.200000,-0.130000,9.940000,0.000000,0.000000,0.000000,0.060000,0.320000,326840,1,1,0,1354740,3,CD
AB,88.235498,-178.762826,-79.068175,-0.190000,-0.140000,9.940000,0.000000,0.020000,0.000000,0.050000,0.060000,327376,1,1,0,1355275,3,CD
AB,88.808456,-178.762826,-79.068175,-0.200000,-0.120000,9.950000,0.000000,-0.010000,0.000000,0.050000,0.000000,327912,1,1,0,1355812,3,CD
AB,88.808456,-178.762826,-79.068175,-0.200000,-0.120000,9.950000,0.000000,0.000000,0.000000,0.050000,-0.110000,328448,1,1,0,1356347,3,CD
AB,88.808456,-178.762826,-79.068175,-0.190000,-0.130000,9.950000,-0.010000,0.000000,0.000000,0.020000,-0.950000,328984,1,1,0,1356884,4,CD
AB,88.808456,-178.762826,-79.641133,-0.180000,-0.130000,9.950000,0.000000,0.000000,-0.010000,0.030000,0.100000,329520,1,1,0,1357421,4,CD
AB,88.808456,-178.762826,-79.641133,-0.190000,-0.130000,9.950000,0.010000,-0.010000,0.000000,0.030000,0.000000,330057,1,1,0,1357957,4,CD
AB,88.808456,-178.762826,-79.641133,-0.190000,-0.130000,9.940000,0.000000,-0.010000,0.000000,0.040000,0.030000,330593,1,1,0,1358493,4,CD
AB,88.808456,-178.762826,-79.641133,-0.180000,-0.130000,9.950000,0.000000,0.000000,0.000000,0.020000,-0.260000,331130,1,1,0,1359029,4,CD
AB,88.808456,-178.762826,-79.641133,-0.190000,-0.130000,9.940000,0.000000,0.020000,0.000000,0.030000,-0.080000,331665,1,1,0,1359566,4,CD
AB,88.808456,-178.762826,-79.641133,-0.190000,-0.140000,9.930000,0.000000,0.000000,0.000000,0.040000,-0.330000,332201,1,1,0,1360101,4,CD
AB,88.808456,-178.762826,-79.641133,-0.180000,-0.130000,9.940000,0.000000,0.010000,0.000000,0.040000,-0.090000,332737,1,1,0,1360637,4,CD
AB,88.808456,-178.762826,-79.641133,-0.190000,-0.140000,9.950000,0.000000,-0.010000,-0.010000,0.030000,-0.130000,333273,1,1,0,1361173,4,CD
AB,88.808456,-178.762826,-80.214090,-0.190000,-0.120000,9.950000,0.000000,0.000000,0.000000,0.060000,0.080000,333809,1,1,0,1361709,4,CD
AB,88.808456,-178.762826,-80.214090,-0.180000,-0.140000,9.940000,0.000000,0.000000,0.000000,0.000000,-1.260000,334346,1,1,0,1362246,3,CD
AB,88.808456,-178.762826,-80.214090,-0.200000,-0.140000,9.940000,-0.010000,0.000000,0.000000,0.020000,0.270000,334882,1,1,0,1362782,3,CD
AB,88.808456,-178.762826,-80.214090,-0.200000,-0.140000,9.950000,0.000000,0.000000,0.000000,0.020000,-0.530000,335418,1,1,0,1363317,3,CD
AB,88.808456,-178.762826,-80.214090,-0.200000,-0.120000,9.950000,0.000000,0.000000,0.000000,0.030000,0.040000,335954,1,1,0,1363854,3,CD
AB,88.808456,-178.762826,-80.787047,-0.200000,-0.130000,9.940000,0.000000,0.000000,0.000000,0.010000,-0.440000,336490,1,1,0,1364390,3,CD
AB,88.808456,-178.762826,-80.787047,-0.190000,-0.130000,9.960000,0.000000,0.000000,0.000000,0.010000,0.470000,337026,1,1,0,1364926,3,CD
AB,88.808456,-178.762826,-80.787047,-0.190000,-0.120000,9.940000,0.000000,-0.020000,0.010000,0.010000,0.370000,337562,1,1,0,1365462,3,CD
AB,88.808456,-178.762826,-80.787047,-0.190000,-0.130000,9.940000,0.000000,0.000000,0.000000,0.010000,0.160000,338098,1,1,0,1365997,3,CD
AB,88.808456,-178.762826,-80.787047,-0.220000,-0.120000,9.960000,0.000000,0.000000,-0.010000,0.010000,0.000000,338635,1,1,0,1366535,3,CD
AB,88.808456,-178.762826,-80.787047,-0.200000,-0.140000,9.940000,0.000000,-0.020000,0.000000,0.000000,-0.020000,339171,1,1,0,1367070,3,CD
AB,88.808456,-178.762826,-81.360004,-0.180000,-0.120000,9.940000,0.000000,0.000000,0.000000,0.020000,0.030000,339707,1,1,0,1367608,4,CD
AB,88.808456,-178.762826,-81.360004,-0.190000,-0.140000,9.930000,0.000000,0.000000,0.000000,0.000000,-0.170000,340243,1,1,0,1368143,4,CD
AB,88.808456,-178.762826,-81.360004,-0.190000,-0.120000,9.940000,0.000000,0.000000,0.010000,0.020000,0.270000,340779,1,1,0,1368679,4,CD
AB,88.808456,-178.762826,-81.360004,-0.200000,-0.130000,9.940000,0.000000,0.000000,0.000000,0.000000,0.050000,341315,1,1,0,1369215,4,CD
AB,88.808456,-178.762826,-81.360004,-0.180000,-0.120000,9.950000,0.000000,0.000000,0.000000,0.000000,-0.700000,341851,1,1,0,1369751,4,CD
AB,88.808456,-178.762826,-81.360004,-0.200000,-0.130000,9.930000,0.000000,0.000000,0.000000,0.030000,0.950000,342387,1,1,0,1370288,4,CD
AB,88.808456,-178.762826,-81.932962,-0.190000,-0.130000,9.940000,0.000000,0.000000,0.000000,0.000000,-0.260000,342923,1,1,0,1370823,4,CD
AB,88.808456,-178.762826,-81.932962,-0.200000,-0.130000,9.930000,0.000000,-0.010000,0.000000,0.000000,0.770000,343459,1,1,0,1371360,4,CD
AB,88.808456,-178.762826,-81.932962,-0.190000,-0.130000,9.960000,0.000000,0.010000,0.000000,0.020000,0.000000,343995,1,1,0,1371895,4,CD
AB,88.808456,-178.762826,-81.932962,-0.200000,-0.130000,9.940000,0.000000,0.000000,0.000000,0.010000,0.330000,344531,1,1,0,1372431,3,CD
AB,88.808456,-178.762826,-81.932962,-0.190000,-0.150000,9.940000,0.000000,-0.010000,0.000000,0.010000,0.870000,345067,1,1,0,1372967,3,CD
AB,88.808456,-178.762826,-81.932962,-0.190000,-0.130000,9.940000,0.000000,0.000000,0.000000,0.040000,0.520000,345603,1,1,0,1373503,3,CD
AB,88.808456,-178.762826,-81.932962,-0.190000,-0.120000,9.940000,0.000000,0.000000,0.000000,0.010000,-0.850000,346139,1,1,0,1374038,3,CD
AB,88.808456,-178.762826,-81.932962,-0.190000,-0.120000,9.950000,0.000000,0.000000,0.000000,0.020000,0.480000,346676,1,1,0,1374575,3,CD
AB,88.808456,-178.762826,-81.932962,-0.190000,-0.120000,9.950000,0.000000,0.000000,0.000000,0.010000,0.080000,347212,1,1,0,1375112,3,CD
AB,88.808456,-178.762826,-81.932962,-0.180000,-0.130000,9.950000,0.000000,0.000000,0.000000,0.020000,0.140000,347748,1,1,0,1375647,3,CD
AB,88.808456,-178.762826,-82.505926,-0.190000,-0.130000,9.940000,0.000000,0.010000,0.000000,0.020000,0.000000,348284,1,1,0,1376184,3,CD
AB,88.808456,-178.762826,-82.505926,-0.200000,-0.130000,9.940000,0.010000,0.000000,-0.010000,0.040000,0.290000,348820,1,1,0,1376719,3,CD
AB,88.808456,-178.762826,-82.505926,-0.200000,-0.100000,9.950000,-0.010000,0.000000,0.000000,0.020000,0.080000,349356,1,1,0,1377257,4,CD
AB,88.808456,-178.762826,-82.505926,-0.180000,-0.120000,9.940000,0.000000,-0.010000,0.000000,0.030000,0.300000,349892,1,1,0,1377792,4,CD
AB,88.808456,-178.762826,-82.505926,-0.200000,-0.130000,9.940000,0.000000,-0.020000,-0.010000,0.040000,0.570000,350428,1,1,0,1378328,4,CD
AB,88.808456,-178.762826,-82.505926,-0.190000,-0.120000,9.940000,0.000000,0.020000,0.000000,0.030000,0.180000,350964,1,1,0,1378865,4,CD
AB,88.808456,-178.762826,-83.078883,-0.190000,-0.130000,9.960000,0.000000,-0.010000,0.000000,0.010000,0.220000,351500,1,1,0,1379400,4,CD
AB,88.808456,-178.762826,-83.078883,-0.200000,-0.140000,9.940000,-0.010000,0.000000,0.000000,0.040000,1.430000,352036,1,1,0,1379936,4,CD
AB,88.808456,-178.762826,-83.078883,-0.190000,-0.100000,9.950000,0.000000,0.000000,0.000000,0.030000,0.360000,352572,1,1,0,1380472,4,CD
AB,88.808456,-178.762826,-82.505926,-0.210000,-0.120000,9.940000,0.000000,0.000000,0.000000,0.030000,0.470000,353108,1,1,0,1381008,4,CD
AB,88.808456,-178.762826,-83.078883,-0.190000,-0.120000,9.960000,0.000000,-0.010000,-0.010000,0.010000,-0.110000,353646,1,1,0,1381545,3,CD
AB,88.808456,-178.762826,-83.078883,-0.180000,-0.120000,9.950000,-0.010000,0.020000,0.000000,0.020000,0.490000,354181,1,1,0,1382081,3,CD
AB,88.808456,-178.762826,-83.078883,-0.190000,-0.130000,9.930000,-0.010000,-0.020000,-0.010000,0.020000,0.000000,354717,1,1,0,1382617,3,CD
AB,88.808456,-178.762826,-83.078883,-0.200000,-0.120000,9.950000,0.000000,-0.040000,0.000000,0.010000,-0.050000,355253,1,1,0,1383153,3,CD
AB,88.808456,-178.762826,-83.078883,-0.190000,-0.120000,9.940000,0.000000,0.000000,0.000000,0.010000,-0.430000,355790,1,1,0,1383690,3,CD
AB,88.808456,-178.762826,-83.078883,-0.200000,-0.130000,9.940000,0.000000,0.000000,0.000000,0.000000,-0.120000,356326,1,1,0,1384226,3,CD
AB,88.808456,-178.762826,-83.078883,-0.200000,-0.110000,9.940000,0.010000,-0.030000,0.000000,0.010000,0.480000,356862,1,1,0,1384762,3,CD
AB,88.235498,-178.762826,-83.078883,-0.190000,-0.130000,9.950000,0.000000,0.030000,0.000000,0.010000,0.430000,357398,1,1,0,1385298,3,CD
AB,88.808456,-178.762826,-83.651840,-0.190000,-0.130000,9.940000,0.020000,0.000000,0.000000,0.010000,-0.080000,357935,1,1,0,1385835,3,CD
AB,88.808456,-178.762826,-83.651840,-0.200000,-0.130000,9.930000,0.000000,-0.020000,0.000000,0.000000,-0.650000,358471,1,1,0,1386370,3,CD
AB,88.808456,-178.762826,-83.651840,-0.180000,-0.130000,9.950000,0.000000,0.010000,0.000000,0.010000,-0.280000,359008,1,1,0,1386907,3,CD
AB,88.808456,-178.762826,-83.651840,-0.200000,-0.140000,9.940000,0.000000,0.010000,0.000000,0.000000,-0.710000,359544,1,1,0,1387444,3,CD
AB,88.808456,-178.762826,-83.651840,-0.190000,-0.130000,9.940000,0.000000,-0.010000,0.000000,0.000000,0.340000,360080,1,1,0,1387980,4,CD
AB,88.808456,-178.762826,-81.932962,-1.990000,-0.300000,45.880001,-0.030000,-0.110000,0.700000,0.000000,-1.070000,360616,1,1,0,1388517,4,CD
AB,88.235498,-179.335796,-73.338596,-8.910000,5.350000,92.680000,-0.360000,-0.790000,-3.730000,1.590000,45.340000,361152,1,1,0,1389052,4,CD
AB,88.235498,-178.762826,-106.570151,-0.870000,4.280000,37.080002,-0.200000,0.000000,-17.740000,8.340000,143.720001,361609,1,1,2,1389978,3,CD
AB,89.954377,-178.762826,57.868737,-0.790000,1.450000,0.820000,0.200000,0.220000,-17.709999,9.320000,142.660004,362288,1,1,2,1390316,3,CD
AB,89.381413,-178.762826,32.085637,-0.300000,-0.140000,-8.730000,-0.040000,0.360000,-16.120001,11.870000,108.730003,362603,1,1,3,1390654,4,CD
AB,89.381413,-177.616911,-52.712118,-0.380000,0.000000,-6.800000,0.000000,0.330000,-14.240000,17.090000,170.089996,362843,1,1,3,1391126,4,CD
AB,87.089584,-177.616911,-154.698607,-0.580000,-0.020000,-6.600000,-0.060000,0.300000,-14.000000,17.860001,158.330002,363374,1,1,3,1391464,3,CD
AB,88.808456,-176.470997,-76.203389,-0.640000,-0.020000,-5.760000,0.010000,0.340000,-13.210000,19.690001,115.410004,363634,1,1,3,1391801,3,CD
AB,88.235498,-176.470997,-59.587609,-0.470000,-0.110000,-4.370000,-0.030000,0.310000,-11.680000,23.459999,132.699997,363913,1,1,3,1392139,4,CD
AB,87.089584,-178.762826,121.467046,-0.470000,76.980003,1.520000,-3.070000,-1.950000,-0.490000,-0.020000,-3.340000,1835007,186,251,53,1392841,3,CD
AB,89.381413,-177.616911,24.637186,-0.540000,-0.030000,-2.650000,0.080000,0.240000,-10.090000,28.650000,98.510002,364989,1,1,3,1393190,4,CD
AB,88.235498,-175.898039,-81.360004,-0.480000,-0.160000,-2.520000,0.030000,0.240000,-9.620000,29.150000,92.730003,365479,1,1,3,1393526,3,CD
AB,85.370712,-179.335796,161.574094,-0.400000,-0.170000,-2.260000,0.000000,0.440000,-8.790000,29.900000,73.010002,365700,1,1,3,1393864,3,CD
AB,89.954377,178.189868,-2.291831,0.020000,-0.310000,-1.440000,-0.040000,-0.150000,-1.020000,32.520000,78.250000,365990,1,1,3,1394202,4,CD
AB,91.100291,177.043954,-13.178030,-0.020000,-0.230000,-1.310000,-0.060000,-0.050000,-0.740000,33.070000,67.239998,366429,1,1,3,1394539,3,CD
AB,92.246206,175.325082,-2.864789,0.100000,-0.180000,-1.130000,-0.040000,-0.160000,0.850000,33.549999,52.980000,366682,1,1,3,1394877,3,CD
AB,92.819163,169.595510,6.875493,0.060000,-0.120000,-0.720000,76.980003,1.620000,2.900000,0.210000,0.020000,-4390916,0,0,231,1395497,3,CD
AB,89.381413,161.574094,29.220847,0.010000,-0.170000,-0.540000,0.040000,-0.280000,0.980000,36.290001,33.389999,367782,1,1,3,1395850,3,CD
AB,80.214090,158.709308,65.890145,0.000000,0.000000,-0.410000,0.290000,-0.300000,1.110000,37.220001,32.110001,368128,1,1,3,1396309,4,CD
AB,76.203389,161.574094,79.641133,0.000000,0.010000,-0.390000,0.360000,-0.240000,1.060000,37.380001,30.010000,368536,1,1,3,1396646,3,CD
AB,72.765639,167.303681,94.538035,0.010000,0.000000,-0.350000,0.420000,-0.220000,0.980000,37.549999,22.750000,368902,1,1,3,1396984,3,CD
AB,75.630432,-176.470997,121.467046,-0.060000,0.040000,-0.300000,0.590000,0.040000,0.810000,37.950001,12.980000,369124,1,1,3,1397321,4,CD