index, checksum,uptime mp,uptime nav,missiontime,  errorflag mp,errorflag NAV,  accel x, accel y, accel z, accelworld x, accelworld y, accelworld z, mag x, mag y, mag z, accelhighg x, accelhighg y, accelhighg z, gyro x, gyro y, gyro z, euler x, euler y, euler z, quat w, quat x, quat y, quat z,quatadj w, quatadj x, quatadj y, quatadj z, altitude, presusre, verticalvel,filtered vvel, maxalt, altitudeagl, filtered alt, imutemp, barotemp,abs imu accel,abs adxl accel, pad altitude, baro max alt, mag raw x, mag raw y, mag raw z, cov x, cov y, cov z, sats, status, met, filtered accel ,state,battstate,pyros fired,pyros cont,pyros state, checksum2
585, 101,13075,13475,-7852,0,0,1.763469,-9.633021,0.067546,0.037858,-0.058112,-0.007907,-20.315699,29.786613,-14.235603,1.922103,-8.168940,-6.246836,0.332602,1.031766,-0.603945,0.854944,111.553429,169.228442,-0.046646,-0.823573,-0.073430,-0.560500,-0.046646,-0.823573,-0.073430,-0.560500,1978.129883,80200.421875,448.642609,-0.479815,0.000000,-1.328125,-32.105152,23.000000,28.133537,9.793339,10.461788,1979.458008,0.000000,-0.203157,0.297866,-0.142356,0.000912,0.000007,0.000335,0,1,0,-0.023048,0,0.390000,0,15,0,202
586, 101,14450,14427,-6477,0,0,1.768899,-9.596605,0.071484,-0.037445,-0.002124,-0.044202,-20.418007,29.771996,-14.191757,2.883155,-9.129992,-4.805259,1.146401,-2.232112,1.347280,1.277330,111.438307,168.590229,-0.047871,-0.822892,-0.074518,-0.561252,-0.046821,-0.822767,-0.075884,-0.561341,1979.661011,80198.085938,-0.420918,-0.403584,0.217773,0.203003,-0.491583,23.000000,28.247337,9.758533,10.712602,1979.458008,0.217773,-0.204180,0.297720,-0.141918,0.000952,0.000024,0.000335,0,1,0,-0.051774,0,0.390000,0,15,0,202
587, 101,14499,14477,-6428,0,0,1.732363,-9.625556,0.050608,0.003591,-0.012205,-0.020672,-20.330313,29.435837,-13.987139,0.961052,-9.610518,-4.805259,0.292649,0.902680,0.147829,0.828165,111.466351,169.100908,-0.047525,-0.823054,-0.074432,-0.561055,-0.047525,-0.823054,-0.074432,-0.561055,1979.701660,80200.804688,-0.145447,-0.405066,0.243652,0.243652,-0.376338,23.000000,28.256441,9.780336,10.787779,1979.458008,0.243652,-0.203303,0.294358,-0.139871,0.000952,0.000025,0.000335,0,1,0,-0.042695,0,0.390000,0,15,0,202
588, 101,14550,14531,-6377,0,0,1.739935,-9.680691,0.040957,0.003113,-0.005485,0.034893,-20.359545,29.611223,-13.914061,0.480526,-9.129992,-5.285784,-2.180028,1.175025,0.531143,0.639697,111.395208,169.251623,-0.048317,-0.822703,-0.074495,-0.561495,-0.048191,-0.822725,-0.074237,-0.561507,1979.680664,80203.132812,1.421669,-0.406003,0.273315,0.222656,-0.279368,23.000000,28.247337,9.835896,10.560642,1979.458008,0.273315,-0.203595,0.296112,-0.139141,0.000952,0.000025,0.000335,0,1,0,0.063170,0,0.390000,0,15,0,202
589, 101,14600,14587,-6327,0,0,1.722817,-9.681832,0.083028,0.043811,0.031128,0.033123,-20.096462,29.845074,-13.183279,0.961052,-9.129992,-5.285784,-0.276527,-2.047634,1.186021,0.493129,111.398411,169.375345,-0.048635,-0.822759,-0.074068,-0.561441,-0.048635,-0.822759,-0.074068,-0.561441,1979.532837,80205.257812,0.747309,-0.403252,0.273315,0.074829,-0.225254,23.000000,28.229130,9.834270,10.593389,1979.458008,0.273315,-0.200965,0.298451,-0.131833,0.000952,0.000026,0.000335,0,1,0,0.057331,0,0.390000,0,15,0,202
590, 101,14650,14641,-6277,0,0,1.703477,-9.700438,0.073842,0.025079,0.051275,0.047986,-20.593395,30.064308,-13.534054,1.441578,-9.129992,-4.805259,0.942427,-1.384031,0.527165,0.506388,111.410965,169.344049,-0.046113,-0.822832,-0.073861,-0.561574,-0.048684,-0.822806,-0.074234,-0.561346,1979.700806,80198.617188,0.071190,-0.400917,0.273315,0.242798,-0.167728,23.000000,28.201818,9.849152,10.417553,1979.458008,0.273315,-0.205934,0.300643,-0.135341,0.000952,0.000027,0.000335,0,1,0,-0.018967,0,0.390000,0,15,0,202
591, 101,14700,14694,-6227,0,0,1.707871,-9.652838,0.051697,-0.023318,-0.021869,0.001844,-20.739550,29.465067,-13.183279,0.961052,-9.129992,-4.805259,1.752838,-0.927810,-0.386650,1.301138,111.448402,168.824613,-0.045495,-0.822979,-0.074090,-0.561378,-0.045495,-0.822979,-0.074090,-0.561378,1979.620117,80203.664062,0.172994,-0.400073,0.273315,0.162109,-0.119812,23.000000,28.201818,9.802896,10.361992,1979.458008,0.273315,-0.207395,0.294651,-0.131833,0.000952,0.000028,0.000335,0,1,0,-0.006156,0,0.390000,0,15,0,202
592, 101,14749,14722,-6178,0,0,1.730490,-9.662431,0.082486,0.011371,-0.031825,0.015457,-20.374159,29.713535,-13.402514,3.363681,-9.129992,-5.766310,-0.305393,1.114532,-1.053384,1.332719,111.464705,168.803126,-0.045361,-0.823058,-0.074099,-0.561273,-0.045361,-0.823058,-0.074099,-0.561273,1979.567749,80203.664062,0.332976,-0.399895,0.273315,0.109741,-0.092313,23.000000,28.201818,9.816515,11.310236,1979.458008,0.273315,-0.203742,0.297135,-0.134025,0.000952,0.000029,0.000335,0,1,0,0.041789,0,0.390000,0,15,0,202
593, 101,14800,14799,-6127,0,0,1.743587,-9.685418,0.071481,0.000899,-0.012294,0.040361,-20.666471,30.005846,-14.133294,1.922103,-9.610518,-5.766310,-0.733317,1.161620,0.395689,1.197697,111.422734,168.748389,-0.046630,-0.822763,-0.075130,-0.561465,-0.046630,-0.822763,-0.075130,-0.561465,1979.563721,80203.156250,-0.437140,-0.398416,0.273315,0.105713,-0.070885,23.000000,28.201818,9.841369,11.371318,1979.458008,0.273315,-0.206665,0.300058,-0.141333,0.000952,0.000030,0.000335,0,1,0,0.054834,0,0.390000,0,15,0,202
594, 101,14850,14847,-6077,0,0,1.734811,-9.717554,0.054602,-0.021341,-0.007961,0.070316,-20.344929,29.625839,-14.600994,1.922103,-9.129992,-5.766310,0.730412,-0.168900,-0.102820,1.233156,111.359855,168.727447,-0.046526,-0.822456,-0.075072,-0.561930,-0.046526,-0.822456,-0.075072,-0.561930,1979.514893,80204.007812,-0.681404,-0.396310,0.273315,0.056885,-0.060312,23.000000,28.206369,9.871343,10.968206,1979.458008,0.273315,-0.203449,0.296258,-0.146010,0.000952,0.000031,0.000335,0,1,0,0.025997,0,0.390000,0,15,0,202
595, 101,14899,14896,-6028,0,0,1.728189,-9.704759,0.062837,0.016158,-0.015155,0.056608,-19.862614,29.684301,-14.615609,1.922103,-9.129992,-5.766310,-0.019715,1.707508,2.361180,0.850960,111.352799,169.226502,-0.046827,-0.822589,-0.073360,-0.561936,-0.046827,-0.822589,-0.073360,-0.561936,1979.429443,80204.710938,-1.129184,-0.394272,0.273315,-0.028564,-0.067906,23.000000,28.215473,9.857634,10.968206,1979.458008,0.273315,-0.198626,0.296843,-0.146156,0.000952,0.000031,0.000335,0,1,0,0.013552,0,0.390000,0,15,0,202
596, 101,14949,14945,-5978,0,0,1.676106,-9.643171,0.036024,-0.029738,0.016860,-0.013242,-20.213388,29.845074,-14.162525,1.441578,-10.091043,-6.246836,1.039029,-1.598087,-0.912040,0.925084,111.367559,169.122929,-0.046793,-0.822625,-0.073748,-0.561836,-0.046793,-0.822625,-0.073748,-0.561836,1979.398560,80205.414062,-1.367251,-0.392806,0.273315,-0.059448,-0.077969,23.000000,28.224577,9.787818,11.955345,1979.458008,0.273315,-0.202134,0.298451,-0.141625,0.000952,0.000032,0.000335,0,1,0,0.041786,0,0.390000,0,15,0,202
597, 101,14999,14994,-5928,0,0,1.719989,-9.611382,0.056539,0.014538,-0.014785,-0.036790,-20.432623,29.713535,-13.460976,0.961052,-9.129992,-4.805259,-1.813772,-2.063076,0.500698,0.777066,111.443873,169.242785,-0.047398,-0.822933,-0.074586,-0.561223,-0.047213,-0.823015,-0.073652,-0.561242,1979.581543,80202.234375,-0.079836,-0.391982,0.273315,0.123535,-0.058089,23.000000,28.229130,9.764232,10.361992,1979.458008,0.273315,-0.204326,0.297135,-0.134610,0.000952,0.000033,0.000335,0,1,0,-0.006214,0,0.390000,0,15,0,202
598, 101,15059,15056,-5868,0,0,1.739424,-9.696914,0.024497,-0.018154,-0.013052,0.050692,-20.301081,29.377375,-13.680211,2.402629,-8.649466,-5.285784,-0.518719,0.024535,0.576573,0.733895,111.460874,169.179483,-0.047821,-0.823039,-0.074326,-0.561066,-0.047821,-0.823039,-0.074326,-0.561066,1979.499634,80205.453125,0.604568,-0.392910,0.273315,0.041626,-0.051063,23.000000,28.238234,9.851717,10.417552,1979.458008,0.273315,-0.203011,0.293774,-0.136802,0.000952,0.000034,0.000335,0,1,0,0.079834,0,0.390000,0,15,0,202
599, 101,15137,15127,-5790,0,0,1.541821,0.103311,-9.402940,-1.786479,-1.074519,-0.502771,-21.031862,29.771996,-14.381761,1.541347,0.378157,-9.664531,0.046996,0.003543,0.013547,88.891388,16.385103,50.423557,-0.596811,-0.670398,0.203189,-0.391277,-0.596811,-0.670398,0.203189,-0.391277,1979.274902,80205.453125,-inf,-0.495268,0.273315,-0.183105,-0.102163,23.000000,28.238234,9.529069,9.793973,1979.458008,0.273315,-0.210319,0.297720,-0.143818,0.000952,0.000035,0.000335,0,1,0,-8.971755,0,0.390000,0,15,0,202
600, 101,15217,15214,-5710,0,0,1.543573,0.365469,-9.663895,-2.052833,-1.239062,-0.305862,-20.344929,29.918152,-14.410991,1.560494,0.382943,-9.664531,-0.003783,-0.001517,0.001299,88.891060,16.384773,50.423858,-0.668811,-0.612665,0.243229,-0.343763,-0.596813,-0.670395,0.203192,-0.391278,1979.321899,80205.453125,-inf,-0.638413,0.273315,-0.136108,-0.145845,23.000000,28.238234,9.793215,9.797191,1979.458008,0.273315,-0.203449,0.299182,-0.144110,0.000952,0.000037,0.000335,0,1,0,-0.306751,0,0.390000,0,15,0,202
601, 101,15297,15278,-5630,0,0,1.509220,0.327010,-9.659872,-0.200042,-0.075029,-0.020808,-20.344929,29.362759,-13.607132,1.507839,0.325502,-9.659744,0.012021,-0.003154,-0.001072,82.440137,5.501833,49.584885,-0.668809,-0.612668,0.243229,-0.343763,-0.668809,-0.612668,0.243229,-0.343763,1979.321899,80205.453125,-inf,-0.646453,0.273315,-0.136108,-0.171281,23.000000,28.238234,9.782525,9.782136,1979.458008,0.273315,-0.203449,0.293628,-0.136071,0.000952,0.000038,0.000335,0,1,0,-0.019844,0,0.390000,0,15,0,202
602, 101,15380,15378,-5547,0,0,1.472945,0.292848,-9.666447,-0.009511,0.045110,-0.018700,-20.301081,29.728149,-13.943291,1.459971,0.272847,-9.669318,-0.004364,-0.000539,-0.000214,82.043556,4.406769,49.435089,-0.674278,-0.607900,0.247896,-0.338163,-0.674278,-0.607900,0.247896,-0.338163,1979.338623,80205.453125,-inf,-0.647510,0.273315,-0.119385,-0.189461,23.000000,28.238234,9.782409,9.782723,1979.458008,0.273315,-0.203011,0.297282,-0.139433,0.000952,0.000039,0.000335,0,1,0,-0.019131,0,0.390000,0,15,0,202
603, 101,15470,15463,-5457,0,0,1.473312,0.330944,-9.669295,-0.015552,0.002275,-0.014520,-20.534931,29.932768,-13.826367,1.469545,0.335075,-9.669318,0.006907,-0.000764,0.000549,82.150975,4.274574,49.416736,-0.674109,-0.608234,0.248917,-0.337148,-0.674109,-0.608234,0.248917,-0.337148,1979.338623,80205.453125,-inf,-0.648435,0.273315,-0.119385,-0.198388,23.000000,28.238234,9.786492,9.786090,1979.458008,0.273315,-0.205349,0.299328,-0.138264,0.000952,0.000041,0.000335,0,1,0,-0.013649,0,0.390000,0,15,0,202
604, 101,15546,15543,-5381,0,0,1.495711,0.308906,-9.669318,0.015565,-0.000156,-0.011820,-20.213388,29.669687,-14.337913,1.498266,0.306355,-9.669318,0.015507,-0.000166,-0.000443,82.151582,4.275184,49.416712,-0.673867,-0.608412,0.248477,-0.337634,-0.674104,-0.608239,0.248915,-0.337150,1979.347534,80205.453125,-inf,-0.649052,0.273315,-0.110474,-0.199366,23.000000,28.238234,9.789192,9.789503,1979.458008,0.273315,-0.202134,0.296697,-0.143379,0.000952,0.000042,0.000335,0,1,0,-0.012607,0,0.390000,0,15,0,202
605, 101,15626,15609,-5301,0,0,1.547598,0.377988,-9.668816,-0.058806,-0.034807,-0.002041,-20.710320,30.035078,-13.957908,1.574854,0.378157,-9.664531,-0.012494,0.001506,0.001384,82.150025,4.356532,49.427975,-0.673866,-0.608413,0.248477,-0.337635,-0.673866,-0.608413,0.248477,-0.337635,1979.352173,80205.453125,-inf,-0.649242,0.273315,-0.105835,-0.192759,23.000000,28.238234,9.799180,9.799302,1979.458008,0.273315,-0.207103,0.300351,-0.139579,0.000952,0.000043,0.000335,0,1,0,-0.002249,0,0.390000,0,15,0,202
606, 101,15704,15696,-5223,0,0,1.518006,0.382511,-9.668921,-0.035571,0.023975,-0.006264,-20.491085,29.552763,-13.928676,1.512626,0.382943,-9.669318,0.003262,-0.000768,-0.001362,81.631443,4.332464,49.424646,-0.676685,-0.605303,0.247075,-0.338614,-0.676685,-0.605303,0.247075,-0.338614,1979.342529,80205.453125,-inf,-0.649143,0.273315,-0.115479,-0.190333,23.000000,28.238234,9.794830,9.794407,1979.458008,0.273315,-0.204911,0.295528,-0.139287,0.000952,0.000045,0.000335,0,1,0,-0.005103,0,0.390000,0,15,0,202
607, 101,15785,15782,-5142,0,0,1.508283,0.391818,-9.660604,-0.044678,-0.028260,-0.015658,-20.505699,29.611223,-14.615609,1.507839,0.397304,-9.659744,0.002857,-0.002066,-0.001601,81.937319,4.311511,49.421446,-0.675131,-0.607060,0.248088,-0.337828,-0.675131,-0.607060,0.248088,-0.337828,1979.293457,80205.453125,-inf,-0.649416,0.273315,-0.164551,-0.199458,23.000000,28.238234,9.785485,9.784789,1979.458008,0.273315,-0.205057,0.296112,-0.146156,0.000952,0.000046,0.000335,0,1,0,-0.013780,0,0.390000,0,15,0,202
608, 101,15866,15849,-5061,0,0,1.479908,0.331388,-9.676229,-0.061507,0.012867,0.009390,-20.418007,29.757381,-14.937154,1.483905,0.311141,-9.669318,0.000088,-0.002648,-0.000001,81.937360,4.311383,49.421381,-0.675724,-0.606757,0.250000,-0.335774,-0.675132,-0.607060,0.248089,-0.337827,1979.242920,80205.453125,-inf,-0.649813,0.273315,-0.215088,-0.211445,23.000000,28.238234,9.794353,9.787466,1979.458008,0.273315,-0.204619,0.300205,-0.140748,0.000952,0.000047,0.000335,0,1,0,0.007537,0,0.390000,0,15,0,202
609, 101,15944,15935,-4983,0,0,1.466449,0.328729,-9.678085,0.029955,0.034915,-0.007035,-20.169540,30.298159,-14.469454,1.464758,0.330289,-9.678891,-0.002250,-0.000713,0.001933,82.008346,3.991159,49.376162,-0.675723,-0.606757,0.250001,-0.335774,-0.675723,-0.606757,0.250001,-0.335774,1979.242920,80205.453125,-inf,-0.649939,0.273315,-0.215088,-0.242817,23.000000,28.238234,9.794073,9.794669,1979.458008,0.273315,-0.201695,0.302982,-0.144695,0.000952,0.000049,0.000335,0,1,0,-0.008587,0,0.390000,0,15,0,202
610, 101,16025,16022,-4902,0,0,1.502190,0.326106,-9.676095,0.029789,-0.021970,-0.003635,-20.447237,29.655071,-14.469454,1.498266,0.306355,-9.678891,0.000737,-0.001579,0.002018,82.192147,4.138876,49.396854,-0.674303,-0.608173,0.249755,-0.336249,-0.674303,-0.608173,0.249755,-0.336249,1979.266968,80205.453125,-inf,-0.650220,0.273315,-0.191040,-0.253612,23.000000,28.238234,9.797435,9.798959,1979.458008,0.273315,-0.204472,0.296551,-0.144695,0.000952,0.000050,0.000335,0,1,0,-0.007138,0,0.390000,0,15,0,202
611, 101,16105,16090,-4822,0,0,1.545755,0.344387,-9.655145,0.006372,-0.021380,-0.016596,-19.716457,29.903538,-14.498685,1.546134,0.344649,-9.654958,0.013248,-0.001059,0.001021,81.916159,4.366363,49.428699,-0.675078,-0.607060,0.247731,-0.338195,-0.675078,-0.607060,0.247731,-0.338195,1979.273560,80205.453125,-inf,-0.650373,0.273315,-0.184448,-0.255822,23.000000,28.238234,9.784160,9.784044,1979.458008,0.273315,-0.199942,0.299328,-0.142795,0.000952,0.000051,0.000335,0,1,0,-0.015586,0,0.390000,0,15,0,202
612, 101,16184,16177,-4743,0,0,1.539814,0.423490,-9.667635,-0.023236,-0.025238,-0.002410,-20.023384,29.918152,-14.089447,1.541347,0.435598,-9.669318,-0.005939,0.001897,-0.001495,81.668872,4.164006,49.399374,-0.677001,-0.605146,0.248077,-0.337528,-0.677001,-0.605146,0.248077,-0.337528,1979.305054,80205.453125,-inf,-0.651343,0.273315,-0.152954,-0.252159,23.000000,28.238234,9.798650,9.801082,1979.458008,0.273315,-0.200234,0.299182,-0.140894,0.000952,0.000053,0.000335,0,1,0,-0.008739,0,0.390000,0,15,0,202
613, 101,16266,16264,-4661,0,0,1.510901,0.290347,-9.672666,0.058447,0.083800,-0.007270,-20.067232,29.348145,-14.367144,1.507839,0.268060,-9.674106,-0.001256,-0.000283,-0.002269,81.668941,4.164084,49.399203,-0.673757,-0.608414,0.247748,-0.338387,-0.677001,-0.605147,0.248076,-0.337528,1979.305054,80205.453125,-inf,-0.651349,0.273315,-0.152954,-0.242387,23.000000,28.238234,9.794263,9.794578,1979.458008,0.273315,-0.200672,0.293481,-0.143671,0.000952,0.000054,0.000335,0,1,0,-0.007384,0,0.390000,0,15,0,202
614, 101,16347,16329,-4580,0,0,1.442641,0.361265,-9.688074,-0.086068,0.015655,-0.000327,-20.491085,29.918152,-14.030986,1.440824,0.363796,-9.688466,0.026336,-0.002073,-0.002684,82.107132,4.468978,49.442623,-0.673755,-0.608416,0.247746,-0.338387,-0.673755,-0.608416,0.247746,-0.338387,1979.351685,80205.453125,-inf,-0.651398,0.273315,-0.106323,-0.228981,23.000000,28.238234,9.801557,9.801770,1979.458008,0.273315,-0.204911,0.299182,-0.140310,0.000952,0.000056,0.000335,0,1,0,-0.001905,0,0.390000,0,15,0,202
615, 101,16425,16417,-4502,0,0,1.460102,0.381086,-9.683714,-0.009732,-0.035272,-0.000485,-20.359545,29.903538,-14.820229,1.474332,0.392517,-9.683678,0.013650,-0.002658,0.001111,82.251508,3.965221,49.372958,-0.674511,-0.608130,0.250853,-0.335091,-0.674511,-0.608130,0.250853,-0.335091,1979.442017,80205.453125,-inf,-0.651132,0.273315,-0.015991,-0.202138,23.000000,28.238234,9.800583,9.803129,1979.458008,0.273315,-0.203595,0.299035,-0.148202,0.000952,0.000057,0.000335,0,1,0,-0.006220,0,0.390000,0,15,0,202
616, 101,16478,16457,-4449,0,0,1.487015,0.357360,-9.670611,0.026597,-0.041671,-0.010331,-20.213388,29.903538,-14.469454,1.488692,0.354223,-9.669318,0.001328,-0.000724,0.002056,82.251720,3.965345,49.373030,-0.675263,-0.607144,0.249467,-0.336396,-0.674509,-0.608131,0.250853,-0.335091,1979.402588,80205.453125,-inf,-0.650912,0.273315,-0.055420,-0.184862,23.000000,28.238234,9.790793,9.789658,1979.458008,0.273315,-0.202134,0.299035,-0.144695,0.000952,0.000058,0.000335,0,1,0,-0.007375,0,0.390000,0,15,0,202
617, 101,16530,16524,-4397,0,0,1.511996,0.381311,-9.669435,0.000865,-0.038527,-0.006715,-20.403391,29.728149,-14.820229,1.522200,0.392517,-9.669318,-0.027696,0.003179,0.002080,82.030633,4.103864,49.392325,-0.675265,-0.607142,0.249469,-0.336395,-0.675265,-0.607142,0.249469,-0.336395,1979.402588,80205.453125,-inf,-0.651004,0.273315,-0.055420,-0.180567,23.000000,28.238234,9.794360,9.796268,1979.458008,0.273315,-0.201695,0.295089,-0.148933,0.000952,0.000059,0.000335,0,1,0,-0.010979,0,0.390000,0,15,0,202
618, 101,16595,16588,-4332,0,0,1.556772,0.353010,-9.656254,0.052408,-0.055173,-0.013988,-20.403391,30.049694,-14.396376,1.560494,0.349436,-9.654958,-0.003711,-0.002035,0.002567,82.030060,4.103246,49.392479,-0.675994,-0.606021,0.247154,-0.338652,-0.675269,-0.607137,0.249472,-0.336394,1979.448120,80205.453125,-inf,-0.651010,0.273315,-0.009888,-0.165051,23.000000,28.238234,9.787308,9.786493,1979.458008,0.273315,-0.204034,0.300497,-0.143964,0.000952,0.000060,0.000335,0,1,0,-0.011801,0,0.390000,0,15,0,202
619, 101,16674,16665,-4253,0,0,1.525080,0.349632,-9.667065,-0.013571,0.021797,-0.008166,-20.403391,30.722010,-14.294065,1.517413,0.359009,-9.674106,0.011121,-0.004149,-0.001405,81.736676,4.376567,49.431626,-0.675993,-0.606022,0.247155,-0.338652,-0.675993,-0.606022,0.247155,-0.338652,1979.480347,80205.453125,-inf,-0.651378,0.273315,0.022339,-0.140751,23.000000,28.238234,9.792868,9.798966,1979.458008,0.273315,-0.204034,0.307220,-0.142941,0.000952,0.000061,0.000335,0,1,0,-0.022269,0,0.390000,0,15,0,202
620, 101,16754,16752,-4173,0,0,1.508116,0.303096,-9.664772,0.033403,0.044357,-0.014733,-20.637241,30.342007,-13.899444,1.507839,0.301568,-9.664531,-0.008857,-0.002718,-0.001672,81.855678,4.245897,49.412594,-0.675761,-0.606430,0.248199,-0.337618,-0.675761,-0.606430,0.248199,-0.337618,1979.480347,80205.453125,-inf,-0.651397,0.273315,0.022339,-0.106121,23.000000,28.238234,9.786425,9.786097,1979.458008,0.273315,-0.206372,0.303420,-0.138994,0.000952,0.000063,0.000335,0,1,0,-0.013852,0,0.390000,0,15,0,202
621, 101,16834,16819,-4093,0,0,1.442500,0.317993,-9.673244,-0.020291,0.051020,-0.015372,-20.783396,30.239695,-14.820229,1.436037,0.315928,-9.674106,-0.016579,-0.000065,-0.000097,81.966826,4.277741,49.417255,-0.675076,-0.607157,0.248358,-0.337567,-0.675076,-0.607157,0.248358,-0.337567,1979.473755,80205.453125,-inf,-0.651708,0.273315,0.015747,-0.090755,23.000000,28.238234,9.785376,9.785210,1979.458008,0.273315,-0.207834,0.302397,-0.148202,0.000952,0.000064,0.000335,0,1,0,-0.013703,0,0.390000,0,15,0,202
622, 101,16914,16908,-4013,0,0,1.497827,0.316461,-9.679958,0.009981,0.026406,-0.000774,-20.228003,30.663549,-15.390237,1.474332,0.392517,-9.688466,0.020220,0.001137,-0.001259,81.966689,4.277724,49.417201,-0.674185,-0.608088,0.248489,-0.337575,-0.675076,-0.607156,0.248358,-0.337567,1979.443970,80205.453125,-inf,-0.652349,0.273315,-0.014038,-0.088153,23.000000,28.238234,9.800267,9.807859,1979.458008,0.273315,-0.202280,0.306635,-0.153902,0.000952,0.000065,0.000335,0,1,0,-0.018096,0,0.390000,0,15,0,202
623, 101,16993,16974,-3934,0,0,1.497676,0.355072,-9.674473,-0.027999,-0.023194,-0.004919,-20.315699,31.876644,-15.229465,1.498266,0.354223,-9.674106,-0.014199,0.005704,-0.001112,82.105178,4.330163,49.424420,-0.674184,-0.608090,0.248486,-0.337577,-0.674184,-0.608090,0.248486,-0.337577,1979.476196,80205.453125,-inf,-0.652155,0.273315,0.018188,-0.081378,23.000000,28.238234,9.796149,9.795846,1979.458008,0.273315,-0.203157,0.318766,-0.152295,0.000952,0.000067,0.000335,0,1,0,-0.004135,0,0.390000,0,15,0,202
624, 101,17071,17062,-3856,0,0,1.536815,0.337476,-9.655116,0.000625,0.019369,-0.018537,-19.979538,31.745104,-13.928676,1.517413,0.330289,-9.654958,0.006567,-0.000184,-0.000863,81.735924,4.397129,49.434013,-0.675936,-0.606065,0.247040,-0.338772,-0.675936,-0.606065,0.247040,-0.338772,1979.521729,80205.453125,-inf,-0.652159,0.273315,0.063721,-0.069564,23.000000,28.238234,9.782482,9.779051,1979.458008,0.273315,-0.199795,0.317451,-0.139287,0.000952,0.000068,0.000335,0,1,0,-0.010383,0,0.390000,0,15,0,202
625, 101,17151,17150,-3776,0,0,1.517460,0.330306,-9.654959,-0.000857,0.004217,-0.021941,-19.877228,31.993568,-14.235603,1.517413,0.330289,-9.654958,0.014398,-0.000545,-0.001642,81.936766,4.364534,49.429092,-0.674973,-0.607176,0.247805,-0.338144,-0.674973,-0.607176,0.247805,-0.338144,1979.521729,80205.453125,-inf,-0.652791,0.273315,0.063721,-0.047367,23.000000,28.238234,9.779059,9.779051,1979.458008,0.273315,-0.198772,0.319936,-0.142356,0.000952,0.000069,0.000335,0,1,0,-0.021922,0,0.390000,0,15,0,202
626, 101,17230,17220,-3697,0,0,1.495070,0.404588,-9.683445,-0.073924,-0.023701,0.005223,-19.877228,32.271267,-14.162525,1.493479,0.392517,-9.683678,-0.004251,-0.001355,-0.000464,81.937654,4.365256,49.428932,-0.676770,-0.605605,0.249493,-0.336122,-0.674967,-0.607184,0.247803,-0.338145,1979.534058,80205.453125,-inf,-0.652872,0.273315,0.076050,-0.031488,23.000000,28.238234,9.806530,9.806026,1979.458008,0.273315,-0.198772,0.322713,-0.141625,0.000952,0.000071,0.000335,0,1,0,0.006155,0,0.390000,0,15,0,202
627, 101,17309,17306,-3618,0,0,1.469743,0.212122,-9.688426,0.121537,0.142660,-0.001224,-20.286467,31.701258,-13.987139,1.469545,0.210619,-9.688466,0.010468,-0.003183,0.001541,81.817190,3.980413,49.373921,-0.676769,-0.605606,0.249494,-0.336122,-0.676769,-0.605606,0.249494,-0.336122,1979.553101,80205.453125,-inf,-0.652155,0.273315,0.095093,-0.013106,23.000000,28.238234,9.801569,9.801546,1979.458008,0.273315,-0.202865,0.317013,-0.139871,0.000952,0.000072,0.000335,0,1,0,-0.001087,0,0.390000,0,15,0,202
628, 101,17395,17393,-3532,0,0,1.456087,0.374851,-9.673829,-0.049950,-0.026044,-0.011184,-20.213388,30.824322,-15.229465,1.455185,0.378157,-9.674106,-0.002852,-0.002729,0.002521,82.228634,4.214680,49.406870,-0.673882,-0.608559,0.249456,-0.336616,-0.673882,-0.608559,0.249456,-0.336616,1979.619751,80205.453125,-inf,-0.652077,0.273315,0.161743,0.002202,23.000000,28.238234,9.789978,9.790244,1979.458008,0.273315,-0.202134,0.308243,-0.152295,0.000952,0.000073,0.000335,0,1,0,-0.011815,0,0.390000,0,15,0,202
629, 101,17482,17475,-3445,0,0,1.589805,0.311399,-9.666003,0.091624,0.016882,-0.000623,-19.467991,30.137386,-16.018707,1.603575,0.272847,-9.664531,-0.018917,-0.001221,0.003767,81.630678,4.178875,49.402246,-0.677155,-0.604953,0.247889,-0.337704,-0.677155,-0.604953,0.247889,-0.337704,1979.639404,80205.453125,-inf,-0.651837,0.273315,0.181396,0.026562,23.000000,28.238234,9.800820,9.800462,1979.458008,0.273315,-0.194241,0.305320,-0.158872,0.000952,0.000075,0.000335,0,1,0,0.001255,0,0.390000,0,15,0,202
630, 101,17559,17557,-3368,0,0,1.603463,0.333707,-9.645912,0.006513,-0.003353,-0.017032,-19.614147,29.815844,-15.755627,1.603575,0.335075,-9.645384,0.032727,-0.004214,0.000564,81.582231,4.633934,49.469564,-0.676023,-0.605687,0.245331,-0.340513,-0.676023,-0.605687,0.245331,-0.340513,1979.639404,80205.453125,-inf,-0.651423,0.273315,0.181396,0.047679,23.000000,28.238234,9.783971,9.783515,1979.458008,0.273315,-0.196141,0.298158,-0.157556,0.000953,0.000076,0.000335,0,1,0,-0.016230,0,0.390000,0,15,0,202
631, 101,17639,17624,-3288,0,0,1.475704,0.377225,-9.673920,-0.107700,0.066415,-0.008752,-20.388775,29.859690,-15.814090,1.474332,0.378157,-9.674106,-0.013348,0.000956,-0.001664,81.582225,4.633848,49.469476,-0.676023,-0.605687,0.245331,-0.340512,-0.676023,-0.605687,0.245331,-0.340512,1979.649536,80205.453125,-inf,-0.651502,0.273315,0.191528,0.070843,23.000000,28.238234,9.793096,9.793109,1979.458008,0.273315,-0.203888,0.298597,-0.158141,0.000952,0.000077,0.000335,0,1,0,-0.008682,0,0.390000,0,15,0,202
632, 101,17717,17713,-3210,0,0,1.467356,0.285970,-9.686951,0.051478,0.074154,0.000213,-20.359545,30.225080,-16.208712,1.474332,0.306355,-9.688466,0.025783,-0.000788,-0.002639,81.944580,4.053828,49.384942,-0.675872,-0.606522,0.249481,-0.336284,-0.675872,-0.606522,0.249481,-0.336284,1979.656128,80205.453125,-inf,-0.651425,0.273315,0.198120,0.090597,23.000000,28.238234,9.801629,9.804789,1979.458008,0.273315,-0.203595,0.302251,-0.162087,0.000952,0.000079,0.000335,0,1,0,-0.007566,0,0.390000,0,15,0,202
633, 101,17797,17781,-3130,0,0,1.516233,0.418086,-9.660516,-0.048632,-0.096773,-0.012846,-20.783396,30.166616,-16.734873,1.517413,0.421238,-9.659744,0.024538,-0.001057,-0.001141,82.245388,4.270299,49.414807,-0.673624,-0.608783,0.249210,-0.336910,-0.673624,-0.608783,0.249210,-0.336910,1979.633301,80205.453125,-inf,-0.651086,0.273315,0.175293,0.096904,23.000000,28.238234,9.787713,9.787270,1979.458008,0.273315,-0.207834,0.301666,-0.167349,0.000952,0.000080,0.000335,0,1,0,-0.008675,0,0.390000,0,15,0,202
634, 101,17877,17870,-3050,0,0,1.525217,0.293314,-9.666737,0.076677,0.025078,-0.010617,-19.804152,30.049694,-16.413330,1.536560,0.258487,-9.659744,-0.013077,0.001826,0.002060,81.934451,4.101613,49.391478,-0.675782,-0.606571,0.249195,-0.336588,-0.675782,-0.606571,0.249195,-0.336588,1979.602783,80205.453125,-inf,-0.651089,0.273315,0.144775,0.094168,23.000000,28.238234,9.790716,9.784605,1979.458008,0.273315,-0.202572,0.304005,-0.161795,0.000952,0.000081,0.000335,0,1,0,0.004236,0,0.390000,0,15,0,202
635, 101,17956,17937,-2971,0,0,1.551034,0.385371,-9.662841,0.023950,-0.054772,-0.007066,-21.441099,30.385853,-15.419468,1.589215,0.387730,-9.650170,0.019983,-0.000678,0.001341,81.934669,4.101943,49.391584,-0.675780,-0.606573,0.249195,-0.336590,-0.675780,-0.606573,0.249195,-0.336590,1979.621826,80205.453125,-inf,-0.650886,0.273315,0.163818,0.085662,23.000000,28.238234,9.794116,9.787835,1979.458008,0.273315,-0.214411,0.303859,-0.154195,0.000952,0.000083,0.000335,0,1,0,0.008272,0,0.390000,0,15,0,202
636, 101,18035,18025,-2892,0,0,1.528574,-0.401697,9.668832,2.010381,-2.280198,-19.113998,-23.677288,-30.473545,15.287927,1.526986,-0.402090,9.669318,-0.008634,0.002145,-0.001540,81.645322,4.227105,49.409633,-0.676931,-0.605147,0.247678,-0.337961,-0.676931,-0.605147,0.247678,-0.337961,1979.633911,80205.453125,-inf,-0.650807,0.273315,0.175903,0.089120,23.000000,28.238234,9.797153,9.797401,1979.458008,0.273315,-0.236773,-0.304735,0.152879,0.000952,0.000084,0.000335,0,1,0,-0.006557,0,0.390000,0,15,0,202
637, 101,18113,18105,-2814,0,0,1.502432,-0.271679,9.676015,1.736090,-2.161190,-0.405702,-24.451914,-30.634317,15.141771,1.483905,-0.229766,9.678891,-0.013345,0.002720,0.001088,111.053644,165.569072,-52.575463,-0.425955,0.155858,-0.549322,-0.701795,-0.425955,0.155858,-0.549322,-0.701795,1979.633911,80205.453125,-inf,-1.444477,0.273315,0.175903,0.082881,23.000000,28.238234,9.795732,9.794677,1979.458008,0.273315,-0.244519,-0.306343,0.151418,0.000952,0.000085,0.000335,0,1,0,-0.996479,0,0.390000,0,15,0,202
638, 101,18193,18184,-2734,0,0,1.544467,-0.327605,9.660259,1.748196,-2.098199,-0.400902,-24.481146,-30.648932,14.834844,1.546134,-0.330289,9.659744,0.015961,0.003254,0.000591,111.053432,165.569127,-52.575357,-0.350311,0.240745,-0.600641,-0.677167,-0.425954,0.155858,-0.549323,-0.701795,1979.694946,80205.453125,-inf,-1.472533,0.273315,0.236938,0.072329,23.000000,28.238234,9.788427,9.788273,1979.458008,0.273315,-0.244811,-0.306489,0.148348,0.000952,0.000087,0.000335,0,1,0,-0.403799,0,0.390000,0,15,0,202
639, 101,18272,18263,-2655,0,0,1.499380,-0.352645,9.687978,0.223992,-0.243192,0.000132,-24.802689,-30.765858,14.615609,1.503052,-0.359009,9.688466,-0.002082,-0.001182,-0.001595,99.396731,174.561194,-50.093519,-0.350312,0.240743,-0.600646,-0.677162,-0.350312,0.240743,-0.600646,-0.677162,1979.647461,80205.453125,-inf,-1.481711,0.273315,0.189453,0.061061,23.000000,28.238234,9.809660,9.810934,1979.458008,0.273315,-0.248027,-0.307659,0.146156,0.000952,0.000088,0.000335,0,1,0,-0.010534,0,0.390000,0,15,0,202
640, 101,18351,18342,-2576,0,0,1.558324,-0.263477,9.659976,-0.024267,-0.091525,-0.025104,-25.299622,-30.473545,14.761765,1.594001,-0.258487,9.659744,0.008813,-0.001522,-0.003141,98.211112,175.765916,-49.906580,-0.340615,0.250684,-0.604931,-0.674683,-0.340615,0.250684,-0.604931,-0.674683,1979.653198,80205.453125,-inf,-1.481273,0.273315,0.195190,0.052188,23.000000,28.238234,9.788407,9.793790,1979.458008,0.273315,-0.252996,-0.304735,0.147618,0.000952,0.000089,0.000335,0,1,0,-0.022600,0,0.390000,0,15,0,202
641, 101,18440,18439,-2487,0,0,1.506593,-0.328223,9.659746,0.021866,-0.007134,-0.018990,-24.978075,-30.941244,15.127155,1.498266,-0.335075,9.659744,0.023693,-0.000937,0.000239,98.058348,175.615597,-49.928013,-0.341170,0.250341,-0.606171,-0.673416,-0.341170,0.250341,-0.606171,-0.673416,1979.653198,80205.453125,-inf,-1.481505,0.273315,0.195190,0.031949,23.000000,28.238234,9.782037,9.780989,1979.458008,0.273315,-0.249781,-0.309412,0.151272,0.000952,0.000091,0.000335,0,1,0,-0.016290,0,0.390000,0,15,0,202
642, 101,18492,18475,-2435,0,0,1.549723,-0.474617,9.655087,0.100123,0.112157,-0.012574,-24.992693,-30.751244,15.551008,1.550920,-0.478679,9.654958,-0.000370,-0.001537,0.000566,98.058314,175.615515,-49.927996,-0.341170,0.250340,-0.606172,-0.673416,-0.341170,0.250340,-0.606172,-0.673416,1979.635010,80205.453125,-inf,-1.481614,0.273315,0.177002,0.026050,23.000000,28.238234,9.790179,9.790439,1979.458008,0.273315,-0.249927,-0.307512,0.155510,0.000952,0.000092,0.000335,0,1,0,-0.014212,0,0.390000,0,15,0,202
643, 101,18545,18538,-2382,0,0,1.555169,-0.382482,9.663681,0.032335,0.063743,-0.005773,-25.372700,-30.268929,15.448700,1.555707,-0.373370,9.664531,-0.023274,-0.002521,0.002513,98.058765,175.615898,-49.927955,-0.340899,0.250241,-0.603821,-0.675697,-0.341169,0.250341,-0.606168,-0.673419,1979.635010,80205.453125,-inf,-1.481602,0.273315,0.177002,0.013420,23.000000,28.238234,9.795487,9.796060,1979.458008,0.273315,-0.253727,-0.302689,0.154487,0.000953,0.000092,0.000335,0,1,0,-0.007400,0,0.390000,0,15,0,202
644, 101,18606,18588,-2321,0,0,1.440470,-0.391504,9.678665,0.084911,-0.075961,-0.008564,-24.919615,-30.619701,14.732533,1.392956,-0.397304,9.688466,0.023195,0.003974,0.002931,98.392311,175.784248,-49.903401,-0.340899,0.250240,-0.603823,-0.675696,-0.340899,0.250240,-0.603823,-0.675696,1979.577881,80205.453125,-inf,-1.481372,0.273315,0.119873,-0.004647,23.000000,28.238234,9.793099,9.796150,1979.458008,0.273315,-0.249196,-0.306197,0.147325,0.000952,0.000094,0.000335,0,1,0,-0.014001,0,0.390000,0,15,0,202
645, 101,18688,18686,-2239,0,0,1.444305,-0.378659,9.674470,-0.033156,0.014901,-0.012055,-25.255772,-30.897400,13.928676,1.445611,-0.378157,9.674106,0.015715,0.003787,-0.001946,97.826388,176.395537,-49.815923,-0.336025,0.255152,-0.605761,-0.674565,-0.336025,0.255152,-0.605761,-0.674565,1979.577881,80205.453125,-inf,-1.481118,0.273315,0.119873,-0.014474,23.000000,28.238234,9.789012,9.788826,1979.458008,0.273315,-0.252558,-0.308974,0.139287,0.000952,0.000095,0.000335,0,1,0,-0.011556,0,0.390000,0,15,0,202
646, 101,18769,18766,-2158,0,0,1.558448,-0.344148,9.666902,-0.079358,0.025722,-0.003591,-25.416544,-30.634317,14.630225,1.584428,-0.325502,9.659744,-0.010497,0.001806,-0.003635,98.143234,176.082277,-49.860149,-0.338585,0.252558,-0.604612,-0.675292,-0.338585,0.252558,-0.604612,-0.675292,1979.522583,80205.453125,-inf,-1.480561,0.273315,0.064575,-0.026756,23.000000,28.238234,9.797765,9.794234,1979.458008,0.273315,-0.254165,-0.306343,0.146302,0.000952,0.000096,0.000335,0,1,0,0.005045,0,0.390000,0,15,0,202
647, 101,18849,18846,-2078,0,0,1.551762,-0.330205,9.669077,-0.085586,0.011374,-0.003011,-25.372700,-30.371237,14.381761,1.550920,-0.330289,9.669318,-0.003317,0.001125,-0.004231,98.143378,176.082564,-49.860391,-0.338585,0.252561,-0.604610,-0.675292,-0.338585,0.252561,-0.604610,-0.675292,1979.522583,80205.453125,-inf,-1.480124,0.273315,0.064575,-0.049231,23.000000,28.238234,9.798369,9.798477,1979.458008,0.273315,-0.253727,-0.303712,0.143818,0.000952,0.000098,0.000335,0,1,0,-0.003308,0,0.390000,0,15,0,202
648, 101,18930,18927,-1997,0,0,1.571700,-0.360197,9.667641,-0.003298,-0.001340,0.000186,-25.650394,-30.824322,14.600994,1.570068,-0.359009,9.669318,-0.003609,0.001117,0.000767,98.423955,175.664146,-49.921583,-0.341683,0.249512,-0.603908,-0.675493,-0.341683,0.249512,-0.603908,-0.675493,1979.505615,80205.453125,-inf,-1.480016,0.273315,0.047607,-0.075697,23.000000,28.238234,9.801187,9.802536,1979.458008,0.273315,-0.256504,-0.308243,0.146010,0.000952,0.000099,0.000335,0,1,0,-0.003301,0,0.390000,0,15,0,202
649, 101,19011,19008,-1916,0,0,1.589064,-0.349516,9.655070,-0.003875,0.001367,-0.009797,-25.562700,-30.575853,13.767904,1.589215,-0.349436,9.654958,-0.000005,-0.000997,0.002690,98.455995,175.550260,-49.938416,-0.342428,0.248813,-0.603978,-0.675312,-0.342428,0.248813,-0.603978,-0.675312,1979.505615,80205.453125,-inf,-1.479486,0.273315,0.047607,-0.087738,23.000000,28.238234,9.791203,9.791114,1979.458008,0.273315,-0.255627,-0.305759,0.137679,0.000952,0.000101,0.000335,0,1,0,-0.009566,0,0.390000,0,15,0,202
650, 101,19092,19091,-1835,0,0,1.443772,-0.329394,9.683255,0.076262,-0.124593,-0.006253,-25.898859,-30.400467,14.410991,1.440824,-0.330289,9.683678,0.015343,0.002135,0.003806,98.455503,175.549782,-49.938146,-0.338630,0.252880,-0.606962,-0.673037,-0.342428,0.248810,-0.603982,-0.675309,1979.455078,80205.453125,-inf,-1.479314,0.273315,-0.002930,-0.114321,23.000000,28.238234,9.795836,9.795850,1979.458008,0.273315,-0.255919,-0.307074,0.145425,0.000952,0.000102,0.000335,0,1,0,-0.006178,0,0.390000,0,15,0,202
651, 101,19172,19170,-1755,0,0,1.489505,-0.327777,9.678902,-0.023295,0.021447,-0.002725,-25.387314,-30.955860,15.346390,1.483905,-0.306355,9.678891,0.007846,-0.001696,0.000097,97.795414,175.947107,-49.881131,-0.338630,0.252879,-0.606963,-0.673037,-0.338630,0.252879,-0.606963,-0.673037,1979.426880,80205.453125,-inf,-1.478783,0.273315,-0.031128,-0.132643,23.000000,28.238234,9.798326,9.796773,1979.458008,0.273315,-0.253873,-0.309559,0.153464,0.000952,0.000103,0.000335,0,1,0,0.000933,0,0.390000,0,15,0,202
652, 101,19252,19250,-1675,0,0,1.516522,-0.394900,9.683549,0.042368,0.079966,0.008114,-25.504238,-30.488161,14.600994,1.517413,-0.397304,9.683678,0.011229,-0.002065,-0.000503,97.823499,175.764823,-49.906136,-0.339768,0.251826,-0.607214,-0.672631,-0.339768,0.251826,-0.607214,-0.672631,1979.420776,80205.453125,-inf,-1.478181,0.273315,-0.037231,-0.154395,23.000000,28.238234,9.809531,9.809894,1979.458008,0.273315,-0.255042,-0.303420,0.147179,0.000952,0.000105,0.000335,0,1,0,0.007229,0,0.390000,0,15,0,202
653, 101,19339,19339,-1588,0,0,1.555102,-0.394783,9.660221,-0.008177,0.030810,-0.008500,-25.197309,-31.028938,14.060216,1.565281,-0.397304,9.659744,0.005553,-0.000047,-0.002524,98.297385,175.903599,-49.886479,-0.339987,0.251158,-0.604110,-0.675559,-0.339987,0.251158,-0.604110,-0.675559,1979.392700,80205.453125,-inf,-1.477996,0.273315,-0.065308,-0.181859,23.000000,28.238234,9.792552,9.793805,1979.458008,0.273315,-0.251973,-0.310289,0.140602,0.000952,0.000106,0.000335,0,1,0,-0.012069,0,0.390000,0,15,0,202
654, 101,19422,19419,-1505,0,0,1.585018,-0.369636,9.659192,-0.046735,0.037104,-0.005831,-25.475008,-31.014324,13.767904,1.603575,-0.363796,9.654958,0.001989,0.003323,-0.000292,98.297767,175.904064,-49.886561,-0.339985,0.251160,-0.604106,-0.675562,-0.339985,0.251160,-0.604106,-0.675562,1979.342529,80205.453125,-inf,-1.477742,0.273315,-0.115479,-0.213041,23.000000,28.238234,9.795351,9.793979,1979.458008,0.273315,-0.249927,-0.308682,0.138702,0.000953,0.000107,0.000335,0,1,0,-0.002314,0,0.390000,0,15,0,202
655, 101,19509,19499,-1418,0,0,1.486986,-0.359186,9.664307,0.061188,-0.083994,-0.016923,-25.124233,-31.131247,14.600994,1.483905,-0.359009,9.664531,0.005432,0.004335,0.001592,98.535820,175.599765,-49.931606,-0.342311,0.248840,-0.603393,-0.675883,-0.342311,0.248840,-0.603393,-0.675883,1979.342529,80205.453125,-inf,-1.477494,0.273315,-0.115479,-0.246698,23.000000,28.238234,9.784629,9.784376,1979.458008,0.273315,-0.251242,-0.311312,0.146010,0.000953,0.000109,0.000335,0,1,0,-0.016177,0,0.390000,0,15,0,202
656, 101,19584,19583,-1343,0,0,1.496397,-0.307157,9.664949,-0.020478,-0.063260,-0.016299,-24.919615,-30.795088,14.294065,1.493479,-0.301568,9.664531,-0.000262,0.004276,0.001013,98.256240,175.808168,-49.900723,-0.340464,0.250776,-0.604569,-0.675050,-0.340464,0.250776,-0.604569,-0.675050,1979.281494,80205.453125,-inf,-1.477458,0.273315,-0.176514,-0.280908,23.000000,28.238234,9.784927,9.783894,1979.458008,0.273315,-0.249196,-0.307951,0.142941,0.000953,0.000110,0.000335,0,1,0,-0.013522,0,0.390000,0,15,0,202
657, 101,19666,19664,-1261,0,0,1.489023,-0.266961,9.665929,-0.046318,-0.094855,-0.017979,-25.197309,-30.765858,14.542532,1.479118,-0.244126,9.664531,0.018039,0.000531,-0.001009,98.256103,175.808072,-49.900737,-0.340805,0.250970,-0.608042,-0.671678,-0.340465,0.250776,-0.604570,-0.675049,1979.300049,80205.453125,-inf,-1.477322,0.273315,-0.157959,-0.292082,23.000000,28.238234,9.783590,9.780109,1979.458008,0.273315,-0.251973,-0.307659,0.145425,0.000953,0.000111,0.000335,0,1,0,-0.009182,0,0.390000,0,15,0,202
658, 101,19747,19744,-1180,0,0,1.744623,-0.374593,13.805094,0.233659,-0.304801,4.113638,-25.431160,-30.575853,14.089447,1.751966,-0.378157,13.919988,0.018341,0.000608,-0.003099,97.757909,175.565450,-49.934898,-0.340808,0.250968,-0.608049,-0.671671,-0.340808,0.250968,-0.608049,-0.671671,1979.271118,80205.453125,-inf,-1.441806,0.273315,-0.186890,-0.307277,23.000000,28.238234,13.919937,14.034901,1979.458008,0.273315,-0.253435,-0.306635,0.144548,0.000953,0.000113,0.000335,0,1,0,3.813929,0,0.390000,0,15,0,202
659, 101,19828,19826,-1099,0,0,10.652377,-0.957262,71.665878,-1.414733,9.020721,62.080936,-25.431160,-30.882782,13.928676,14.527911,-3.116201,74.851051,-0.149782,-0.001741,0.026670,89.795042,176.237213,-49.887852,-0.318601,0.277569,-0.651721,-0.629848,-0.318601,0.277569,-0.651721,-0.629848,1979.256714,80205.453125,-inf,0.210790,0.273315,-0.201294,-0.296990,23.000000,28.238234,72.459557,76.311539,1979.458008,0.273315,-0.254312,-0.308828,0.139287,0.000952,0.000114,0.000335,0,1,0,54.536079,0,0.390000,0,15,0,202
660, 101,19909,19908,-1018,0,0,8.970617,-0.441074,78.448288,1.500662,3.221071,69.079750,-24.978075,-31.248173,14.162525,9.382111,-1.766326,78.259247,-0.185302,-0.014906,0.031146,92.856032,174.940556,-49.915835,-0.332992,0.261562,-0.637785,-0.643376,-0.332992,0.261562,-0.637785,-0.643376,1979.399292,80205.453125,-inf,3.689267,0.273315,-0.058716,-0.161437,23.000000,28.238234,78.960747,78.839417,1979.458008,0.273315,-0.249781,-0.312482,0.141625,0.000953,0.000116,0.000335,0,1,0,69.337151,0,0.390000,0,15,0,202
661, 101,19990,19988,-937,0,0,8.365766,3.243758,77.365456,-1.026379,0.418290,68.075142,-25.138849,-31.102016,14.498685,8.338591,3.379475,77.340179,-0.033864,-0.029477,-0.091676,92.866565,174.948984,-49.918837,-0.332988,0.261597,-0.637698,-0.643449,-0.332988,0.261597,-0.637698,-0.643449,1979.399292,80205.453125,-inf,7.367595,0.273315,-0.058716,0.106358,23.000000,28.238234,77.884026,77.861778,1979.458008,0.273315,-0.251388,-0.311020,0.144987,0.000952,0.000117,0.000335,0,1,0,68.135117,0,0.390000,0,15,0,202
662, 101,20071,20070,-856,0,0,8.094691,-0.303290,73.673721,0.048106,2.526845,64.273598,-25.197309,-31.014324,14.542532,9.190639,-0.617496,72.381065,0.647006,0.078970,-0.016639,92.987295,176.090733,-49.861026,-0.326842,0.267586,-0.634351,-0.647434,-0.326842,0.267586,-0.634351,-0.647434,1979.695923,80205.453125,-inf,11.124477,0.273315,0.237915,0.549004,23.000000,28.238234,74.117699,72.964836,1979.458008,0.273315,-0.251973,-0.310143,0.145425,0.000953,0.000118,0.000335,0,1,0,67.078873,0,0.390000,0,15,0,202
663, 101,20153,20152,-774,0,0,8.997016,-0.304677,75.369698,-0.009048,0.196707,66.104149,-24.934229,-31.233559,15.039462,8.994380,-0.296781,75.449402,0.725972,0.034925,0.064675,95.200502,175.784057,-49.877088,-0.333647,0.259493,-0.622467,-0.658694,-0.333647,0.259493,-0.622467,-0.658694,1981.068481,80205.453125,-inf,14.680607,1.610474,1.610474,1.321616,23.000000,28.238234,75.905403,75.984207,1979.458008,1.610474,-0.249342,-0.312336,0.150395,0.000953,0.000120,0.000335,0,1,0,65.895912,0,0.390000,0,15,0,202
664, 101,20234,20234,-693,0,0,9.114677,-0.324613,75.214592,-0.033663,0.339556,65.963776,-25.153463,-31.131247,15.726397,9.128410,-0.325502,75.281868,0.787378,-0.202402,0.020826,95.179929,175.747857,-49.873451,-0.334423,0.258520,-0.621407,-0.659683,-0.333769,0.259319,-0.622685,-0.658495,1982.319336,80205.453125,-inf,18.242613,2.861328,2.861328,2.339302,23.000000,28.238234,75.765541,75.833984,1979.458008,2.861328,-0.251535,-0.311312,0.157264,0.000953,0.000121,0.000335,0,1,0,65.786980,0,0.390000,0,15,0,202
665, 101,20314,20313,-613,0,0,9.192041,-0.017177,74.013199,-0.325830,0.022118,64.780106,-24.495762,-31.321251,15.097925,9.219359,0.019147,73.912849,0.586666,-0.384537,-0.029017,95.399192,175.685443,-49.874984,-0.334599,0.258317,-0.621577,-0.659513,-0.334599,0.258317,-0.621577,-0.659513,1983.875732,80205.453125,-inf,21.857067,4.417725,4.417725,3.524984,23.000000,28.238234,74.581818,74.485611,1979.458008,4.417725,-0.244958,-0.313213,0.150979,0.000953,0.000122,0.000335,0,1,0,65.007507,0,0.390000,0,15,0,202
666, 101,20397,20389,-530,0,0,9.145087,0.349907,74.283913,-0.192898,-0.308601,65.043655,-25.138849,-31.292021,15.857937,9.137984,0.382943,74.319717,0.284296,-0.517445,-0.090011,95.425987,175.409380,-49.901748,-0.336253,0.256743,-0.622057,-0.658834,-0.336253,0.256743,-0.622057,-0.658834,1983.875732,80205.453125,-inf,25.414091,4.417725,4.417725,4.857629,23.000000,28.238234,74.845535,74.880371,1979.458008,4.417725,-0.251388,-0.312920,0.158579,0.000953,0.000124,0.000335,0,1,0,64.954041,0,0.390000,0,15,0,202
667, 101,20478,20472,-449,0,0,8.971292,0.590774,73.235413,-0.320277,-0.526550,63.981647,-24.188833,-30.678165,16.106401,8.989594,0.550481,73.348000,-0.048941,-0.536013,-0.142060,95.449640,175.387920,-49.911307,-0.336933,0.256461,-0.624566,-0.656217,-0.336473,0.256597,-0.621953,-0.658876,1985.621826,80205.453125,-inf,29.222391,6.163818,6.163818,6.569296,23.000000,28.238234,73.785225,73.898880,1979.458008,6.163818,-0.242765,-0.305612,0.153025,0.000953,0.000125,0.000335,0,1,0,63.718849,0,0.390000,0,15,0,202
668, 101,20557,20549,-370,0,0,8.998761,1.296015,73.887360,-0.510892,-0.572088,64.639656,-22.727274,-30.897400,16.194096,8.999167,1.316368,73.903267,-0.010128,-0.426346,-0.196173,95.104811,175.149341,-49.943921,-0.337132,0.256370,-0.624455,-0.656256,-0.337132,0.256370,-0.624455,-0.656256,1987.953491,80205.453125,-inf,32.877594,8.495483,8.495483,8.427057,23.000000,28.238234,74.444603,74.460800,1979.458008,8.495483,-0.227273,-0.310874,0.169687,0.000953,0.000126,0.000335,0,1,0,64.597908,0,0.390000,0,15,0,202
669, 101,20636,20633,-291,0,0,8.874412,1.878931,72.860146,-0.398844,-0.139370,63.620441,-22.610348,-31.160480,16.501022,8.893858,1.905143,72.859749,-0.116648,0.001087,-0.253384,94.475122,174.712018,-49.995294,-0.338305,0.255915,-0.629015,-0.651458,-0.338305,0.255915,-0.629015,-0.651458,1990.508789,80205.453125,-inf,36.506966,11.050781,11.050781,10.388684,23.000000,28.238234,73.422661,73.425293,1979.458008,11.050781,-0.226103,-0.311605,0.165010,0.000953,0.000127,0.000335,0,1,0,63.614204,0,0.390000,0,15,0,202
670, 101,20718,20716,-209,0,0,8.494474,1.147782,73.148811,0.619856,0.209449,63.845413,-24.481146,-31.131247,15.828705,8.391245,0.871196,73.170891,-0.383828,0.292732,-0.251132,94.332050,174.564923,-50.022465,-0.338911,0.255617,-0.630128,-0.650183,-0.338911,0.255617,-0.630128,-0.650183,1993.612061,80205.453125,-inf,40.101093,14.154053,14.154053,12.572483,23.000000,28.238234,73.649315,73.655624,1979.458008,14.154053,-0.244811,-0.311312,0.158287,0.000953,0.000129,0.000335,0,1,0,63.837059,0,0.390000,0,15,0,202
671, 101,20800,20799,-127,0,0,8.233139,0.666936,73.762344,1.169522,0.271694,64.412689,-24.671150,-31.218943,15.097925,8.228494,0.660577,73.778809,-0.581273,0.354702,-0.179727,94.335909,174.598719,-50.034493,-0.334612,0.259774,-0.627094,-0.653686,-0.338810,0.255872,-0.629996,-0.650263,1993.612061,80205.453125,-inf,43.614227,14.154053,14.154053,14.917262,23.000000,28.238234,74.223396,74.239189,1979.458008,14.154053,-0.246711,-0.312189,0.150979,0.000953,0.000130,0.000335,0,1,0,64.371628,0,0.390000,0,15,0,202
672, 101,20880,20879,-47,0,0,7.872611,-0.623670,73.317413,1.239938,0.595431,63.927677,-24.904999,-31.014324,15.843322,7.898205,-0.631856,73.319275,-0.977240,0.178526,-0.155593,94.540405,175.454555,-49.980302,-0.334470,0.260030,-0.626839,-0.653901,-0.334470,0.260030,-0.626839,-0.653901,1997.053223,80205.453125,-inf,47.180153,17.595215,17.595215,17.857719,23.000000,28.238234,73.741508,73.746162,1979.458008,17.595215,-0.249050,-0.310143,0.158433,0.000953,0.000131,0.000335,0,1,0,63.915489,0,0.390000,0,15,0,202
673, 101,20927,21069,0,0,0,6.600352,-0.535690,73.884865,0.391801,-0.727456,64.375427,-25.241158,-30.824322,13.840982,6.404727,-0.516973,73.903267,-2.038908,-0.386827,-0.266134,94.733214,176.722293,-49.929612,-0.325199,0.269596,-0.624916,-0.656539,-0.327945,0.266673,-0.622652,-0.658515,2001.090820,80205.453125,-inf,54.557957,21.632812,21.632812,23.853668,23.000000,28.238234,74.181030,74.182076,1979.458008,21.632812,-0.248319,-0.309412,0.135194,0.000955,0.000135,0.000335,0,1,0,64.374741,1,0.390000,0,15,0,202
674, 101,21378,21377,451,0,0,8.042920,-0.503337,73.519730,-1.301512,0.653340,64.144737,-25.387314,-31.248173,15.258697,7.989154,-0.507400,73.563416,-1.560893,-0.105245,-0.221464,94.519839,177.282382,-49.925510,-0.324458,0.270550,-0.622451,-0.658851,-0.324458,0.270550,-0.622451,-0.658851,2022.438965,80205.453125,-inf,71.266869,42.980957,42.980957,43.040611,23.000000,28.238234,73.960075,73.997704,1979.458008,42.980957,-0.253873,-0.312482,0.152587,0.000953,0.000142,0.000335,0,1,0,64.044853,1,0.390000,0,15,0,202
675, 101,21432,21432,505,0,0,7.494731,-0.604206,73.599686,-0.923646,0.238930,64.175613,-25.840399,-31.452793,14.308682,7.275922,-0.646217,73.620850,-1.439115,-0.162477,-0.308368,94.564242,177.326628,-49.938542,-0.324403,0.270755,-0.622050,-0.659172,-0.324403,0.270755,-0.622050,-0.659172,2028.838623,80205.453125,-inf,73.919853,49.380615,49.380615,46.204941,23.000000,28.238234,73.982765,73.982338,1979.458008,49.380615,-0.258404,-0.314528,0.143087,0.000954,0.000143,0.000335,0,1,0,64.170525,1,0.390000,0,15,0,202
676, 101,21487,21474,560,0,0,6.519534,-0.767050,73.454750,-0.358651,-0.305641,63.998398,-25.957321,-31.277403,14.717918,6.438234,-0.780247,73.438950,-1.277891,-0.224844,-0.341878,94.596590,177.355520,-49.950608,-0.324396,0.270898,-0.621761,-0.659389,-0.324396,0.270898,-0.621761,-0.659389,2028.838623,80205.453125,-inf,75.950630,49.380615,49.380615,48.811764,23.000000,28.238234,73.747498,73.724754,1979.458008,49.380615,-0.259573,-0.312774,0.147179,0.000954,0.000143,0.000335,0,1,0,64.176689,1,0.390000,0,15,0,202
677, 101,21548,21535,621,0,0,5.257412,0.128331,74.124039,-0.100576,-1.959877,64.445961,-25.065771,-30.765858,15.214850,5.222389,0.153177,74.142609,-0.981852,-0.312785,-0.106628,94.631998,177.381515,-49.960474,-0.324399,0.271004,-0.621467,-0.659622,-0.324399,0.271004,-0.621467,-0.659622,2035.585571,80205.453125,-inf,78.406921,56.127563,56.127563,52.598915,23.000000,28.238234,74.310364,74.326462,1979.458008,56.127563,-0.250658,-0.307659,0.152149,0.000954,0.000144,0.000335,0,1,0,64.318161,1,0.380000,0,15,0,202
678, 101,21606,21606,679,0,0,5.223335,0.152506,74.142105,-0.116633,-2.154705,64.493698,-25.416544,-30.605087,14.834844,5.222389,0.153177,74.142609,-0.973859,-0.315160,-0.100276,94.669987,177.405353,-49.966683,-0.324398,0.271070,-0.621172,-0.659873,-0.324398,0.271070,-0.621172,-0.659873,2035.585571,80205.453125,-inf,81.228264,56.127563,56.127563,56.478928,23.000000,28.238234,74.326027,74.326462,1979.458008,56.127563,-0.254165,-0.306051,0.148348,0.000953,0.000145,0.000335,0,1,0,64.493004,1,0.390000,0,15,0,202
679, 101,21680,21679,753,0,0,5.222397,0.153172,74.142601,-0.151419,-2.212115,64.492378,-26.059631,-30.882782,14.630225,5.222389,0.153177,74.142609,-0.973639,-0.315225,-0.100101,94.713680,177.432660,-49.973687,-0.324397,0.271145,-0.620833,-0.660162,-0.324397,0.271145,-0.620833,-0.660162,2035.585571,80205.453125,-inf,84.454132,56.127563,56.127563,59.588886,23.000000,28.238234,74.326462,74.326462,1979.458008,56.127563,-0.260596,-0.308828,0.146302,0.000953,0.000146,0.000335,0,1,0,64.492798,1,0.390000,0,15,0,202
680, 101,21736,21732,809,0,0,7.276368,1.066057,73.471916,-2.220271,-1.201754,63.994873,-25.767321,-30.736628,15.097925,7.333364,1.091388,73.453308,-0.513949,0.014382,0.098909,94.728829,177.448711,-49.971696,-0.324336,0.271186,-0.620709,-0.660292,-0.324336,0.271186,-0.620709,-0.660292,2050.695557,80205.453125,-inf,86.942566,71.237549,71.237549,65.238510,23.000000,28.238234,73.839050,73.826538,1979.458008,71.237549,-0.257673,-0.307366,0.150979,0.000953,0.000147,0.000335,0,1,0,64.031120,1,0.390000,0,15,0,202
681, 101,21808,21803,881,0,0,7.467971,-0.338684,73.001678,-1.314081,-0.127873,63.570568,-25.182693,-30.955860,14.878691,7.472181,-0.378157,72.988991,-0.433405,0.096528,-0.077002,94.740605,177.467876,-49.972734,-0.324269,0.271270,-0.620589,-0.660403,-0.324269,0.271270,-0.620589,-0.660403,2050.695557,80205.453125,-inf,90.052742,71.237549,71.237549,70.562904,23.000000,28.238234,73.383446,73.371445,1979.458008,71.237549,-0.251827,-0.309559,0.148787,0.000953,0.000148,0.000335,0,1,0,63.600689,1,0.390000,0,15,0,202
682, 101,21866,21857,939,0,0,6.004748,-0.054710,73.112801,-0.725674,-1.193320,63.801792,-25.460392,-31.233559,14.966384,5.878180,-0.023934,73.012924,-0.262593,-0.085493,-0.144317,94.750249,177.479911,-49.978991,-0.324264,0.271348,-0.620487,-0.660469,-0.324264,0.271348,-0.620487,-0.660469,2067.234863,80205.453125,-inf,92.606255,87.776855,87.776855,76.539177,23.000000,28.238234,73.358994,73.249168,1979.458008,87.776855,-0.254604,-0.312336,0.149664,0.000953,0.000149,0.000335,0,1,0,64.661041,1,0.390000,0,15,0,202
683, 101,21936,21930,1009,0,0,5.703001,0.537157,73.268265,-0.858233,-2.078666,63.656429,-25.591930,-30.678165,15.302544,5.681921,0.593562,73.290558,-0.118100,-0.074683,-0.053087,94.758575,177.484064,-49.983857,-0.324290,0.271375,-0.620417,-0.660511,-0.324290,0.271375,-0.620417,-0.660511,2067.234863,80205.453125,-inf,95.514633,87.776855,87.776855,83.585358,23.000000,28.238234,73.491852,73.512871,1979.458008,87.776855,-0.255919,-0.306782,0.153025,0.000953,0.000150,0.000335,0,1,0,63.607105,1,0.390000,0,15,0,202
684, 101,21993,21984,1066,0,0,6.399354,0.541872,73.220512,-1.283751,-1.587196,63.672382,-25.606548,-30.824322,15.010230,6.419087,0.540907,73.218758,0.036977,0.016777,0.031936,94.760528,177.484501,-49.984349,-0.324295,0.271375,-0.620403,-0.660521,-0.324295,0.271375,-0.620403,-0.660521,2067.234863,80205.453125,-inf,97.948730,87.776855,87.776855,87.654320,23.000000,28.238234,73.501625,73.501587,1979.458008,87.776855,-0.256065,-0.308243,0.150102,0.000953,0.000151,0.000335,0,1,0,63.671684,1,0.390000,0,15,0,202
685, 101,22064,22056,1137,0,0,6.665002,-0.837232,73.087891,-0.430663,-0.444867,63.592319,-25.153463,-30.780474,15.638701,6.687147,-1.297220,73.056007,0.126113,0.011673,0.030055,94.756683,177.482520,-49.982945,-0.324288,0.271366,-0.620434,-0.660499,-0.324288,0.271366,-0.620434,-0.660499,2085.678711,80205.453125,-inf,100.885796,106.220703,106.220703,94.530373,23.000000,28.238234,73.395935,73.372887,1979.458008,106.220703,-0.251535,-0.307805,0.156387,0.000953,0.000152,0.000335,0,1,0,63.640625,1,0.390000,0,15,0,202
686, 101,22119,22110,1192,0,0,6.721816,-0.579114,72.433357,-0.555908,-0.428233,63.086864,-24.437300,-31.452793,16.150248,6.725442,-0.512187,72.371490,0.177302,-0.126869,0.026775,94.754101,177.477507,-49.981641,-0.324301,0.271337,-0.620465,-0.660476,-0.324301,0.271337,-0.620465,-0.660476,2085.678711,80205.453125,-inf,103.330528,106.220703,106.220703,100.684647,23.000000,28.238234,72.746880,72.685120,1979.458008,106.220703,-0.244373,-0.314528,0.161502,0.000953,0.000153,0.000335,0,1,0,63.573738,1,0.390000,0,15,0,202
687, 101,22395,22384,1468,0,0,6.161691,0.403652,70.958488,-1.037378,-1.346129,61.414536,-22.405729,-31.759718,16.062555,6.160600,0.411664,70.954605,0.851958,0.090982,-0.000250,94.683470,177.401883,-49.980404,-0.324527,0.271086,-0.621071,-0.659898,-0.324527,0.271086,-0.621071,-0.659898,2115.767578,80205.453125,-inf,115.565094,136.309570,136.309570,129.117538,23.000000,28.238234,71.226654,71.222740,1979.458008,136.309570,-0.224057,-0.317597,0.160626,0.000953,0.000158,0.000335,0,1,0,61.450069,1,0.390000,0,15,0,202
688, 101,22452,22452,1525,0,0,6.635500,0.267196,70.497574,-1.236772,-0.833270,60.992962,-22.215727,-31.496637,16.384098,6.682360,0.253700,70.451988,1.044136,0.196839,-0.004356,94.650856,177.373770,-49.979038,-0.324591,0.271006,-0.621334,-0.659651,-0.324591,0.271006,-0.621334,-0.659651,2115.767578,80205.453125,-inf,118.266968,136.309570,136.309570,135.217361,23.000000,28.238234,70.809669,70.768646,1979.458008,136.309570,-0.222157,-0.314966,0.163841,0.000953,0.000159,0.000335,0,1,0,61.098152,1,0.390000,0,15,0,202
689, 101,22508,22494,1581,0,0,6.018550,-0.034101,70.465485,-0.572278,-1.059364,60.910801,-22.464191,-31.335867,17.144110,5.748936,0.028721,70.480713,1.361769,0.160972,-0.051106,94.612914,177.341955,-49.978577,-0.324667,0.270924,-0.621636,-0.659363,-0.324667,0.270924,-0.621636,-0.659363,2126.491699,80205.453125,-inf,120.835655,147.033691,147.033691,140.546722,23.000000,28.238234,70.722054,70.714790,1979.458008,147.033691,-0.224642,-0.313359,0.171441,0.000953,0.000159,0.000335,0,1,0,60.935505,1,0.390000,0,15,0,202
690, 101,22563,22554,1636,0,0,5.759798,-0.020493,70.204582,-0.386778,-1.201019,60.628162,-22.347267,-31.145864,16.749487,5.729789,-0.033508,70.088203,1.514090,0.155489,-0.042787,94.577882,177.307886,-49.978642,-0.324766,0.270824,-0.621925,-0.659083,-0.324766,0.270824,-0.621925,-0.659083,2126.491699,80205.453125,-inf,122.858887,147.033691,147.033691,145.168396,23.000000,28.238234,70.440468,70.322029,1979.458008,147.033691,-0.223473,-0.311459,0.167495,0.000954,0.000160,0.000335,0,1,0,60.904274,1,0.390000,0,15,0,202
691, 101,22620,22609,1693,0,0,6.575092,-0.773919,69.427025,-0.318259,-0.249966,60.074390,-22.698042,-31.277403,16.647179,6.658427,-0.847262,69.360603,1.757307,0.248170,0.076694,94.533465,177.265716,-49.977034,-0.324875,0.270694,-0.622294,-0.658735,-0.324875,0.270694,-0.622294,-0.658735,2137.562744,80205.453125,-inf,125.199928,158.104736,158.104736,150.557312,23.000000,28.238234,69.741974,69.684616,1979.458008,158.104736,-0.226980,-0.312774,0.166472,0.000954,0.000161,0.000335,0,1,0,60.522114,1,0.390000,0,15,0,202
692, 101,22690,22680,1763,0,0,7.142136,-0.623106,68.774284,-0.730778,0.458971,59.376335,-22.844198,-31.087402,16.501022,7.156252,-0.617496,68.757462,1.807837,0.188882,0.004387,94.473196,177.209941,-49.971955,-0.324999,0.270510,-0.622796,-0.658275,-0.324999,0.270510,-0.622796,-0.658275,2148.910889,80205.453125,-inf,128.007126,169.452881,169.452881,159.678009,23.000000,28.238234,69.146950,69.131630,1979.458008,169.452881,-0.228442,-0.310874,0.165010,0.000953,0.000162,0.000335,0,1,0,59.510242,1,0.390000,0,15,0,202
693, 101,22748,22736,1821,0,0,5.511757,0.076327,68.897652,-0.218682,-1.050784,59.308979,-22.493423,-31.218943,16.398714,5.466516,0.095736,68.901070,1.914006,0.153431,-0.086917,94.422393,177.159780,-49.970924,-0.325139,0.270354,-0.623219,-0.657869,-0.325139,0.270354,-0.623219,-0.657869,2148.910889,80205.453125,-inf,130.312195,169.452881,169.452881,166.211166,23.000000,28.238234,69.117805,69.117645,1979.458008,169.452881,-0.230196,-0.311020,0.166472,0.000953,0.000163,0.000335,0,1,0,59.316769,1,0.390000,0,15,0,202
694, 101,22823,22823,1896,0,0,5.440320,0.362607,67.492134,-0.333171,-1.192023,57.899700,-22.434959,-31.686644,15.945630,5.490449,0.325502,67.249634,2.121843,0.277751,0.040002,94.337999,177.079348,-49.967058,-0.325345,0.270101,-0.623919,-0.657207,-0.325345,0.270101,-0.623919,-0.657207,2160.479004,80205.453125,-inf,133.717621,181.020996,181.020996,176.934708,23.000000,28.238234,67.712013,67.474174,1979.458008,181.020996,-0.224642,-0.317013,0.159749,0.000953,0.000164,0.000335,0,1,0,58.453152,1,0.390000,0,15,0,202
695, 101,22879,22876,1952,0,0,6.416919,-0.710220,67.295380,-0.085105,0.328655,57.802505,-23.019585,-31.248173,16.311020,6.510036,-0.813755,67.292709,2.195470,0.273337,0.012605,94.277286,177.023668,-49.962779,-0.325473,0.269924,-0.624420,-0.656741,-0.325473,0.269924,-0.624420,-0.656741,2172.410156,80205.453125,-inf,135.952194,192.952148,192.952148,184.266891,23.000000,28.238234,67.604362,67.611771,1979.458008,192.952148,-0.230196,-0.312482,0.163110,0.000953,0.000165,0.000335,0,1,0,57.785519,1,0.390000,0,15,0,202
696, 101,22953,22949,2026,0,0,5.955034,-0.226065,66.663971,-0.102413,-0.194460,57.128441,-22.288803,-31.555101,16.939491,5.940408,-0.210619,66.646500,2.227240,0.222545,-0.034419,94.197161,176.947115,-49.959415,-0.325671,0.269684,-0.625082,-0.656110,-0.325671,0.269684,-0.625082,-0.656110,2172.410156,80205.453125,-inf,138.843521,192.952148,192.952148,192.443817,23.000000,28.238234,66.929802,66.911049,1979.458008,192.952148,-0.222888,-0.315551,0.169395,0.000953,0.000166,0.000335,0,1,0,57.177498,1,0.390000,0,15,0,202
697, 101,23008,23004,2081,0,0,5.709500,-0.182688,64.745674,-0.005392,-0.191264,55.195904,-22.654196,-30.809704,16.252558,5.940408,-0.196258,64.262665,2.446502,0.273442,0.027056,94.128367,176.880931,-49.955874,-0.325841,0.269473,-0.625653,-0.655568,-0.325841,0.269473,-0.625653,-0.655568,2184.618408,80205.453125,-inf,141.170731,205.160400,205.160400,200.261078,23.000000,28.238234,64.997185,64.536942,1979.458008,205.160400,-0.226542,-0.308097,0.162526,0.000954,0.000167,0.000335,0,1,0,56.276680,1,0.390000,0,15,0,202
698, 101,23081,23076,2154,0,0,5.916757,-0.204860,63.761288,-0.080572,0.151920,54.234322,-22.595732,-31.189711,16.398714,5.916473,-0.205832,63.707401,2.515359,0.285516,0.025638,94.038147,176.795594,-49.949214,-0.326044,0.269193,-0.626402,-0.654867,-0.326044,0.269193,-0.626402,-0.654867,2197.014404,80205.453125,-inf,143.953812,217.556396,217.556396,209.633347,23.000000,28.238234,64.035553,63.981873,1979.458008,217.556396,-0.225957,-0.311605,0.164572,0.000954,0.000168,0.000335,0,1,0,54.373257,1,0.390000,0,15,0,202
699, 101,23137,23131,2210,0,0,5.241132,-0.364181,63.284004,0.491386,-0.119251,53.730629,-22.566500,-31.043552,16.793337,5.222389,-0.368583,63.271805,2.595497,0.301680,-0.014338,93.963964,176.725544,-49.944737,-0.326217,0.268970,-0.627014,-0.654286,-0.326217,0.268970,-0.627014,-0.654286,2197.014404,80205.453125,-inf,146.127716,217.556396,217.556396,216.326111,23.000000,28.238234,63.501709,63.488033,1979.458008,217.556396,-0.225665,-0.310436,0.167933,0.000954,0.000168,0.000335,0,1,0,53.849899,1,0.390000,0,15,0,202
700, 101,23412,23411,2485,0,0,4.662318,-0.595974,59.866840,1.286472,0.234357,50.235832,-22.434959,-31.189711,17.319498,4.657548,-0.593562,59.863609,2.897885,0.290930,0.018025,93.549556,176.334461,-49.915859,-0.327164,0.267706,-0.630429,-0.651042,-0.327164,0.267706,-0.630429,-0.651042,2222.605225,80205.453125,-inf,156.645981,243.147217,243.147217,250.142807,23.000000,28.238234,60.051067,60.047455,1979.458008,243.147217,-0.224350,-0.311897,0.173195,0.000953,0.000173,0.000335,0,1,0,50.245949,1,0.390000,0,15,0,202
701, 101,23468,23462,2541,0,0,4.541371,-0.717087,56.488350,1.317628,0.512555,46.856506,-22.771120,-31.365097,16.588717,4.442142,-0.890343,55.785263,3.074358,0.371255,0.043110,93.465121,176.255982,-49.908909,-0.327346,0.267450,-0.631122,-0.650385,-0.327346,0.267450,-0.631122,-0.650385,2249.024902,80205.453125,-inf,158.567245,269.566895,269.566895,257.611023,23.000000,28.238234,56.675144,55.968929,1979.458008,269.566895,-0.227711,-0.313651,0.165887,0.000954,0.000174,0.000335,0,1,0,48.571930,1,0.390000,0,15,0,202
702, 101,23526,23518,2599,0,0,4.592254,-0.376351,55.184361,1.024364,0.500771,45.563644,-22.405729,-31.657410,16.705641,4.652761,-0.162751,54.899712,3.128070,0.346308,0.042407,93.370756,176.167586,-49.900840,-0.327551,0.267159,-0.631897,-0.649648,-0.327551,0.267159,-0.631897,-0.649648,2249.024902,80205.453125,-inf,160.570267,269.566895,269.566895,266.019043,23.000000,28.238234,55.376385,55.096760,1979.458008,269.566895,-0.224057,-0.316574,0.167056,0.000954,0.000175,0.000335,0,1,0,46.212555,1,0.390000,0,15,0,202
703, 101,23582,23578,2655,0,0,4.276513,0.197384,53.949078,0.788634,0.050263,44.311901,-22.522654,-30.897400,17.056416,4.241097,0.239340,53.846611,3.222436,0.415431,0.042534,93.277257,176.080351,-49.892841,-0.327754,0.266873,-0.632662,-0.648918,-0.327754,0.266873,-0.632662,-0.648918,2262.637207,80205.453125,-inf,162.440781,283.179199,283.179199,274.666656,23.000000,28.238234,54.118668,54.013905,1979.458008,283.179199,-0.225227,-0.308974,0.170564,0.000954,0.000176,0.000335,0,1,0,44.582844,1,0.390000,0,15,0,202
704, 101,23639,23632,2712,0,0,3.957273,-1.218813,51.234554,1.893694,0.905932,41.727764,-22.230343,-31.745104,16.398714,3.949103,-1.258926,51.161221,3.251613,0.410021,0.009990,93.183274,175.994208,-49.885267,-0.327952,0.266598,-0.633426,-0.648186,-0.327952,0.266598,-0.633426,-0.648186,2262.637207,80205.453125,-inf,164.194000,283.179199,283.179199,282.018372,23.000000,28.238234,51.401608,51.328850,1979.458008,283.179199,-0.222303,-0.317451,0.163987,0.000954,0.000176,0.000335,0,1,0,42.370510,1,0.390000,0,15,0,202
705, 101,23711,23707,2784,0,0,3.989968,-0.133565,49.862507,1.116081,0.460987,40.206490,-22.054955,-30.853552,16.603333,4.068772,0.110096,49.418831,3.365028,0.345140,0.063552,93.068205,175.883969,-49.874830,-0.328215,0.266226,-0.634374,-0.647278,-0.328215,0.266226,-0.634374,-0.647278,2276.497314,80205.453125,-inf,166.242264,297.039307,297.039307,292.215424,23.000000,28.238234,50.022068,49.586166,1979.458008,297.039307,-0.224496,-0.310143,0.163403,0.000954,0.000177,0.000335,0,1,0,41.214157,1,0.390000,0,15,0,202
706, 101,23765,23763,2838,0,0,3.811987,-0.281819,48.834377,1.350383,0.561717,39.160904,-21.952646,-30.064308,17.231804,3.704977,-0.440385,48.566784,3.422858,0.422629,0.036281,92.967904,175.788838,-49.865299,-0.328436,0.265907,-0.635197,-0.646489,-0.328436,0.265907,-0.635197,-0.646489,2290.581299,80205.453125,-inf,167.911057,311.123291,311.123291,300.248352,23.000000,28.238234,48.983742,48.709888,1979.458008,311.123291,-0.219526,-0.300643,0.172318,0.000954,0.000178,0.000335,0,1,0,39.816776,1,0.390000,0,15,0,202
707, 101,23840,23836,2913,0,0,3.204906,-0.604628,47.122765,1.958658,0.503261,37.391186,-21.894182,-29.611223,17.202572,3.154495,-0.622283,46.977566,3.461244,0.406755,0.076532,92.838506,175.669447,-49.853230,-0.328707,0.265515,-0.636248,-0.645478,-0.328707,0.265515,-0.636248,-0.645478,2290.581299,80205.453125,-inf,169.935760,311.123291,311.123291,310.498260,23.000000,28.238234,47.235493,47.087471,1979.458008,311.123291,-0.218942,-0.296112,0.172026,0.000954,0.000179,0.000335,0,1,0,37.778896,1,0.390000,0,15,0,202
708, 101,23895,23892,2968,0,0,3.616954,-0.183997,45.248878,1.308052,0.721060,35.568001,-21.879568,-29.187372,16.691027,3.628388,-0.172324,45.196880,3.549675,0.455768,0.096417,92.732297,175.572021,-49.841345,-0.328916,0.265186,-0.637113,-0.644653,-0.328916,0.265186,-0.637113,-0.644653,2304.888916,80205.453125,-inf,171.496338,325.430908,325.430908,319.924591,23.000000,28.238234,45.393581,45.342617,1979.458008,325.430908,-0.218796,-0.291874,0.166910,0.000954,0.000180,0.000335,0,1,0,35.700840,1,0.390000,0,15,0,202
709, 101,23968,23965,3041,0,0,3.024624,0.180415,43.142517,1.340217,0.234147,33.426384,-21.543409,-28.383514,17.538731,2.661456,0.761100,42.741257,3.614885,0.416429,0.098163,92.599873,175.449719,-49.827050,-0.329184,0.264775,-0.638189,-0.643620,-0.329184,0.264775,-0.638189,-0.643620,2319.751953,80205.453125,-inf,173.301559,340.293945,340.293945,329.895294,23.000000,28.238234,43.248791,42.830803,1979.458008,340.293945,-0.215434,-0.283835,0.175387,0.000954,0.000181,0.000335,0,1,0,34.400604,1,0.390000,0,15,0,202
710, 101,24023,24021,3096,0,0,3.455338,-1.863811,41.061974,2.526399,2.058970,31.319271,-21.748028,-28.208128,16.720257,3.523078,-2.106188,40.883984,3.751200,0.590122,0.035432,92.488459,175.349165,-49.815063,-0.329399,0.264444,-0.639087,-0.642755,-0.329399,0.264444,-0.639087,-0.642755,2319.751953,80205.453125,-inf,174.690170,340.293945,340.293945,338.232574,23.000000,28.238234,41.249226,41.089516,1979.458008,340.293945,-0.217480,-0.282081,0.167203,0.000954,0.000182,0.000335,0,1,0,31.785898,1,0.390000,0,15,0,202
711, 101,24098,24094,3171,0,0,2.530472,-0.432165,40.321865,2.060622,0.555341,30.546097,-21.572639,-28.383514,17.377958,2.503492,-0.387730,40.304783,3.629742,0.275532,0.023123,92.353576,175.221154,-49.802690,-0.329705,0.264018,-0.640182,-0.641683,-0.329705,0.264018,-0.640182,-0.641683,2334.470947,80205.453125,-inf,176.317368,355.012939,355.012939,349.587372,23.000000,28.238234,40.403500,40.384319,1979.458008,355.012939,-0.215726,-0.283835,0.173780,0.000954,0.000183,0.000335,0,1,0,30.593893,1,0.390000,0,15,0,202
712, 101,24153,24150,3226,0,0,2.811618,-1.716331,38.521404,2.775629,1.752289,28.721395,-21.528793,-28.763521,18.313358,2.819420,-1.751966,38.471443,3.795208,0.579726,-0.017487,92.237989,175.118441,-49.793421,-0.329938,0.263702,-0.641098,-0.640777,-0.329938,0.263702,-0.641098,-0.640777,2334.470947,80205.453125,-inf,177.542389,355.012939,355.012939,356.767426,23.000000,28.238234,38.661991,38.614380,1979.458008,355.012939,-0.215288,-0.287635,0.183134,0.000954,0.000184,0.000335,0,1,0,28.855532,1,0.390000,0,15,0,202
713, 101,24431,24420,3504,0,0,0.739290,-2.004901,30.553263,3.758141,0.898593,20.672182,-21.119556,-28.719673,18.386436,0.713232,-2.077467,30.511007,3.897914,0.570651,0.032564,91.689948,174.611505,-49.735952,-0.331087,0.262019,-0.645496,-0.636445,-0.331087,0.262019,-0.645496,-0.636445,2381.374268,80205.453125,-inf,182.768478,401.916260,401.916260,403.115570,23.000000,28.238234,30.627895,30.589968,1979.458008,401.916260,-0.211196,-0.287197,0.183864,0.000953,0.000188,0.000335,0,1,0,21.087805,1,0.390000,0,15,0,202
714, 101,24489,24489,3562,0,0,2.762888,-0.825126,31.538465,1.874518,1.781137,21.763268,-21.265713,-28.529671,17.831043,2.963024,-0.708445,31.635902,3.869215,0.413079,0.037853,91.562777,174.494463,-49.722305,-0.331351,0.261632,-0.646510,-0.635437,-0.331351,0.261632,-0.646510,-0.635437,2397.985107,80205.453125,-inf,183.712723,418.527100,418.527100,412.447174,23.000000,28.238234,31.670004,31.782255,1979.458008,418.527100,-0.212657,-0.285297,0.178310,0.000954,0.000189,0.000335,0,1,0,21.455671,1,0.390000,0,15,0,202
715, 101,24543,24528,3616,0,0,0.662019,-0.493796,28.623291,2.749639,0.105619,18.701689,-20.900322,-28.529671,17.626425,0.440385,-0.469106,28.328230,4.039489,0.509395,-0.024648,91.444888,174.384551,-49.710622,-0.331610,0.261271,-0.647449,-0.634494,-0.331610,0.261271,-0.647449,-0.634494,2397.985107,80205.453125,-inf,184.590347,418.527100,418.527100,420.055084,23.000000,28.238234,28.635202,28.335537,1979.458008,418.527100,-0.209003,-0.285297,0.176264,0.000954,0.000190,0.000335,0,1,0,19.505894,1,0.380000,0,15,0,202
716, 101,24606,24605,3679,0,0,0.414269,-0.724563,26.147985,2.893323,0.184779,16.199160,-21.455713,-28.266588,17.538731,0.062228,-0.579202,25.752935,4.034493,0.493361,0.013357,91.322061,174.271061,-49.695128,-0.331856,0.260882,-0.648430,-0.633522,-0.331856,0.260882,-0.648430,-0.633522,2432.535156,80205.453125,-inf,185.463531,453.077148,453.077148,431.983459,23.000000,28.238234,26.161303,25.759523,1979.458008,453.077148,-0.214557,-0.282666,0.175387,0.000954,0.000190,0.000335,0,1,0,17.178064,1,0.380000,0,15,0,202
717, 101,24660,24659,3733,0,0,0.664817,-0.891396,25.200676,2.810539,0.556539,15.260959,-21.075708,-28.690443,17.626425,0.909490,-1.019586,24.948755,4.043217,0.503797,0.057857,91.205435,174.164319,-49.683547,-0.332103,0.260537,-0.649351,-0.632591,-0.332103,0.260537,-0.649351,-0.632591,2432.535156,80205.453125,-inf,186.201447,453.077148,453.077148,443.258423,23.000000,28.238234,25.225199,24.986139,1979.458008,453.077148,-0.210757,-0.286904,0.176264,0.000954,0.000191,0.000335,0,1,0,15.822676,1,0.390000,0,15,0,202
718, 101,24737,24735,3810,0,0,1.334394,-0.783325,23.369576,2.169644,1.098146,13.493162,-21.631102,-28.178894,17.538731,1.378596,-0.761100,23.211151,4.006291,0.456960,0.057917,91.048402,174.019628,-49.663368,-0.332417,0.260042,-0.650599,-0.631346,-0.332417,0.260042,-0.650599,-0.631346,2432.535156,80205.453125,-inf,187.032623,453.077148,453.077148,454.090851,23.000000,28.238234,23.420746,23.264507,1979.458008,453.077148,-0.216311,-0.281789,0.175387,0.000954,0.000192,0.000335,0,1,0,13.889562,1,0.390000,0,15,0,202
719, 101,24793,24790,3866,0,0,0.068631,-0.771015,22.800905,2.959652,0.186002,12.819485,-21.280327,-28.398129,17.904121,0.033508,-0.770673,22.785126,4.091447,0.533327,-0.027950,90.925855,173.908501,-49.651104,-0.332672,0.259686,-0.651559,-0.630367,-0.332672,0.259686,-0.651559,-0.630367,2469.112793,80205.453125,-inf,187.768204,489.654785,489.654785,469.391113,23.000000,28.238234,22.814041,22.798180,1979.458008,489.654785,-0.211049,-0.280912,0.177287,0.000954,0.000193,0.000335,0,1,0,12.869577,1,0.390000,0,15,0,202
720, 101,24868,24866,3941,0,0,0.219534,-0.486961,20.533360,2.458367,0.209479,10.590585,-21.251097,-28.412745,17.757965,0.201045,-0.397304,19.903477,4.048423,0.452678,0.001945,90.767695,173.762594,-49.629828,-0.332987,0.259182,-0.652813,-0.629110,-0.332987,0.259182,-0.652813,-0.629110,2488.327148,80205.453125,-inf,188.580505,508.869141,508.869141,485.562927,23.000000,28.238234,20.540306,19.908457,1979.458008,508.869141,-0.212511,-0.284127,0.177580,0.000954,0.000194,0.000335,0,1,0,12.043357,1,0.390000,0,15,0,202
721, 101,24924,24921,3997,0,0,-0.778551,-0.717711,20.870089,3.352406,-0.361304,10.822110,-21.426483,-28.354280,17.757965,-0.875983,-0.746739,20.946999,4.031864,0.489245,0.065999,90.648037,173.651481,-49.616188,-0.333243,0.258811,-0.653756,-0.628148,-0.333243,0.258811,-0.653756,-0.628148,2488.327148,80205.453125,-inf,189.141602,508.869141,508.869141,497.718933,23.000000,28.238234,20.896935,20.978601,1979.458008,508.869141,-0.214265,-0.283543,0.177580,0.000954,0.000195,0.000335,0,1,0,10.652531,1,0.390000,0,15,0,202
722, 101,25000,24997,4073,0,0,1.043716,-0.988697,19.004179,2.224813,1.273977,9.084255,-21.631102,-28.471207,16.720257,1.096175,-0.995653,18.950907,3.987430,0.479886,0.117569,90.490595,173.507104,-49.593317,-0.333545,0.258306,-0.654999,-0.626898,-0.333545,0.258306,-0.654999,-0.626898,2508.008301,80205.453125,-inf,189.857895,528.550293,528.550293,514.263855,23.000000,28.238234,19.058479,19.008677,1979.458008,528.550293,-0.216311,-0.284712,0.167203,0.000954,0.000196,0.000335,0,1,0,9.215338,1,0.390000,0,15,0,202
723, 101,25056,25053,4129,0,0,-1.134431,-0.795726,17.099979,3.299371,-0.456875,7.028582,-21.938030,-28.441978,16.749487,-1.431251,-0.895130,16.748981,4.021351,0.416445,0.012426,90.371708,173.394953,-49.578557,-0.333805,0.257922,-0.655938,-0.625937,-0.333805,0.257922,-0.655938,-0.625937,2527.976562,80205.453125,-inf,190.321121,548.518555,548.518555,526.053467,23.000000,28.238234,17.156033,16.833838,1979.458008,548.518555,-0.219380,-0.284420,0.167495,0.000954,0.000196,0.000335,0,1,0,7.927637,1,0.390000,0,15,0,202
724, 101,25133,25130,4206,0,0,0.104459,-0.820273,15.562642,2.383285,0.554629,5.590294,-21.426483,-28.251972,17.012569,0.253700,-0.813755,15.442187,4.047809,0.450834,0.147642,90.212128,173.244606,-49.556386,-0.334141,0.257394,-0.657198,-0.624650,-0.334141,0.257394,-0.657198,-0.624650,2548.320557,80205.453125,-inf,190.931992,568.862549,568.862549,545.148560,23.000000,28.238234,15.584595,15.465694,1979.458008,568.862549,-0.214265,-0.282520,0.170126,0.000954,0.000197,0.000335,0,1,0,5.869722,1,0.390000,0,15,0,202
725, 101,25188,25187,4261,0,0,1.204468,-0.758040,14.495299,1.530638,1.386165,4.616863,-22.244957,-28.135050,16.837183,1.234992,-0.756313,14.465681,4.130915,0.469950,0.039251,90.088105,173.129463,-49.539441,-0.334396,0.256996,-0.658171,-0.623653,-0.334396,0.256996,-0.658171,-0.623653,2548.320557,80205.453125,-inf,191.278137,568.862549,568.862549,557.578125,23.000000,28.238234,14.564994,14.537990,1979.458008,568.862549,-0.222450,-0.279597,0.173049,0.000954,0.000198,0.000335,0,1,0,4.688694,1,0.390000,0,15,0,202
726, 101,25434,25423,4507,0,0,-0.942733,-1.470216,9.168305,2.842719,0.331121,-0.832343,-21.309559,-27.857351,17.772581,-0.966932,-1.483905,9.128410,4.059137,0.451896,0.042476,89.552031,172.634069,-49.471467,-0.335525,0.255326,-0.662333,-0.619311,-0.335525,0.255326,-0.662333,-0.619311,2611.162598,80205.453125,-inf,192.246353,631.704590,631.704590,613.599731,23.000000,28.238234,9.333172,9.298645,1979.458008,631.704590,-0.213096,-0.278574,0.177726,0.000954,0.000202,0.000335,0,1,0,-0.461572,2,0.390000,0,15,0,202
727, 101,25493,25494,4566,0,0,-0.720819,-0.533070,8.796591,2.013254,-0.113235,-1.191834,-21.046478,-27.711195,17.860275,-0.698871,-0.440385,8.759828,4.034459,0.470270,0.062008,89.414717,172.507410,-49.451229,-0.335800,0.254885,-0.663399,-0.618203,-0.335800,0.254885,-0.663399,-0.618203,2611.162598,80205.453125,-inf,192.285919,631.704590,631.704590,625.497864,23.000000,28.238234,8.842157,8.798690,1979.458008,631.704590,-0.210465,-0.277112,0.178603,0.000954,0.000203,0.000335,0,1,0,-1.125717,2,0.390000,0,15,0,202
728, 101,25550,25536,4623,0,0,-0.655737,-1.204782,7.717194,2.359176,0.240175,-1.777673,-21.221865,-27.448114,17.816427,-0.627070,-1.263713,7.481754,4.053296,0.522938,0.060755,89.320945,172.425626,-49.436534,-0.335958,0.254605,-0.664116,-0.617461,-0.335958,0.254605,-0.664116,-0.617461,2633.210693,80205.453125,-inf,192.258362,653.752686,653.752686,631.528625,23.000000,28.238234,7.838149,7.613595,1979.458008,653.752686,-0.212219,-0.274481,0.178164,0.000954,0.000203,0.000335,0,1,0,-1.627094,2,0.380000,0,15,0,202
729, 101,25607,25597,4680,0,0,-0.629650,-1.258409,7.502944,2.356321,0.441763,-2.553461,-21.061092,-27.126572,17.567963,-0.627070,-1.263713,7.481754,4.032964,0.492174,0.052020,89.199252,172.315796,-49.418157,-0.336189,0.254227,-0.665052,-0.616484,-0.336189,0.254227,-0.665052,-0.616484,2633.210693,80205.453125,-inf,192.294189,653.752686,653.752686,643.664124,23.000000,28.238234,7.633755,7.613595,1979.458008,653.752686,-0.209296,-0.271558,0.169687,0.000954,0.000204,0.000335,0,1,0,-2.495516,2,0.380000,0,15,0,202
730, 101,25664,25656,4737,0,0,-0.789535,-1.347305,5.629328,2.298089,0.334377,-4.179021,-21.572639,-27.945045,17.334112,-0.785034,-1.364236,5.519170,4.016761,0.507492,0.022682,89.075693,172.204027,-49.399736,-0.336426,0.253842,-0.666000,-0.615488,-0.336426,0.253842,-0.666000,-0.615488,2655.717773,80205.453125,-inf,192.328568,676.259766,676.259766,656.743225,23.000000,28.238234,5.841911,5.739221,1979.458008,676.259766,-0.215726,-0.279450,0.173341,0.000954,0.000205,0.000335,0,1,0,-3.292384,2,0.390000,0,15,0,202
731, 101,25737,25734,4810,0,0,-1.264313,-0.932536,4.838256,2.183830,-0.266688,-5.214433,-21.294943,-27.974277,17.874891,-1.311581,-0.890343,4.767644,3.982615,0.466634,0.073645,88.927656,172.070019,-49.377234,-0.336711,0.253379,-0.667133,-0.614295,-0.336711,0.253379,-0.667133,-0.614295,2678.511719,80205.453125,-inf,192.347183,699.053711,699.053711,674.800110,23.000000,28.238234,5.086928,5.024280,1979.458008,699.053711,-0.212949,-0.279743,0.178749,0.000954,0.000206,0.000335,0,1,0,-5.035655,2,0.390000,0,15,0,202
732, 101,25792,25792,4865,0,0,-0.844550,-1.161620,4.126809,1.995029,0.197165,-5.918455,-21.061092,-28.061972,17.334112,-0.832902,-1.167977,4.107067,4.013064,0.485414,0.082340,88.799938,171.954110,-49.356040,-0.336949,0.252968,-0.668114,-0.613267,-0.336949,0.252968,-0.668114,-0.613267,2678.511719,80205.453125,-inf,192.250320,699.053711,699.053711,687.693176,23.000000,28.238234,4.369574,4.350390,1979.458008,699.053711,-0.210611,-0.280620,0.173341,0.000954,0.000206,0.000335,0,1,0,-5.866447,2,0.390000,0,15,0,202
733, 101,25866,25853,4939,0,0,-0.937845,-1.148026,2.468494,2.005903,-0.440009,-6.831526,-21.441099,-27.886581,17.933352,-0.737166,-1.273286,2.149269,4.006506,0.491896,0.060173,88.667938,171.834637,-49.334617,-0.337197,0.252549,-0.669122,-0.612203,-0.337197,0.252549,-0.669122,-0.612203,2702.063232,80205.453125,-inf,192.188629,722.605225,722.605225,703.610291,23.000000,28.238234,2.879405,2.604617,1979.458008,722.605225,-0.214411,-0.278866,0.179334,0.000955,0.000207,0.000335,0,1,0,-6.764621,2,0.390000,0,15,0,202
734, 101,25924,25913,4997,0,0,-1.182538,-1.278616,1.630815,1.912567,0.035983,-8.288231,-20.768782,-28.748903,17.582577,-1.220632,-1.282860,1.570068,3.965737,0.511848,0.058721,88.551545,171.730053,-49.315677,-0.337413,0.252183,-0.670008,-0.611265,-0.337413,0.252183,-0.670008,-0.611265,2725.779297,80205.453125,-inf,192.076141,746.321289,746.321289,716.852356,23.000000,28.238234,2.385962,2.366597,1979.458008,746.321289,-0.207688,-0.287489,0.175826,0.000954,0.000208,0.000335,0,1,0,-7.785475,2,0.390000,0,15,0,202
735, 101,25996,25993,5069,0,0,-1.245739,-1.030099,1.048990,1.729513,-0.249967,-8.988811,-21.134171,-28.076586,17.304880,-1.249352,-1.005226,0.995653,3.947761,0.471912,0.033410,88.404129,171.597820,-49.291993,-0.337688,0.251724,-0.671126,-0.610075,-0.337688,0.251724,-0.671126,-0.610075,2725.779297,80205.453125,-inf,191.874146,746.321289,746.321289,734.074219,23.000000,28.238234,1.927005,1.887508,1979.458008,746.321289,-0.211342,-0.280766,0.173049,0.000954,0.000209,0.000335,0,1,0,-8.858912,2,0.390000,0,15,0,202
736, 101,26051,26051,5124,0,0,-1.933914,-0.367814,0.759558,1.636080,-1.209239,-9.241336,-21.499561,-27.769657,17.348728,-1.953011,-0.349436,0.751526,3.940083,0.505262,0.052748,88.275482,171.483073,-49.270912,-0.337923,0.251325,-0.672099,-0.609038,-0.337923,0.251325,-0.672099,-0.609038,2749.913574,80205.453125,-inf,191.704346,770.455566,770.455566,750.195251,23.000000,28.238234,2.110033,2.121591,1979.458008,770.455566,-0.214996,-0.277697,0.173487,0.000955,0.000210,0.000335,0,1,0,-9.223007,2,0.390000,0,15,0,202
737, 101,26124,26111,5197,0,0,-1.071685,-0.577184,-1.138599,1.135733,-0.371670,-10.852192,-21.499561,-28.325050,17.012569,-1.062668,-0.502613,-1.249352,3.926785,0.501362,0.016880,88.145353,171.368039,-49.249427,-0.338155,0.250927,-0.673078,-0.607990,-0.338155,0.250927,-0.673078,-0.607990,2774.317139,80205.453125,-inf,191.463669,794.859131,794.859131,764.544495,23.000000,28.238234,1.666751,1.715449,1979.458008,794.859131,-0.214996,-0.283251,0.170126,0.000955,0.000210,0.000335,0,1,0,-10.076244,2,0.390000,0,15,0,202
738, 101,26181,26172,5254,0,0,-2.474148,-0.602435,-1.348828,1.785283,-1.467740,-11.376620,-22.157265,-28.573517,16.968723,-2.513065,-0.603136,-1.354662,3.931225,0.533006,0.028981,88.029397,171.265791,-49.231030,-0.338366,0.250579,-0.673947,-0.607054,-0.338366,0.250579,-0.673947,-0.607054,2774.317139,80205.453125,-inf,191.233795,794.859131,794.859131,778.467834,23.000000,28.238234,2.881609,2.917941,1979.458008,794.859131,-0.221573,-0.285735,0.169687,0.000955,0.000211,0.000335,0,1,0,-11.301228,2,0.390000,0,15,0,202
739, 101,26457,26447,5530,0,0,-1.518155,-1.185216,-4.896544,1.051949,-0.593866,-14.774947,-21.587255,-28.558901,17.363344,-1.531773,-1.201484,-4.954329,3.777057,0.448059,0.011327,87.465934,170.763185,-49.132430,-0.339385,0.248805,-0.678171,-0.602493,-0.339385,0.248805,-0.678171,-0.602493,2848.993896,80205.453125,-inf,189.623825,869.535889,869.535889,850.722351,23.000000,28.238234,5.261718,5.323088,1979.458008,869.535889,-0.215873,-0.285589,0.173633,0.000954,0.000215,0.000335,0,1,0,-14.724069,2,0.390000,0,15,0,202
740, 101,26515,26510,5588,0,0,-1.791906,-1.146408,-5.120017,1.182037,-0.852020,-15.150449,-21.397253,-28.529671,17.319498,-1.905143,-1.124896,-5.198455,3.727010,0.465401,0.045219,87.355647,170.664393,-49.113793,-0.339592,0.248460,-0.678992,-0.601593,-0.339592,0.248460,-0.678992,-0.601593,2874.457764,80205.453125,-inf,189.201889,894.999756,894.999756,864.146606,23.000000,28.238234,5.544344,5.649681,1979.458008,894.999756,-0.213973,-0.285297,0.173195,0.000954,0.000216,0.000335,0,1,0,-14.957100,2,0.390000,0,15,0,202
741, 101,26571,26566,5644,0,0,-1.804914,-0.706632,-5.692249,0.759707,-1.183829,-15.647378,-21.294943,-27.915815,17.187958,-1.766326,-0.526547,-5.906900,3.678725,0.448590,0.044724,87.244431,170.565765,-49.093498,-0.339789,0.248110,-0.679819,-0.600692,-0.339789,0.248110,-0.679819,-0.600692,2874.457764,80205.453125,-inf,188.778915,894.999756,894.999756,878.261414,23.000000,28.238234,6.013214,6.187780,1979.458008,894.999756,-0.212949,-0.279158,0.171880,0.000954,0.000216,0.000335,0,1,0,-15.224750,2,0.390000,0,15,0,202
742, 101,26628,26628,5701,0,0,-1.784792,-1.846915,-6.432534,1.463397,-0.477611,-16.554106,-21.748028,-28.164280,17.158726,-1.785473,-1.972158,-6.490889,3.643202,0.491177,0.015726,87.127484,170.462793,-49.073130,-0.339998,0.247752,-0.680683,-0.599742,-0.339998,0.247752,-0.680683,-0.599742,2900.085938,80205.453125,-inf,188.331406,920.627930,920.627930,893.753967,23.000000,28.238234,6.926332,7.014910,1979.458008,920.627930,-0.217480,-0.281643,0.171587,0.000954,0.000217,0.000335,0,1,0,-16.353834,2,0.390000,0,15,0,202
743, 101,26683,26669,5756,0,0,-2.395292,-2.264983,-6.580789,2.132279,-0.691285,-16.811697,-21.791874,-28.091202,17.933352,-2.455624,-2.297660,-6.591412,3.612487,0.427609,0.022609,87.011371,170.360368,-49.053018,-0.340208,0.247396,-0.681539,-0.598797,-0.340208,0.247396,-0.681539,-0.598797,2900.085938,80205.453125,-inf,187.792953,920.627930,920.627930,907.123901,23.000000,28.238234,7.360323,7.399732,1979.458008,920.627930,-0.217919,-0.280912,0.179334,0.000955,0.000218,0.000335,0,1,0,-16.759418,2,0.390000,0,15,0,202
744, 101,26755,26746,5828,0,0,-1.466595,-0.270744,-7.289757,-0.085260,-1.328454,-17.121704,-22.011106,-28.661209,17.114880,-1.440824,-0.215406,-7.309430,3.587426,0.338759,0.126564,86.893694,170.250388,-49.028184,-0.340433,0.246975,-0.682427,-0.597831,-0.340433,0.246975,-0.682427,-0.597831,2925.722168,80205.453125,-inf,187.294434,946.264160,946.264160,924.080200,23.000000,28.238234,7.440750,7.453197,1979.458008,946.264160,-0.217042,-0.279597,0.169249,0.000955,0.000219,0.000335,0,1,0,-17.100231,2,0.390000,0,15,0,202
745, 101,26812,26805,5885,0,0,-3.220704,-1.525671,-8.082051,1.833005,-1.906480,-18.228668,-21.587255,-27.988894,17.655655,-3.269379,-1.560494,-8.104037,3.555655,0.381448,0.018465,86.780716,170.146583,-49.007526,-0.340656,0.246600,-0.683267,-0.596899,-0.340656,0.246600,-0.683267,-0.596899,2925.722168,80205.453125,-inf,186.683273,946.264160,946.264160,936.273682,23.000000,28.238234,8.832902,8.876903,1979.458008,946.264160,-0.215873,-0.279889,0.176557,0.000955,0.000219,0.000335,0,1,0,-18.148363,2,0.390000,0,15,0,202
746, 101,26885,26883,5958,0,0,-2.547024,-0.502667,-9.085872,0.445186,-2.134185,-18.995571,-21.923414,-28.544287,17.787197,-2.556146,-0.502613,-9.133198,3.496811,0.420100,0.009940,86.640915,170.019541,-48.980209,-0.340917,0.246133,-0.684304,-0.595753,-0.340917,0.246133,-0.684304,-0.595753,2951.645996,80205.453125,-inf,185.990692,972.187988,972.187988,955.895752,23.000000,28.238234,9.449501,9.497463,1979.458008,972.187988,-0.220257,-0.285443,0.177872,0.000955,0.000220,0.000335,0,1,0,-18.874674,2,0.390000,0,15,0,202
747, 101,26940,26925,6013,0,0,-3.170696,-0.679601,-9.579043,0.877889,-2.539929,-19.550426,-21.631102,-28.018124,17.377958,-3.188003,-0.684511,-9.592729,3.424680,0.392977,0.065586,86.530212,169.920080,-48.958465,-0.341118,0.245770,-0.685121,-0.594848,-0.341118,0.245770,-0.685121,-0.594848,2977.590332,80205.453125,-inf,185.460785,998.132324,998.132324,973.276001,23.000000,28.238234,10.113024,10.131750,1979.458008,998.132324,-0.216311,-0.280181,0.173780,0.000955,0.000221,0.000335,0,1,0,-19.510872,2,0.390000,0,15,0,202
748, 101,27011,27003,6084,0,0,-2.451643,-0.703009,-9.960306,0.345867,-2.020712,-19.876196,-21.528793,-28.105816,18.298744,-2.431690,-0.703658,-9.970886,3.403039,0.405201,0.083673,86.414160,169.816521,-48.934392,-0.341318,0.245387,-0.685977,-0.593904,-0.341318,0.245387,-0.685977,-0.593904,2977.590332,80205.453125,-inf,184.728302,998.132324,998.132324,986.528381,23.000000,28.238234,10.281657,10.287216,1979.458008,998.132324,-0.215288,-0.281058,0.182987,0.000955,0.000222,0.000335,0,1,0,-19.853474,2,0.390000,0,15,0,202
749, 101,27068,27063,6141,0,0,-2.674220,-0.731821,-10.523106,0.393609,-2.225698,-20.445910,-21.938030,-28.164280,17.056416,-2.594441,-0.708445,-10.664970,3.363083,0.412798,0.055680,86.302678,169.717415,-48.912610,-0.341517,0.245029,-0.686794,-0.592993,-0.341517,0.245029,-0.686794,-0.592993,3003.383789,80205.453125,-inf,184.117401,1023.925781,1023.925781,1002.715515,23.000000,28.238234,10.882222,10.998846,1979.458008,1023.925781,-0.219380,-0.281643,0.170564,0.000955,0.000222,0.000335,0,1,0,-20.141933,2,0.390000,0,15,0,202
750, 101,27143,27141,6216,0,0,-3.113449,-0.743482,-11.352065,0.514768,-2.630462,-21.287140,-21.894182,-27.857351,17.801813,-3.164069,-0.746739,-11.421283,3.312403,0.381883,0.034345,86.167160,169.597231,-48.885590,-0.341755,0.244592,-0.687785,-0.591887,-0.341755,0.244592,-0.687785,-0.591887,3029.135986,80205.453125,-inf,183.316559,1049.677979,1049.677979,1022.071716,23.000000,28.238234,11.794733,11.874959,1979.458008,1049.677979,-0.218942,-0.278574,0.178018,0.000955,0.000223,0.000335,0,1,0,-21.102346,2,0.390000,0,15,0,202
751, 101,27197,27184,6270,0,0,-2.626917,-0.851195,-11.950843,0.152011,-2.252327,-21.857193,-21.806488,-27.769657,17.567963,-2.575294,-0.861622,-12.005271,3.266109,0.405613,0.072237,86.059523,169.501676,-48.863826,-0.341944,0.244243,-0.688571,-0.591007,-0.341944,0.244243,-0.688571,-0.591007,3054.886719,80205.453125,-inf,182.721695,1075.428711,1075.428711,1040.293823,23.000000,28.238234,12.265719,12.308577,1979.458008,1075.428711,-0.218065,-0.277697,0.175680,0.000955,0.000224,0.000335,0,1,0,-21.724335,2,0.390000,0,15,0,202
752, 101,27474,27462,6547,0,0,-2.263929,-0.951877,-14.155124,-0.532171,-2.244150,-23.882442,-21.148787,-27.959660,16.997953,-2.249792,-0.986079,-14.197621,3.156439,0.400089,0.035326,85.581123,169.080267,-48.766478,-0.342773,0.242712,-0.692038,-0.587095,-0.342773,0.242712,-0.692038,-0.587095,3106.756836,80205.453125,-inf,179.367813,1127.298828,1127.298828,1111.953003,23.000000,28.238234,14.366592,14.408552,1979.458008,1127.298828,-0.211488,-0.279597,0.169980,0.000954,0.000227,0.000335,0,1,0,-23.515875,2,0.390000,0,15,0,202
753, 101,27531,27524,6604,0,0,-1.302801,-0.503843,-15.229180,-1.692718,-1.841663,-24.888149,-21.324175,-27.375036,17.611809,-0.895130,-0.301568,-15.676741,3.157411,0.373965,0.090776,85.480849,168.992568,-48.745134,-0.342940,0.242390,-0.692761,-0.586277,-0.342940,0.242390,-0.692761,-0.586277,3132.472656,80205.453125,-inf,178.523682,1153.014648,1153.014648,1124.565552,23.000000,28.238234,15.293105,15.705171,1979.458008,1153.014648,-0.213242,-0.273750,0.176118,0.000954,0.000228,0.000335,0,1,0,-24.021818,2,0.390000,0,15,0,202
754, 101,27587,27583,6660,0,0,-0.993257,-1.378600,-16.426954,-1.500937,-1.162150,-26.206137,-21.470331,-27.491961,17.041801,-0.990866,-1.479118,-16.514429,3.215655,0.490680,-0.034876,85.380192,168.906753,-48.724647,-0.343101,0.242085,-0.693480,-0.585459,-0.343101,0.242085,-0.693480,-0.585459,3132.472656,80205.453125,-inf,177.696518,1153.014648,1153.014648,1137.853149,23.000000,28.238234,16.514597,16.610117,1979.458008,1153.014648,-0.214703,-0.274920,0.170418,0.000955,0.000229,0.000335,0,1,0,-25.935223,2,0.390000,0,15,0,202
755, 101,27643,27625,6716,0,0,-3.970421,-3.323340,-16.137453,1.889667,-2.175110,-26.502026,-21.426483,-27.462730,18.167202,-4.265031,-3.508718,-16.102764,3.105345,0.489604,-0.118400,85.268334,168.815242,-48.706882,-0.343285,0.241798,-0.694259,-0.584546,-0.343285,0.241798,-0.694259,-0.584546,3158.190918,80205.453125,-inf,176.741776,1178.732910,1178.732910,1152.946167,23.000000,28.238234,16.947748,17.023531,1979.458008,1178.732910,-0.214265,-0.274627,0.181672,0.000955,0.000229,0.000335,0,1,0,-26.444626,2,0.390000,0,15,0,202
756, 101,27700,27687,6773,0,0,-2.902769,-2.113384,-16.725870,0.167728,-2.219928,-26.762455,-21.616486,-27.681965,16.501022,-2.632735,-1.871635,-16.969175,2.953222,0.355799,-0.002833,85.173804,168.731122,-48.685677,-0.343448,0.241480,-0.694941,-0.583770,-0.343448,0.241480,-0.694941,-0.583770,3184.034180,80205.453125,-inf,175.869888,1204.576172,1204.576172,1168.109253,23.000000,28.238234,17.106934,17.273888,1979.458008,1204.576172,-0.216165,-0.276820,0.165010,0.000955,0.000230,0.000335,0,1,0,-26.364408,2,0.390000,0,15,0,202
757, 101,27770,27767,6843,0,0,-3.223057,-1.921722,-16.895590,0.174598,-2.630040,-26.906393,-21.616486,-27.871967,17.246420,-3.465637,-1.933864,-16.873438,2.939380,0.366593,-0.058331,85.072451,168.643176,-48.668055,-0.343636,0.241184,-0.695656,-0.582930,-0.343636,0.241184,-0.695656,-0.582930,3184.034180,80205.453125,-inf,174.932358,1204.576172,1204.576172,1183.963623,23.000000,28.238234,17.307283,17.333879,1979.458008,1204.576172,-0.216165,-0.278720,0.172464,0.000955,0.000231,0.000335,0,1,0,-26.914326,2,0.390000,0,15,0,202
758, 101,27826,27827,6899,0,0,-3.026840,-1.504639,-17.162201,-0.337360,-2.800779,-27.063927,-21.806488,-28.091202,17.246420,-2.848140,-1.321154,-17.285103,2.870799,0.331203,0.072239,84.975695,168.558578,-48.649966,-0.343814,0.240890,-0.696341,-0.582128,-0.343814,0.240890,-0.696341,-0.582128,3210.346191,80205.453125,-inf,173.973190,1230.888184,1230.888184,1197.922607,23.000000,28.238234,17.491909,17.567928,1979.458008,1230.888184,-0.218065,-0.280912,0.172464,0.000955,0.000231,0.000335,0,1,0,-26.900379,2,0.390000,0,15,0,202
759, 101,27896,27890,6969,0,0,-2.404299,-1.326108,-17.225157,-0.911442,-2.478215,-27.042606,-22.171881,-27.711195,17.261034,-2.355101,-1.321154,-17.222876,2.840592,0.325304,0.041593,84.873570,168.467996,-48.626142,-0.343985,0.240543,-0.697075,-0.581291,-0.343985,0.240543,-0.697075,-0.581291,3210.346191,80205.453125,-inf,172.930206,1230.888184,1230.888184,1213.168335,23.000000,28.238234,17.442627,17.433285,1979.458008,1230.888184,-0.219234,-0.272873,0.166910,0.000955,0.000232,0.000335,0,1,0,-27.061174,2,0.390000,0,15,0,202
760, 101,27951,27952,7024,0,0,-3.464926,-0.818273,-16.920195,-0.562304,-3.611888,-26.700891,-21.733410,-27.491961,17.217188,-3.494357,-0.804181,-16.911732,2.831182,0.305954,-0.029437,84.776581,168.381252,-48.607540,-0.344173,0.240235,-0.697764,-0.580481,-0.344173,0.240235,-0.697764,-0.580481,3236.603027,80205.453125,-inf,172.045425,1257.145020,1257.145020,1230.875000,23.000000,28.238234,17.290699,17.287682,1979.458008,1257.145020,-0.217334,-0.274920,0.172172,0.000956,0.000233,0.000335,0,1,0,-26.727076,2,0.390000,0,15,0,202
761, 101,28024,28013,7097,0,0,-2.616436,-1.279497,-17.255581,-0.866027,-2.728773,-27.064884,-21.864952,-27.579657,17.144110,-2.321594,-1.546134,-17.318609,2.788918,0.349582,0.083725,84.678090,168.295875,-48.584857,-0.344330,0.239915,-0.698464,-0.579677,-0.344330,0.239915,-0.698464,-0.579677,3262.426758,80205.453125,-inf,171.089127,1282.968750,1282.968750,1246.543945,23.000000,28.238234,17.499655,17.541794,1979.458008,1282.968750,-0.218065,-0.276089,0.176264,0.000956,0.000233,0.000335,0,1,0,-26.834381,2,0.390000,0,15,0,202
762, 101,28080,28074,7153,0,0,-2.775204,-0.516954,-17.239841,-1.343316,-3.365534,-26.890465,-21.660334,-27.097342,16.398714,-2.958237,-0.086162,-17.208515,2.729908,0.302447,0.026831,84.587037,168.216535,-48.563212,-0.344474,0.239612,-0.699113,-0.578934,-0.344474,0.239612,-0.699113,-0.578934,3287.729492,80205.453125,-inf,170.288025,1308.271484,1308.271484,1264.348145,23.000000,28.238234,17.469435,17.461145,1979.458008,1308.271484,-0.216603,-0.270973,0.163987,0.000956,0.000234,0.000335,0,1,0,-27.151039,2,0.390000,0,15,0,202
763, 101,28155,28153,7228,0,0,-2.733192,-0.513489,-17.138905,-1.381033,-3.358596,-26.780066,-21.704180,-27.711195,17.304880,-2.728471,-0.521760,-17.136711,2.689392,0.347995,0.018870,84.475192,168.119205,-48.539480,-0.344667,0.239259,-0.699902,-0.578012,-0.344667,0.239259,-0.699902,-0.578012,3287.729492,80205.453125,-inf,169.249695,1308.271484,1308.271484,1286.031372,23.000000,28.238234,17.363066,17.360405,1979.458008,1308.271484,-0.217042,-0.277112,0.173049,0.000955,0.000235,0.000335,0,1,0,-26.784128,2,0.390000,0,15,0,202
764, 101,28210,28196,7283,0,0,-2.645332,-0.878258,-17.233339,-1.212891,-3.091304,-26.939548,-21.616486,-28.120432,17.144110,-2.637522,-0.818541,-17.203726,2.635222,0.275537,0.017243,84.386837,168.041764,-48.520168,-0.344819,0.238974,-0.700526,-0.577283,-0.344819,0.238974,-0.700526,-0.577283,3312.735352,80205.453125,-inf,168.310196,1333.277344,1333.277344,1300.110474,23.000000,28.238234,17.457293,17.423969,1979.458008,1333.277344,-0.216165,-0.281204,0.171441,0.000955,0.000235,0.000335,0,1,0,-27.038023,2,0.390000,0,15,0,202
765, 101,28486,28477,7559,0,0,-2.394991,-0.827553,-16.658319,-1.397565,-2.995977,-26.335306,-22.259573,-27.784273,17.977200,-2.393395,-0.832902,-16.653246,2.365720,0.270947,0.012809,84.009100,167.709872,-48.434248,-0.345466,0.237731,-0.703188,-0.574163,-0.345466,0.237731,-0.703188,-0.574163,3385.416504,80205.453125,-inf,164.462921,1405.958496,1405.958496,1378.806641,23.000000,28.238234,16.849939,16.844959,1979.458008,1405.958496,-0.222596,-0.277843,0.179772,0.000954,0.000239,0.000335,0,1,0,-26.369514,2,0.390000,0,15,0,202
766, 101,28544,28541,7617,0,0,-2.241080,-0.566705,-16.518667,-1.666938,-3.040374,-26.116251,-22.157265,-27.638117,17.860275,-2.225858,-0.540907,-16.504856,2.348944,0.261624,0.003589,83.937445,167.646829,-48.418682,-0.345594,0.237500,-0.703689,-0.573568,-0.345594,0.237500,-0.703689,-0.573568,3385.416504,80205.453125,-inf,163.588120,1405.958496,1405.958496,1391.249634,23.000000,28.238234,16.679628,16.663052,1979.458008,1405.958496,-0.221573,-0.276381,0.178603,0.000955,0.000239,0.000335,0,1,0,-26.170565,2,0.390000,0,15,0,202
767, 101,28599,28584,7672,0,0,-2.719969,-1.025989,-16.360844,-1.006793,-3.113828,-26.092670,-21.967260,-27.199650,18.035662,-2.733258,-1.038734,-16.356464,2.313125,0.263836,-0.013364,83.858153,167.577271,-48.402163,-0.345739,0.237250,-0.704241,-0.572907,-0.345739,0.237250,-0.704241,-0.572907,3408.838379,80205.453125,-inf,162.686813,1429.380371,1429.380371,1407.034668,23.000000,28.238234,16.617102,16.615763,1979.458008,1429.380371,-0.219673,-0.271996,0.180357,0.000955,0.000240,0.000335,0,1,0,-26.095465,2,0.390000,0,15,0,202
768, 101,28656,28647,7729,0,0,-2.732062,-0.933043,-16.252316,-1.058448,-3.187477,-25.962440,-21.689564,-27.755043,16.311020,-2.733258,-0.923851,-16.241583,2.262297,0.224147,0.039524,83.798723,167.523845,-48.388205,-0.345847,0.237046,-0.704659,-0.572411,-0.345847,0.237046,-0.704659,-0.572411,3408.838379,80205.453125,-inf,161.890213,1429.380371,1429.380371,1415.920166,23.000000,28.238234,16.506741,16.495853,1979.458008,1429.380371,-0.216896,-0.277550,0.163110,0.000955,0.000241,0.000335,0,1,0,-25.996708,2,0.390000,0,15,0,202
769, 101,28711,28708,7784,0,0,-2.364475,-0.585706,-16.053493,-1.525708,-3.130437,-25.660414,-21.864952,-27.974277,17.114880,-2.383822,-0.516973,-15.968735,2.193399,0.234962,0.033242,83.724951,167.457169,-48.369781,-0.345978,0.236783,-0.705181,-0.571798,-0.345978,0.236783,-0.705181,-0.571798,3431.727783,80205.453125,-inf,160.894958,1452.269775,1452.269775,1427.337524,23.000000,28.238234,16.237255,16.153957,1979.458008,1452.269775,-0.218650,-0.279743,0.171149,0.000955,0.000241,0.000335,0,1,0,-25.889187,2,0.390000,0,15,0,202
770, 101,28783,28766,7856,0,0,-2.418513,-0.835517,-15.938931,-1.360183,-3.058009,-25.597040,-21.762642,-28.018124,17.567963,-2.422117,-0.866409,-15.935228,2.134323,0.248168,0.038603,83.655249,167.396093,-48.353559,-0.346097,0.236554,-0.705667,-0.571221,-0.346097,0.236554,-0.705667,-0.571221,3454.191895,80205.453125,-inf,160.063980,1474.733887,1474.733887,1441.425049,23.000000,28.238234,16.143011,16.141525,1979.458008,1474.733887,-0.217626,-0.280181,0.175680,0.000955,0.000242,0.000335,0,1,0,-25.569023,2,0.390000,0,15,0,202
771, 101,28841,28828,7914,0,0,-2.380101,-0.842287,-15.786286,-1.303185,-2.987283,-25.462490,-21.967260,-27.594271,17.567963,-2.379035,-0.842475,-15.782050,2.087073,0.220458,0.057545,83.590854,167.339471,-48.337549,-0.346204,0.236334,-0.706118,-0.570689,-0.346204,0.236334,-0.706118,-0.570689,3454.191895,80205.453125,-inf,159.292618,1474.733887,1474.733887,1455.273804,23.000000,28.238234,15.986906,15.982574,1979.458008,1474.733887,-0.220988,-0.282812,0.175680,0.000955,0.000243,0.000335,0,1,0,-25.499456,2,0.390000,0,15,0,202
772, 101,28911,28907,7984,0,0,-2.122899,-0.628223,-15.763535,-1.640011,-2.945265,-25.358191,-22.025724,-27.696579,17.728733,-2.115762,-0.622283,-15.762904,2.069213,0.202608,0.057538,83.508925,167.265978,-48.316543,-0.346345,0.236043,-0.706695,-0.570010,-0.346345,0.236043,-0.706695,-0.570010,3454.191895,80205.453125,-inf,158.119202,1474.733887,1474.733887,1468.237061,23.000000,28.238234,15.918242,15.916432,1979.458008,1474.733887,-0.220257,-0.276966,0.177287,0.000955,0.000243,0.000335,0,1,0,-25.366442,2,0.390000,0,15,0,202
773, 101,28965,28951,8038,0,0,-2.240736,-0.492870,-15.563114,-1.633967,-3.117399,-25.133526,-22.113417,-27.915815,17.962584,-2.264152,-0.536121,-15.509203,2.007163,0.257965,0.032363,83.439251,167.205886,-48.299812,-0.346457,0.235816,-0.707178,-0.569436,-0.346457,0.235816,-0.707178,-0.569436,3476.174561,80205.453125,-inf,157.198975,1496.716553,1496.716553,1481.281616,23.000000,28.238234,15.731318,15.682767,1979.458008,1496.716553,-0.221134,-0.279158,0.179626,0.000955,0.000244,0.000335,0,1,0,-25.230381,2,0.390000,0,15,0,202
774, 101,29037,29032,8110,0,0,-1.901639,-0.685737,-15.514009,-1.719248,-2.749628,-25.106380,-22.376499,-27.506578,17.538731,-1.747179,-0.751526,-15.513989,1.923805,0.210570,0.044185,83.366222,167.143499,-48.281781,-0.346569,0.235579,-0.707683,-0.568838,-0.346569,0.235579,-0.707683,-0.568838,3497.746094,80205.453125,-inf,156.161621,1518.288086,1518.288086,1493.463989,23.000000,28.238234,15.645157,15.630140,1979.458008,1518.288086,-0.223765,-0.275066,0.175387,0.000956,0.000245,0.000335,0,1,0,-25.093472,2,0.390000,0,15,0,202
775, 101,29093,29094,8166,0,0,-1.769979,-0.353858,-16.533993,-2.289453,-2.995700,-26.000233,-22.142649,-27.462730,17.027184,-1.766326,-0.344649,-16.562298,1.860095,0.208045,0.017790,83.300058,167.085606,-48.266027,-0.346682,0.235360,-0.708142,-0.568289,-0.346682,0.235360,-0.708142,-0.568289,3519.120605,80205.453125,-inf,155.375076,1539.662598,1539.662598,1511.259888,23.000000,28.238234,16.632227,16.659784,1979.458008,1539.662598,-0.221426,-0.274627,0.170272,0.000956,0.000245,0.000335,0,1,0,-25.936598,2,0.390000,0,15,0,202
776, 101,29164,29158,8237,0,0,-1.810822,-0.801270,-16.202633,-1.879437,-2.719964,-25.785866,-22.244957,-27.871967,17.334112,-1.876422,-0.847262,-16.141058,1.800700,0.215292,0.007048,83.232835,167.028328,-48.250447,-0.346790,0.235149,-0.708604,-0.567735,-0.346790,0.235149,-0.708604,-0.567735,3519.120605,80205.453125,-inf,154.359558,1539.662598,1539.662598,1524.653320,23.000000,28.238234,16.323187,16.271833,1979.458008,1539.662598,-0.222450,-0.278720,0.173341,0.000956,0.000246,0.000335,0,1,0,-25.892025,2,0.390000,0,15,0,202
777, 101,29220,29220,8293,0,0,-1.780830,-0.688535,-15.924922,-1.933427,-2.754120,-25.483004,-21.938030,-27.506578,17.465654,-1.742392,-0.622283,-15.829918,1.718249,0.176417,0.041406,83.170298,166.973837,-48.235701,-0.346897,0.234944,-0.709035,-0.567216,-0.346897,0.234944,-0.709035,-0.567216,3540.332031,80205.453125,-inf,153.342529,1560.874023,1560.874023,1536.259644,23.000000,28.238234,16.038971,15.937675,1979.458008,1560.874023,-0.219380,-0.275066,0.174657,0.000956,0.000246,0.000335,0,1,0,-25.742458,2,0.390000,0,15,0,202
778, 101,29495,29488,8568,0,0,-1.437938,-0.687157,-14.937659,-1.989651,-2.441264,-24.489603,-22.244957,-27.448114,17.509501,-1.397743,-0.655790,-14.920428,1.480899,0.132368,0.050612,82.923633,166.758495,-48.169284,-0.347281,0.234084,-0.710748,-0.565188,-0.347281,0.234084,-0.710748,-0.565188,3621.398438,80205.453125,-inf,149.607971,1641.940430,1641.940430,1605.068237,23.000000,28.238234,15.022433,15.000097,1979.458008,1641.940430,-0.222450,-0.274481,0.175095,0.000955,0.000250,0.000335,0,1,0,-24.560020,2,0.390000,4,15,4,202
779, 101,29551,29553,8624,0,0,-1.551288,-0.434482,-14.685670,-2.052552,-2.670610,-24.185680,-22.464191,-28.646595,17.465654,-1.565281,-0.411664,-14.661941,1.443068,0.144629,0.011633,82.875159,166.714864,-48.156986,-0.347369,0.233913,-0.711084,-0.564782,-0.347369,0.233913,-0.711084,-0.564782,3621.398438,80205.453125,-inf,148.797363,1641.940430,1641.940430,1620.012939,23.000000,28.238234,14.773766,14.751002,1979.458008,1641.940430,-0.224642,-0.286466,0.174657,0.000955,0.000250,0.000335,0,1,0,-24.258833,2,0.390000,4,15,4,202
780, 101,29607,29597,8680,0,0,-1.745877,-0.785487,-14.193209,-1.690352,-2.739380,-23.916449,-22.069571,-27.565039,17.816427,-1.713671,-0.866409,-14.125821,1.347475,0.178617,0.050315,82.838604,166.684100,-48.147486,-0.347421,0.233794,-0.711335,-0.564484,-0.347421,0.233794,-0.711335,-0.564484,3640.926270,80205.453125,-inf,148.212250,1661.468262,1661.468262,1631.801880,23.000000,28.238234,14.321740,14.255741,1979.458008,1661.468262,-0.220696,-0.275650,0.178164,0.000955,0.000251,0.000335,0,1,0,-23.985704,2,0.380000,4,15,4,202
781, 101,29665,29662,8738,0,0,-1.619398,-0.725096,-14.054818,-1.668718,-2.478100,-23.648762,-21.981876,-28.427359,18.094124,-1.574854,-0.674938,-14.015724,1.294765,0.139844,0.036900,82.796468,166.648324,-48.135874,-0.347481,0.233651,-0.711625,-0.564140,-0.347481,0.233651,-0.711625,-0.564140,3659.892578,80205.453125,-inf,147.521774,1680.434570,1680.434570,1646.322021,23.000000,28.238234,14.166373,14.120065,1979.458008,1680.434570,-0.219819,-0.284274,0.180941,0.000955,0.000251,0.000335,0,1,0,-23.774981,2,0.390000,4,15,4,202
782, 101,29720,29707,8793,0,0,-1.745940,-0.419289,-13.820760,-1.763095,-2.751197,-23.349428,-22.171881,-28.281202,18.298744,-1.761539,-0.392517,-13.800318,1.255330,0.136390,0.019331,82.753090,166.610088,-48.124700,-0.347554,0.233502,-0.711924,-0.563780,-0.347554,0.233502,-0.711924,-0.563780,3659.892578,80205.453125,-inf,146.729721,1680.434570,1680.434570,1660.490234,23.000000,28.238234,13.936912,13.917826,1979.458008,1680.434570,-0.221719,-0.282812,0.182987,0.000956,0.000252,0.000335,0,1,0,-23.416599,2,0.390000,4,15,4,202
783, 101,29793,29787,8866,0,0,-1.800322,-0.541343,-13.709394,-1.622686,-2.710872,-23.273186,-21.967260,-28.412745,18.357204,-1.804620,-0.555268,-13.699796,1.229524,0.161370,0.030270,82.707416,166.571211,-48.112918,-0.347623,0.233351,-0.712236,-0.563405,-0.347623,0.233351,-0.712236,-0.563405,3678.748047,80205.453125,-inf,145.885941,1699.290039,1699.290039,1674.775757,23.000000,28.238234,13.837691,13.829294,1979.458008,1699.290039,-0.219673,-0.285881,0.180941,0.000956,0.000253,0.000335,0,1,0,-23.288433,2,0.390000,4,15,4,202
784, 101,29847,29833,8920,0,0,-1.706696,-0.643385,-13.504439,-1.570129,-2.558531,-23.093300,-21.514177,-28.105816,17.787197,-1.704098,-0.646217,-13.498752,1.149479,0.147657,0.062499,82.665404,166.535981,-48.100487,-0.347676,0.233206,-0.712525,-0.563066,-0.347676,0.233206,-0.712525,-0.563066,3678.748047,80205.453125,-inf,145.001709,1699.290039,1699.290039,1686.548584,23.000000,28.238234,13.627055,13.621227,1979.458008,1699.290039,-0.215142,-0.281058,0.177872,0.000956,0.000253,0.000335,0,1,0,-23.106878,2,0.390000,4,15,4,202
785, 101,29920,29914,8993,0,0,-1.437883,-0.477899,-13.250815,-1.813310,-2.438156,-22.787428,-21.864952,-28.325050,18.079510,-1.459971,-0.478679,-13.211544,1.081514,0.149736,0.026405,82.624170,166.501202,-48.088797,-0.347732,0.233066,-0.712808,-0.562732,-0.347732,0.233066,-0.712808,-0.562732,3697.313477,80205.453125,-inf,144.153275,1717.855469,1717.855469,1700.357666,23.000000,28.238234,13.337166,13.300585,1979.458008,1717.855469,-0.218650,-0.283251,0.180795,0.000956,0.000254,0.000335,0,1,0,-22.875071,2,0.390000,4,15,4,202
786, 101,29974,29960,9047,0,0,-1.559562,-0.504794,-13.020941,-1.668204,-2.492867,-22.577332,-21.674950,-28.427359,17.597195,-1.570068,-0.507400,-13.000925,1.055445,0.156287,0.001245,82.584999,166.469523,-48.079163,-0.347785,0.232950,-0.713072,-0.562414,-0.347785,0.232950,-0.713072,-0.562414,3715.565430,80205.453125,-inf,143.353470,1736.107422,1736.107422,1713.561035,23.000000,28.238234,13.123717,13.105213,1979.458008,1736.107422,-0.216749,-0.284274,0.175972,0.000956,0.000254,0.000335,0,1,0,-22.624613,2,0.390000,4,15,4,202
787, 101,30048,30042,9121,0,0,-1.569784,-0.507330,-13.001466,-1.662425,-2.505213,-22.557175,-21.806488,-28.851213,17.187958,-1.570068,-0.507400,-13.000925,1.053566,0.156330,-0.000475,82.544503,166.436916,-48.069690,-0.347841,0.232833,-0.713342,-0.562084,-0.347841,0.232833,-0.713342,-0.562084,3715.565430,80205.453125,-inf,142.444931,1736.107422,1736.107422,1725.043945,23.000000,28.238234,13.105713,13.105213,1979.458008,1736.107422,-0.218065,-0.288512,0.171880,0.000956,0.000255,0.000335,0,1,0,-22.559408,2,0.390000,4,15,0,202
788, 101,30103,30088,9176,0,0,-1.570060,-0.507398,-13.000939,-1.669115,-2.513730,-22.554125,-22.084185,-28.281202,17.918737,-1.570068,-0.507400,-13.000925,1.053516,0.156331,-0.000521,82.505140,166.405237,-48.060472,-0.347895,0.232720,-0.713605,-0.561763,-0.347895,0.232720,-0.713605,-0.561763,3715.565430,80205.453125,-inf,141.455032,1736.107422,1736.107422,1733.253418,23.000000,28.238234,13.105227,13.105213,1979.458008,1736.107422,-0.218503,-0.281497,0.180941,0.000957,0.000255,0.000335,0,1,0,-22.554869,2,0.390000,4,15,0,202
789, 101,30175,30170,9248,0,0,-1.375724,-0.547609,-12.799880,-1.725878,-2.323479,-22.356962,-21.879568,-28.222742,18.415668,-1.292434,-0.564841,-12.713717,0.946879,0.156711,0.005815,82.465880,166.373996,-48.051149,-0.347947,0.232608,-0.713867,-0.561444,-0.347947,0.232608,-0.713867,-0.561444,3733.480469,80205.453125,-inf,140.420517,1754.022461,1754.022461,1741.235352,23.000000,28.238234,12.885241,12.791718,1979.458008,1754.022461,-0.218796,-0.282227,0.184157,0.000957,0.000256,0.000335,0,1,0,-22.552402,2,0.390000,4,15,0,202
790, 101,30230,30215,9303,0,0,-1.464566,-0.512104,-12.232530,-1.565579,-2.347646,-21.804312,-21.674950,-28.909674,17.787197,-1.479118,-0.507400,-12.182384,0.820984,0.092889,0.039478,82.433895,166.348082,-48.042547,-0.347987,0.232508,-0.714083,-0.561186,-0.347987,0.232508,-0.714083,-0.561186,3751.160400,80205.453125,-inf,139.594757,1771.702393,1771.702393,1752.983521,23.000000,28.238234,12.330531,12.282333,1979.458008,1771.702393,-0.216749,-0.289097,0.177872,0.000957,0.000257,0.000335,0,1,0,-21.930761,2,0.390000,4,15,0,202
791, 101,30505,30502,9578,0,0,-1.191495,-0.627337,-11.534975,-1.512784,-1.999222,-21.140465,-22.025724,-28.851213,18.649517,-1.096175,-0.785034,-11.493086,0.574531,0.113916,0.038585,82.319967,166.258593,-48.008676,-0.348099,0.232148,-0.714853,-0.560285,-0.348099,0.232148,-0.714853,-0.560285,3802.745850,80205.453125,-inf,136.332581,1823.287842,1823.287842,1810.837646,23.000000,28.238234,11.613305,11.571901,1979.458008,1823.287842,-0.220257,-0.288512,0.186495,0.000955,0.000259,0.000335,0,1,0,-21.150740,2,0.390000,4,15,0,202
792, 101,30561,30550,9634,0,0,-1.138958,-0.683604,-11.460709,-1.458786,-1.839845,-21.135870,-21.821106,-29.070446,18.167202,-1.153617,-0.646217,-11.445217,0.538343,0.084417,0.008837,82.303732,166.247023,-48.003809,-0.348108,0.232103,-0.714961,-0.560161,-0.348108,0.232103,-0.714961,-0.560161,3819.476074,80205.453125,-inf,135.662292,1840.018066,1840.018066,1817.103027,23.000000,28.238234,11.537434,11.521346,1979.458008,1840.018066,-0.218211,-0.290704,0.181672,0.000955,0.000260,0.000335,0,1,0,-21.137228,2,0.390000,4,15,0,202
793, 101,30618,30611,9691,0,0,-1.356693,-0.468641,-11.185253,-1.441682,-2.186477,-20.769638,-21.616486,-28.412745,18.766441,-1.445611,-0.387730,-11.071848,0.508430,0.066248,-0.005425,82.287257,166.233663,-47.999800,-0.348130,0.232054,-0.715071,-0.560026,-0.348130,0.232054,-0.715071,-0.560026,3819.476074,80205.453125,-inf,135.006195,1840.018066,1840.018066,1827.411377,23.000000,28.238234,11.276973,11.172553,1979.458008,1840.018066,-0.216165,-0.284127,0.187664,0.000955,0.000260,0.000335,0,1,0,-21.063200,2,0.380000,4,15,0,202
794, 101,30674,30653,9747,0,0,-1.443210,-0.389915,-11.074910,-1.418723,-2.291086,-20.646584,-22.171881,-28.339666,18.181818,-1.445611,-0.387730,-11.071848,0.498256,0.062706,-0.008950,82.270223,166.219388,-47.996118,-0.348159,0.232004,-0.715184,-0.559884,-0.348159,0.232004,-0.715184,-0.559884,3819.476074,80205.453125,-inf,134.179474,1840.018066,1840.018066,1835.485107,23.000000,28.238234,11.175353,11.172553,1979.458008,1840.018066,-0.221719,-0.283397,0.181818,0.000956,0.000261,0.000335,0,1,0,-20.655806,2,0.380000,4,15,0,202
795, 101,30731,30718,9804,0,0,-1.273217,-0.574091,-10.848369,-1.348525,-2.034560,-20.478682,-22.142649,-28.310436,17.509501,-1.268500,-0.579202,-10.842082,0.338360,0.086450,0.002875,82.260462,166.212626,-47.993772,-0.348166,0.231982,-0.715248,-0.559808,-0.348166,0.231982,-0.715248,-0.559808,3851.799805,80205.453125,-inf,133.762222,1872.341797,1872.341797,1845.717163,23.000000,28.238234,10.937905,10.931391,1979.458008,1872.341797,-0.221426,-0.283104,0.175095,0.000956,0.000261,0.000335,0,1,0,-20.521688,2,0.390000,4,15,0,202
796, 101,30803,30800,9876,0,0,-1.228418,-0.609221,-10.785290,-1.334187,-1.954843,-20.412371,-22.332651,-28.529671,17.904121,-1.211058,-0.622283,-10.760707,0.306452,0.081125,0.006177,82.244589,166.202463,-47.989773,-0.348172,0.231949,-0.715350,-0.559688,-0.348172,0.231949,-0.715350,-0.559688,3851.799805,80205.453125,-inf,132.901627,1872.341797,1872.341797,1860.276245,23.000000,28.238234,10.872104,10.846507,1979.458008,1872.341797,-0.223327,-0.285297,0.179041,0.000956,0.000262,0.000335,0,1,0,-20.462057,2,0.390000,4,15,0,202
797, 101,30858,30845,9931,0,0,-1.146522,-0.396760,-10.552954,-1.333778,-1.953823,-20.271009,-21.996492,-27.857351,17.933352,-1.115322,-0.320715,-10.511794,0.169369,0.036487,0.029054,82.236885,166.197436,-47.987553,-0.348174,0.231931,-0.715400,-0.559630,-0.348174,0.231931,-0.715400,-0.559630,3867.619629,80205.453125,-inf,132.349136,1888.161621,1888.161621,1867.665894,23.000000,28.238234,10.622465,10.575662,1979.458008,1888.161621,-0.219965,-0.278574,0.179334,0.000956,0.000263,0.000335,0,1,0,-20.397831,2,0.390000,4,15,0,202
798, 101,30931,30926,10004,0,0,-1.116165,-0.322768,-10.512905,-1.550688,-2.019762,-20.066822,-22.215727,-27.988894,17.319498,-1.115322,-0.320715,-10.511794,0.147055,0.030807,0.033441,82.229508,166.192231,-47.983985,-0.348172,0.231902,-0.715451,-0.559578,-0.348172,0.231902,-0.715451,-0.559578,3867.619629,80205.453125,-inf,131.401932,1888.161621,1888.161621,1880.327271,23.000000,28.238234,10.576918,10.575662,1979.458008,1888.161621,-0.222157,-0.279889,0.173195,0.000956,0.000263,0.000335,0,1,0,-20.071287,2,0.390000,4,15,0,202
799, 101,30986,30971,10059,0,0,-1.115345,-0.320770,-10.511825,-1.553124,-2.021250,-20.064903,-21.981876,-29.041216,18.181818,-1.115322,-0.320715,-10.511794,0.146453,0.030654,0.033560,82.223709,166.188119,-47.981037,-0.348169,0.231879,-0.715492,-0.559537,-0.348169,0.231879,-0.715492,-0.559537,3867.619629,80205.453125,-inf,130.499939,1888.161621,1888.161621,1887.278809,23.000000,28.238234,10.575696,10.575662,1979.458008,1888.161621,-0.219819,-0.290412,0.181818,0.000956,0.000264,0.000335,0,1,0,-20.065104,2,0.390000,4,15,0,202
800, 101,31043,31030,10116,0,0,-1.115323,-0.320716,-10.511795,-1.553646,-2.021913,-20.064661,-22.361881,-28.339666,17.874891,-1.115322,-0.320715,-10.511794,0.146437,0.030650,0.033563,82.219850,166.185374,-47.979077,-0.348167,0.231863,-0.715519,-0.559510,-0.348167,0.231863,-0.715519,-0.559510,3867.619629,80205.453125,-inf,129.859863,1888.161621,1888.161621,1890.886353,23.000000,28.238234,10.575663,10.575662,1979.458008,1888.161621,-0.223619,-0.283397,0.178749,0.000956,0.000264,0.000335,0,1,0,-20.064756,2,0.390000,4,15,0,202
801, 101,31099,31087,10172,0,0,-1.071763,-0.330767,-10.488338,-1.554231,-2.022701,-20.064413,-21.952646,-28.222742,16.837183,-1.053094,-0.335075,-10.478286,0.115118,0.050783,0.022378,82.215158,166.182054,-47.976693,-0.348165,0.231844,-0.715552,-0.559477,-0.348165,0.231844,-0.715552,-0.559477,3867.619629,80205.453125,-inf,129.044968,1888.161621,1888.161621,1894.146240,23.000000,28.238234,10.548143,10.536402,1979.458008,1888.161621,-0.219526,-0.282227,0.168372,0.000956,0.000265,0.000335,0,1,0,-20.064491,2,0.290000,4,15,0,202
802, 101,31157,31141,10230,0,0,-0.947848,-0.465370,-9.951015,-1.399053,-1.817544,-19.662434,-21.748028,-28.529671,17.524117,-0.909490,-0.469106,-9.903871,-0.108531,0.020069,0.025265,82.214413,166.182792,-47.975498,-0.348153,0.231843,-0.715557,-0.559478,-0.348153,0.231843,-0.715557,-0.559478,3913.893066,80205.453125,-inf,128.475143,1934.435059,1934.435059,1901.862427,23.000000,28.238234,10.006882,9.956600,1979.458008,1934.435059,-0.217480,-0.285297,0.175241,0.000955,0.000265,0.000335,0,1,0,-19.759470,2,0.290000,4,15,0,202
803, 101,31212,31200,10285,0,0,-0.923594,-0.390597,-9.861584,-1.462991,-1.736789,-19.463806,-21.967260,-27.871967,17.553347,-0.923851,-0.382943,-9.856003,-0.131728,0.020597,-0.004271,82.216865,166.186589,-47.975426,-0.348136,0.231856,-0.715539,-0.559506,-0.348136,0.231856,-0.715539,-0.559506,3913.893066,80205.453125,-inf,127.997864,1934.435059,1934.435059,1914.267700,23.000000,28.238234,9.912437,9.906610,1979.458008,1934.435059,-0.218650,-0.278720,0.175533,0.000955,0.000266,0.000335,0,1,0,-19.522429,2,0.290000,4,15,0,202
804, 101,31272,31269,10345,0,0,-1.104784,-0.503777,-9.658459,-1.223492,-1.784570,-19.291971,-21.733410,-28.734287,17.187958,-1.182337,-0.555268,-9.573582,-0.167088,0.026882,-0.019897,82.220697,166.192299,-47.976792,-0.348118,0.231884,-0.715509,-0.559545,-0.348118,0.231884,-0.715509,-0.559545,3928.988770,80205.453125,-inf,127.300713,1949.530762,1949.530762,1927.145386,23.000000,28.238234,9.734483,9.662283,1979.458008,1949.530762,-0.217334,-0.287343,0.171880,0.000955,0.000267,0.000335,0,1,0,-19.440056,2,0.290000,4,15,0,202
805, 101,31508,31502,10581,0,0,-0.994742,-0.495289,-9.173004,-1.180085,-1.638408,-18.817753,-21.894182,-28.120432,16.603333,-0.986079,-0.531334,-9.157131,-0.325310,0.006892,0.013633,82.250060,166.225194,-47.983930,-0.348026,0.232022,-0.715298,-0.559815,-0.348026,0.232022,-0.715298,-0.559815,3958.456299,80205.453125,-inf,124.765656,1978.998291,1978.998291,1973.156494,23.000000,28.238234,9.240067,9.225385,1979.458008,1978.998291,-0.218942,-0.281204,0.166033,0.000954,0.000270,0.000335,0,1,0,-18.832138,2,0.290000,4,15,0,202
806, 101,31562,31557,10635,0,0,-0.982962,-0.516958,-9.026881,-1.135808,-1.595188,-18.682631,-21.660334,-28.061972,17.173342,-0.981292,-0.512187,-8.970448,-0.356868,-0.005446,-0.001276,82.258837,166.234852,-47.985719,-0.347997,0.232059,-0.715236,-0.559896,-0.347997,0.232059,-0.715236,-0.559896,3972.937500,80205.453125,-inf,124.116158,1993.479492,1993.479492,1979.904297,23.000000,28.238234,9.094946,9.038485,1979.458008,1993.479492,-0.216603,-0.280620,0.171733,0.000954,0.000270,0.000335,0,1,0,-18.812443,2,0.290000,4,15,0,202
807, 101,31617,31612,10690,0,0,-1.038300,-0.492211,-8.854694,-1.075104,-1.628902,-18.514023,-21.981876,-27.638117,17.421806,-1.062668,-0.483466,-8.802909,-0.385105,-0.013706,-0.004158,82.269253,166.245438,-47.988407,-0.347971,0.232103,-0.715163,-0.559987,-0.347971,0.232103,-0.715163,-0.559987,3987.103516,80205.453125,-inf,123.498917,2007.645508,2007.645508,1988.779419,23.000000,28.238234,8.928939,8.879989,1979.458008,2007.645508,-0.215726,-0.276381,0.174218,0.000955,0.000271,0.000335,0,1,0,-18.632721,2,0.290000,4,15,0,202
808, 101,31672,31669,10745,0,0,-1.062010,-0.460247,-8.757396,-1.057891,-1.652927,-18.413803,-21.952646,-27.813507,17.261034,-1.062668,-0.449958,-8.735893,-0.409834,-0.021431,0.008713,82.280851,166.256940,-47.991163,-0.347943,0.232149,-0.715083,-0.560089,-0.347943,0.232149,-0.715083,-0.560089,3987.103516,80205.453125,-inf,122.875763,2007.645508,2007.645508,1997.740234,23.000000,28.238234,8.833554,8.811785,1979.458008,2007.645508,-0.219526,-0.278135,0.172610,0.000955,0.000272,0.000335,0,1,0,-18.468594,2,0.290000,4,15,0,202
809, 101,31726,31723,10799,0,0,-1.062650,-0.450236,-8.736474,-1.057962,-1.655327,-18.391607,-21.718796,-28.471207,17.231804,-1.062668,-0.449958,-8.735893,-0.416899,-0.024111,0.013713,82.293036,166.268661,-47.993537,-0.347913,0.232191,-0.714999,-0.560196,-0.347913,0.232191,-0.714999,-0.560196,3987.103516,80205.453125,-inf,122.193573,2007.645508,2007.645508,2004.282959,23.000000,28.238234,8.812372,8.811785,1979.458008,2007.645508,-0.217188,-0.284712,0.172318,0.000955,0.000272,0.000335,0,1,0,-18.393095,2,0.290000,4,15,0,202
810, 101,31780,31766,10853,0,0,-1.062667,-0.449966,-8.735909,-1.056097,-1.653535,-18.391594,-21.733410,-28.208128,17.465654,-1.062668,-0.449958,-8.735893,-0.417090,-0.024183,0.013848,82.306259,166.281351,-47.996081,-0.347880,0.232237,-0.714909,-0.560313,-0.347880,0.232237,-0.714909,-0.560313,3987.103516,80205.453125,-inf,121.394234,2007.645508,2007.645508,2009.422607,23.000000,28.238234,8.811801,8.811785,1979.458008,2007.645508,-0.217334,-0.282081,0.174657,0.000955,0.000273,0.000335,0,1,0,-18.391474,2,0.290000,4,15,0,202
811, 101,31835,31836,10908,0,0,-0.884173,-0.495194,-8.501408,-1.082028,-1.457017,-18.168032,-21.791874,-28.281202,17.085648,-0.880769,-0.493040,-8.482193,-0.469968,-0.033078,-0.000756,82.319509,166.293905,-47.998980,-0.347850,0.232284,-0.714818,-0.560428,-0.347850,0.232284,-0.714818,-0.560428,4001.039551,80205.453125,-inf,120.748383,2021.581543,2021.581543,2016.450806,23.000000,28.238234,8.561595,8.542040,1979.458008,2021.581543,-0.217919,-0.282812,0.170856,0.000955,0.000273,0.000335,0,1,0,-18.217697,2,0.290000,4,15,0,202
812, 101,31889,31879,10962,0,0,-0.876204,-0.516385,-8.370933,-1.042057,-1.421202,-18.055828,-21.894182,-28.193510,17.129494,-0.875983,-0.516973,-8.367311,-0.498334,-0.040491,-0.005718,82.331469,166.304929,-48.001975,-0.347826,0.232328,-0.714736,-0.560529,-0.347826,0.232328,-0.714736,-0.560529,4014.926270,80205.453125,-inf,120.264465,2035.468262,2035.468262,2023.261597,23.000000,28.238234,8.432490,8.428909,1979.458008,2035.468262,-0.218942,-0.281935,0.171295,0.000956,0.000274,0.000335,0,1,0,-18.084452,2,0.290000,4,15,0,202
813, 101,31945,31934,11018,0,0,-0.945852,-0.423807,-8.288230,-1.039537,-1.511741,-17.955042,-21.864952,-28.485823,17.304880,-0.947785,-0.421238,-8.285935,-0.513611,-0.044837,-0.012589,82.344754,166.317019,-48.005448,-0.347801,0.232376,-0.714645,-0.560641,-0.347801,0.232376,-0.714645,-0.560641,4014.926270,80205.453125,-inf,119.722404,2035.468262,2035.468262,2029.859253,23.000000,28.238234,8.352784,8.350596,1979.458008,2035.468262,-0.218650,-0.284858,0.173049,0.000955,0.000274,0.000335,0,1,0,-17.978775,2,0.290000,4,15,0,202
814, 101,31999,31992,11072,0,0,-0.982459,-0.334349,-8.164175,-1.049155,-1.585156,-17.808329,-21.499561,-28.310436,16.617949,-0.986079,-0.325502,-8.151906,-0.547925,-0.042039,-0.000160,82.360067,166.331103,-48.009253,-0.347771,0.232431,-0.714540,-0.560771,-0.347771,0.232431,-0.714540,-0.560771,4028.646484,80205.453125,-inf,119.147461,2049.188477,2049.188477,2037.586914,23.000000,28.238234,8.229871,8.217778,1979.458008,2049.188477,-0.214996,-0.283104,0.166179,0.000955,0.000275,0.000335,0,1,0,-17.844088,2,0.290000,4,15,0,202
815, 101,32053,32045,11126,0,0,-0.857284,-0.531692,-7.967103,-0.968240,-1.306287,-17.630537,-21.616486,-28.734287,17.655655,-0.875983,-0.536121,-7.979580,-0.603689,-0.035384,-0.003045,82.376268,166.346689,-48.013248,-0.347735,0.232493,-0.714427,-0.560911,-0.347735,0.232493,-0.714427,-0.560911,4042.068604,80205.453125,-inf,118.681793,2062.610596,2062.610596,2047.723755,23.000000,28.238234,8.030714,8.045401,1979.458008,2062.610596,-0.216165,-0.287343,0.176557,0.000955,0.000275,0.000335,0,1,0,-17.643274,2,0.290000,4,15,0,202
