index, checksum,uptime mp,uptime nav,missiontime,  errorflag mp,errorflag NAV,  accel x, accel y, accel z, accelworld x, accelworld y, accelworld z, mag x, mag y, mag z, accelhighg x, accelhighg y, accelhighg z, gyro x, gyro y, gyro z, euler x, euler y, euler z, quat w, quat x, quat y, quat z,quatadj w, quatadj x, quatadj y, quatadj z, altitude, presusre, verticalvel,filtered vvel, maxalt, altitudeagl, filtered alt, imutemp, barotemp,abs imu accel,abs adxl accel, pad altitude, baro max alt, mag raw x, mag raw y, mag raw z, cov x, cov y, cov z, sats, status, met, filtered accel ,state,battstate,pyros fired,pyros cont,pyros state, checksum2
0, 101,40136,40118,-10438,0,0,1.435954,-9.740341,0.013109,-0.066491,0.022238,0.044378,-61.824028,114.834846,5.787781,1.922103,-9.610518,-6.246836,0.460945,-2.452222,0.218340,179.497604,144.214199,-7.854338,0.069092,0.306371,0.023309,0.949115,0.066519,0.306229,0.025204,0.949297,1981.193848,80188.054688,0.279708,0.168001,0.755981,0.467407,0.466460,27.625000,35.515377,9.845628,11.622371,1980.726440,0.755981,-0.618240,1.148348,0.057878,0.000969,0.000243,0.000335,0,1,0,0.031314,0,0.390000,0,15,0,202
1, 101,40212,40183,-10362,0,0,1.379700,-9.700977,0.059102,0.045140,-0.019022,-0.002346,-61.356331,114.630219,6.503946,1.441578,-9.610518,-5.285784,-0.011495,-0.565925,2.017514,179.875573,144.151621,-8.170423,0.068116,0.306903,0.022955,0.949023,0.068116,0.306903,0.022955,0.949023,1981.165161,80185.867188,0.131189,0.169314,0.755981,0.438721,0.464564,27.625000,35.506287,9.798777,11.062536,1980.726440,0.755981,-0.613563,1.146302,0.065039,0.000969,0.000243,0.000335,0,1,0,0.018755,0,0.390000,0,15,0,202
2, 101,40291,40287,-10283,0,0,1.397659,-9.722044,0.052439,0.008180,-0.023621,0.021103,-61.940948,114.425613,5.305466,1.441578,-10.571568,-5.285784,-2.384587,2.294141,-1.105279,179.795332,144.278799,-8.019686,0.067104,0.305832,0.023143,0.949436,0.067104,0.305832,0.023143,0.949436,1981.195801,80188.054688,0.204389,0.170405,0.755981,0.469360,0.482738,27.625000,35.515377,9.822135,11.906961,1980.726440,0.755981,-0.619410,1.144256,0.053055,0.000969,0.000243,0.000335,0,1,0,0.012295,0,0.390000,0,15,0,202
3, 101,40377,40358,-10197,0,0,1.410444,-9.712503,0.037603,0.002733,-0.022155,0.013428,-61.897106,114.440224,6.372406,1.922103,-10.091043,-5.766310,-0.665799,-1.118031,-1.517975,179.870286,144.231220,-8.124224,0.067954,0.306178,0.023831,0.949247,0.067762,0.306249,0.022829,0.949262,1981.239990,80184.843750,0.389651,0.171256,0.755981,0.513550,0.491024,27.625000,35.506287,9.814453,11.780236,1980.726440,0.755981,-0.618971,1.144402,0.063724,0.000969,0.000244,0.000335,0,1,0,-0.004246,0,0.390000,0,15,0,202
4, 101,40465,40429,-10109,0,0,1.393933,-9.717860,0.048198,-0.007399,0.000421,-0.001779,-62.262493,114.323296,5.875475,1.441578,-10.091043,-5.285784,-0.056430,-2.209721,-0.822699,179.750730,144.247708,-8.123892,0.068081,0.306042,0.023808,0.949282,0.068081,0.306042,0.023808,0.949282,1981.191162,80186.007812,0.000126,0.171049,0.755981,0.464722,0.494638,27.625000,35.515377,9.817443,11.482457,1980.726440,0.755981,-0.622625,1.143233,0.058755,0.000969,0.000244,0.000335,0,1,0,0.016222,0,0.390000,0,15,0,202
5, 101,40532,40504,-10042,0,0,1.417747,-9.715229,0.032560,-0.032296,-0.004614,0.017130,-61.400177,114.133301,6.007015,1.922103,-10.571568,-6.246836,0.085613,1.080301,1.581859,179.656706,144.198708,-7.933161,0.066744,0.306432,0.024106,0.949243,0.066744,0.306432,0.024106,0.949243,1981.202148,80186.562500,0.056840,0.171173,0.755981,0.475708,0.499330,27.625000,35.501743,9.818185,12.428818,1980.726440,0.755981,-0.614002,1.141333,0.060070,0.000970,0.000244,0.000335,0,1,0,0.015832,0,0.390000,0,15,0,202
6, 101,40610,40583,-9964,0,0,1.439705,-9.714003,0.049892,-0.046466,-0.011097,0.019122,-62.028648,114.177147,5.729319,2.402629,-10.091043,-5.285784,2.308068,-0.994847,-0.785639,179.509857,144.162549,-7.885731,0.068915,0.306676,0.025045,0.948985,0.066739,0.306657,0.025216,0.949143,1981.114746,80187.257812,-0.528933,0.170600,0.755981,0.388306,0.487092,27.625000,35.497200,9.820239,11.642220,1980.726440,0.755981,-0.620286,1.141771,0.057293,0.000971,0.000244,0.000335,0,1,0,0.023489,0,0.390000,0,15,0,202
7, 101,40690,40655,-9884,0,0,1.409687,-9.718554,0.045704,0.000063,0.002592,0.014231,-62.218647,114.133301,6.387022,0.480526,-10.091043,-6.727362,-0.630867,-2.220409,2.395024,179.563747,144.123139,-8.056341,0.068001,0.306977,0.025248,0.948949,0.068001,0.306977,0.025248,0.948949,1981.213989,80185.210938,-0.282862,0.170499,0.755981,0.487549,0.477326,27.625000,35.497200,9.820367,12.137441,1980.726440,0.755981,-0.621310,1.141333,0.063870,0.000971,0.000244,0.000335,0,1,0,0.027443,0,0.390000,0,15,0,202
8, 101,40769,40762,-9805,0,0,1.418264,-9.725966,0.025231,-0.045518,0.007096,0.027754,-62.145573,114.235603,6.240865,0.480526,-10.091043,-4.805259,0.905409,-1.616628,1.114505,179.583814,143.975702,-7.861494,0.066311,0.308252,0.024643,0.948671,0.066311,0.308252,0.024643,0.948671,1981.158325,80188.281250,0.142596,0.171914,0.755981,0.431885,0.485996,27.625000,35.497200,9.828862,11.187072,1980.726440,0.755981,-0.621456,1.142356,0.062409,0.000971,0.000244,0.000335,0,1,0,0.035324,0,0.390000,0,15,0,202
9, 101,40849,40829,-9725,0,0,1.385650,-9.714667,0.046417,-0.019522,0.019871,0.012061,-62.028648,114.820229,6.737796,1.441578,-10.091043,-5.766310,0.836881,0.724403,0.604471,179.465720,143.938983,-7.779269,0.066511,0.308589,0.024279,0.948557,0.065943,0.308506,0.025419,0.948593,1981.356323,80181.296875,0.751696,0.174325,0.755981,0.629883,0.505527,27.625000,35.492653,9.813100,11.711432,1980.726440,0.755981,-0.620286,1.148202,0.067378,0.000970,0.000244,0.000335,0,1,0,0.013987,0,0.390000,0,15,0,202
10, 101,40924,40895,-9650,0,0,1.380100,-9.713348,0.060793,0.006617,-0.011069,0.010083,-61.400177,114.527916,6.430868,0.961052,-10.571568,-6.727362,-0.141728,0.007089,1.247310,179.653742,143.969856,-7.876178,0.066244,0.308338,0.024107,0.948661,0.066244,0.308338,0.024107,0.948661,1981.287109,80185.867188,0.786170,0.175673,0.755981,0.560669,0.523925,27.625000,35.506287,9.811091,12.567382,1980.726440,0.755981,-0.614002,1.145279,0.064309,0.000970,0.000244,0.000335,0,1,0,0.025724,0,0.390000,0,15,0,202
11, 101,41003,40998,-9571,0,0,1.431478,-9.691375,0.040297,-0.037505,-0.019715,-0.004485,-61.970184,114.264832,6.313943,0.961052,-10.091043,-5.766310,-0.501498,1.850907,1.662560,179.664014,143.937344,-7.959223,0.066898,0.308596,0.024263,0.948528,0.066898,0.308596,0.024263,0.948528,1981.159912,80188.562500,-0.009788,0.176251,0.755981,0.433472,0.518161,27.625000,35.515377,9.796607,11.662037,1980.726440,0.755981,-0.619702,1.142648,0.063139,0.000970,0.000245,0.000335,0,1,0,0.035144,0,0.390000,0,15,0,202
12, 101,41083,41065,-9491,0,0,1.404739,-9.726939,0.022029,-0.036658,0.001277,0.026806,-62.233265,114.630219,5.846244,1.922103,-9.610518,-5.766310,1.906585,-0.120536,2.137240,179.677907,143.919872,-7.859668,0.067608,0.308813,0.023316,0.948430,0.066034,0.308769,0.023890,0.948541,1981.276978,80184.796875,-0.152897,0.177071,0.755981,0.550537,0.527470,27.625000,35.519920,9.827875,11.371318,1980.726440,0.755981,-0.622333,1.146302,0.058462,0.000969,0.000245,0.000335,0,1,0,-0.017902,0,0.390000,0,15,0,202
13, 101,41158,41130,-9416,0,0,1.473730,-9.715559,0.016966,-0.069332,-0.042457,0.025375,-61.955570,114.104065,5.919322,0.480526,-9.129992,-5.285784,-0.720524,0.320705,0.448707,179.830370,143.903712,-8.052882,0.067219,0.308952,0.023158,0.948416,0.067219,0.308952,0.023158,0.948416,1981.257324,80185.820312,0.137796,0.177011,0.755981,0.530884,0.535063,27.625000,35.519920,9.826712,10.560642,1980.726440,0.755981,-0.619556,1.141041,0.059193,0.000969,0.000245,0.000335,0,1,0,0.013456,0,0.390000,0,15,0,202
14, 101,41236,41235,-9338,0,0,1.374082,-9.686699,0.058924,0.076260,-0.005288,-0.017449,-62.277115,114.513306,6.445484,1.922103,-11.052094,-5.766310,-0.856198,0.403446,-1.918583,179.929121,143.967137,-8.374923,0.069630,0.308421,0.023171,0.948415,0.069630,0.308421,0.023171,0.948415,1981.291260,80186.148438,0.290540,0.178674,0.755981,0.564819,0.546996,27.625000,35.524467,9.783849,12.613232,1980.726440,0.755981,-0.622771,1.145133,0.064455,0.000969,0.000245,0.000335,0,1,0,0.032820,0,0.390000,0,15,0,202
15, 101,41317,41300,-9257,0,0,1.446535,-9.725111,0.045225,0.034162,-0.026282,0.031112,-62.072491,114.235603,6.182403,0.961052,-10.091043,-4.805259,-0.538498,0.762651,-0.967375,179.972042,143.998092,-8.514863,0.069567,0.308041,0.024796,0.948502,0.070679,0.308163,0.023173,0.948421,1981.276123,80184.476562,0.191819,0.178640,0.755981,0.549683,0.549559,27.625000,35.515377,9.832207,11.217990,1980.726440,0.755981,-0.620725,1.142356,0.061824,0.000969,0.000245,0.000335,0,1,0,0.015507,0,0.390000,0,15,0,202
16, 101,41397,41371,-9177,0,0,1.408809,-9.710166,0.036250,0.037739,0.026466,0.010792,-62.204033,114.732536,6.065478,1.441578,-11.532620,-4.324733,-0.111699,-1.026854,-0.902274,179.744064,143.943587,-8.373695,0.070114,0.308503,0.024713,0.948314,0.070114,0.308503,0.024713,0.948314,1981.309570,80185.640625,0.376801,0.180291,0.755981,0.583130,0.564724,27.625000,35.524467,9.811899,12.400919,1980.726440,0.755981,-0.622040,1.147325,0.060655,0.000969,0.000245,0.000335,0,1,0,-0.011182,0,0.390000,0,15,0,202
17, 101,41484,41444,-9090,0,0,1.408682,-9.723177,0.020226,-0.006508,0.005025,0.053118,-62.072491,114.951767,6.021631,0.961052,-9.610518,-5.285784,0.506961,-2.040799,0.186534,179.602775,143.903029,-8.042104,0.067744,0.308826,0.025013,0.948373,0.067744,0.308826,0.025013,0.948373,1981.255859,80185.640625,0.133672,0.179817,0.755981,0.529419,0.569843,27.625000,35.524467,9.824712,11.010231,1980.726440,0.755981,-0.620725,1.149518,0.060216,0.000970,0.000245,0.000335,0,1,0,0.011753,0,0.390000,0,15,0,202
18, 101,41553,41521,-9021,0,0,1.416138,-9.774144,0.055342,0.004878,0.008795,0.075351,-62.423271,114.513306,5.247004,1.441578,-10.571568,-5.766310,0.596438,0.447363,-1.072004,179.571971,143.833566,-8.044357,0.067499,0.309404,0.025003,0.948203,0.067834,0.309382,0.025314,0.948177,1981.156250,80189.585938,-0.218361,0.180288,0.755981,0.429810,0.562409,27.625000,35.515377,9.876355,12.127924,1980.726440,0.755981,-0.624233,1.145133,0.052470,0.000970,0.000246,0.000335,0,1,0,0.024556,0,0.390000,0,15,0,202
19, 101,41628,41599,-8946,0,0,1.392196,-9.698087,0.030724,-0.020580,0.027538,-0.003508,-62.087105,114.381752,5.334697,0.961052,-9.610518,-5.766310,1.960964,-1.342348,1.291257,179.528271,143.808950,-7.888623,0.066660,0.309595,0.025269,0.948193,0.066660,0.309595,0.025269,0.948193,1981.064453,80189.773438,-0.874424,0.180759,0.755981,0.338013,0.537577,27.625000,35.510834,9.797553,11.248822,1980.726440,0.755981,-0.620871,1.143818,0.053347,0.000971,0.000246,0.000335,0,1,0,0.006849,0,0.390000,0,15,0,202
20, 101,41708,41672,-8866,0,0,1.405639,-9.676271,0.043266,-0.019560,-0.024273,0.017677,-62.101723,114.001755,5.875475,1.922103,-9.610518,-5.766310,-0.014561,-1.133958,0.025635,179.863674,143.817747,-8.062784,0.067196,0.309681,0.022959,0.948185,0.067196,0.309681,0.022959,0.948185,1981.127563,80186.890625,-0.705893,0.178303,0.755981,0.401123,0.513195,27.625000,35.506287,9.777930,11.371318,1980.726440,0.755981,-0.621017,1.140018,0.058755,0.000972,0.000246,0.000335,0,1,0,0.015510,0,0.390000,0,15,0,202
21, 101,41787,41781,-8787,0,0,1.424134,-9.706474,0.044822,-0.005317,-0.008558,0.009490,-61.867874,114.410995,5.831628,1.441578,-9.129992,-5.285784,0.477220,-1.100134,0.203973,179.702550,143.736386,-8.116339,0.068061,0.310248,0.024484,0.947900,0.068061,0.310248,0.024484,0.947900,1981.166504,80187.218750,-0.068676,0.176884,0.755981,0.440063,0.504037,27.625000,35.510834,9.810494,10.647742,1980.726440,0.755981,-0.618679,1.144110,0.058316,0.000971,0.000246,0.000335,0,1,0,0.049269,0,0.390000,0,15,0,202
22, 101,41866,41845,-8708,0,0,1.432336,-9.709394,0.020828,-0.017977,0.021768,0.013456,-61.780178,114.966377,6.328559,0.961052,-9.610518,-5.766310,0.694093,-0.777500,-1.970961,179.645190,143.749377,-8.172490,0.068683,0.310094,0.025103,0.947889,0.068683,0.310094,0.025103,0.947889,1981.079468,80189.078125,-0.007458,0.176694,0.755981,0.353027,0.488186,27.625000,35.515377,9.814496,11.248822,1980.726440,0.755981,-0.617802,1.149664,0.063286,0.000970,0.000246,0.000335,0,1,0,-0.005839,0,0.390000,0,15,0,202
23, 101,41944,41913,-8630,0,0,1.414465,-9.749171,0.026195,-0.019122,0.018521,-0.036285,-62.072491,114.220985,5.743935,0.480526,-9.610518,-5.766310,-1.029241,0.650488,-1.962893,179.661514,143.748175,-8.035122,0.067502,0.310144,0.024597,0.947971,0.067502,0.310144,0.024597,0.947971,1981.174805,80187.500000,-0.008367,0.175539,0.755981,0.448364,0.479758,27.750000,35.529011,9.851281,11.217989,1980.726440,0.755981,-0.620725,1.142210,0.057439,0.000970,0.000246,0.000335,0,1,0,-0.008287,0,0.390000,0,15,0,202
24, 101,42024,42016,-8550,0,0,1.404415,-9.686789,0.055353,-0.000684,-0.006240,-0.012779,-61.750950,114.674065,5.933938,1.441578,-9.129992,-5.766310,0.187650,0.279010,2.274098,179.631762,143.739965,-8.006774,0.067465,0.310182,0.025033,0.947950,0.067346,0.310200,0.024771,0.947959,1981.138184,80188.015625,0.222341,0.174622,0.755981,0.411743,0.478858,27.750000,35.529011,9.788223,10.894275,1980.726440,0.755981,-0.617509,1.146741,0.059339,0.000970,0.000246,0.000335,0,1,0,0.031825,0,0.390000,0,15,0,202
25, 101,42104,42082,-8470,0,0,1.382594,-9.679968,0.037463,0.010652,0.021991,-0.022751,-62.306343,114.805618,5.685472,1.441578,-9.610518,-5.285784,-2.295438,2.588666,-0.952349,179.644794,143.793391,-8.045258,0.067638,0.309758,0.024737,0.948084,0.067638,0.309758,0.024737,0.948084,1981.147461,80185.453125,0.113572,0.173935,0.755981,0.421021,0.469298,27.750000,35.529011,9.778279,11.062536,1980.726440,0.755981,-0.623063,1.148056,0.056855,0.000969,0.000246,0.000335,0,1,0,0.008455,0,0.390000,0,15,0,202
26, 101,42180,42149,-8394,0,0,1.447977,-9.749634,0.055233,-0.043590,-0.003594,0.046613,-62.043262,114.294067,5.568547,0.480526,-9.610518,-4.805259,2.803907,-3.082766,1.619063,179.691062,143.683602,-8.133225,0.068222,0.310674,0.024656,0.947744,0.068222,0.310674,0.024656,0.947744,1981.028564,80188.851562,-0.402650,0.171765,0.755981,0.302124,0.451606,27.750000,35.533554,9.856726,10.755625,1980.726440,0.755981,-0.620433,1.142941,0.055685,0.000969,0.000246,0.000335,0,1,0,0.050279,0,0.390000,0,15,0,202
27, 101,42263,42252,-8311,0,0,1.389933,-9.723132,0.037150,-0.006053,0.023159,0.021017,-61.283249,115.054085,6.226250,0.961052,-9.610518,-5.766310,0.071194,0.643722,1.952167,179.569689,143.614631,-7.931836,0.066807,0.311295,0.024061,0.947657,0.066875,0.311217,0.025152,0.947649,1980.960938,80188.671875,-0.787241,0.172143,0.755981,0.234497,0.409555,27.750000,35.538097,9.822046,11.248822,1980.726440,0.755981,-0.612832,1.150541,0.062262,0.000969,0.000246,0.000335,0,1,0,-0.008815,0,0.390000,0,15,0,202
28, 101,42343,42319,-8231,0,0,1.414475,-9.715015,0.043467,-0.007700,-0.010785,0.016534,-61.473255,114.235603,5.773166,1.441578,-9.610518,-5.766310,-0.338818,3.047040,-1.724754,179.715090,143.684299,-8.041649,0.067400,0.310702,0.024208,0.947806,0.067400,0.310702,0.024208,0.947806,1981.053467,80186.296875,-0.474647,0.170770,0.755981,0.327026,0.395056,27.750000,35.533554,9.817543,11.300023,1980.726440,0.755981,-0.614733,1.142356,0.057732,0.000969,0.000246,0.000335,0,1,0,0.021239,0,0.390000,0,15,0,202
29, 101,42418,42391,-8156,0,0,1.389332,-9.692665,0.031566,-0.004981,0.005427,-0.009221,-61.356331,114.367142,6.577024,1.441578,-9.610518,-5.285784,-0.227033,1.819203,1.832382,179.717973,143.785058,-7.985742,0.066947,0.309882,0.023975,0.948112,0.066947,0.309882,0.023975,0.948112,1981.059204,80187.976562,0.146763,0.170997,0.755981,0.332764,0.391658,27.750000,35.542645,9.791781,11.062536,1980.726440,0.755981,-0.613563,1.143671,0.065770,0.000969,0.000247,0.000335,0,1,0,0.015797,0,0.390000,0,15,0,202
30, 101,42505,42469,-8069,0,0,1.429414,-9.728466,0.075548,-0.007933,-0.013354,0.028179,-61.575562,114.937149,6.109325,0.480526,-10.091043,-4.805259,0.505043,-0.400187,0.562014,179.677552,143.774253,-7.930533,0.067131,0.309928,0.024634,0.948067,0.066597,0.309960,0.024167,0.948106,1981.045654,80190.718750,0.459293,0.171049,0.755981,0.319214,0.398747,27.750000,35.538097,9.833209,11.187072,1980.726440,0.755981,-0.615756,1.149372,0.061093,0.000970,0.000247,0.000335,0,1,0,0.029342,0,0.390000,0,15,0,202
31, 101,42573,42545,-8001,0,0,1.397218,-9.667126,0.030709,-0.021317,0.009242,-0.033404,-61.297863,114.118683,6.255481,0.961052,-10.091043,-5.285784,-0.515011,1.264263,0.715496,179.631011,143.796738,-7.937350,0.066783,0.309745,0.024557,0.948153,0.066783,0.309745,0.024557,0.948153,1981.025635,80189.039062,0.283604,0.171605,0.755981,0.299194,0.391554,27.750000,35.529011,9.767624,11.432073,1980.726440,0.755981,-0.612979,1.141187,0.062555,0.000971,0.000247,0.000335,0,1,0,0.032005,0,0.390000,0,15,0,202
32, 101,42650,42620,-7924,0,0,1.427298,-9.689662,0.049122,0.004465,-0.007817,-0.006662,-61.531715,114.264832,6.445484,2.402629,-9.610518,-5.766310,0.608210,-0.192134,1.016328,179.708424,143.716223,-8.200915,0.068741,0.310400,0.024677,0.947796,0.068741,0.310400,0.024677,0.947796,1981.123779,80187.500000,0.351244,0.171873,0.755981,0.397339,0.401886,27.750000,35.529011,9.794342,11.462330,1980.726440,0.755981,-0.615317,1.142648,0.064455,0.000971,0.000247,0.000335,0,1,0,-0.003235,0,0.390000,0,15,0,202
33, 101,42725,42696,-7849,0,0,1.431313,-9.711802,0.028757,-0.017336,0.001788,0.015734,-61.882488,114.294067,5.860859,0.961052,-10.091043,-5.766310,0.642647,-2.888473,1.839814,179.706225,143.558364,-8.134122,0.068894,0.311744,0.024280,0.947354,0.068167,0.311719,0.024605,0.947407,1981.096191,80187.500000,0.142994,0.170916,0.755981,0.369751,0.404249,27.750000,35.529011,9.816750,11.662037,1980.726440,0.755981,-0.618825,1.142941,0.058609,0.000972,0.000247,0.000335,0,1,0,0.013763,0,0.390000,0,15,0,202
34, 101,42804,42801,-7770,0,0,1.415604,-9.754485,0.026912,0.009337,0.004839,0.055700,-61.458633,114.922539,5.890091,0.480526,-9.129992,-5.766310,0.398637,-0.538061,1.002463,179.817420,143.498914,-8.209069,0.068001,0.312266,0.023849,0.947258,0.068473,0.312261,0.023925,0.947223,1981.072510,80188.851562,-0.045758,0.170543,0.755981,0.346069,0.408501,27.750000,35.533554,9.856706,10.809162,1980.726440,0.755981,-0.614586,1.149225,0.058901,0.000971,0.000247,0.000335,0,1,0,0.040125,0,0.390000,0,15,0,202
35, 101,42884,42865,-7690,0,0,1.426037,-9.691089,0.031182,-0.014071,-0.005496,-0.005515,-61.619408,114.557144,6.664718,1.441578,-10.571568,-5.766310,0.123038,-1.152463,-1.138576,179.744023,143.436718,-8.133213,0.068035,0.312747,0.024361,0.947083,0.068035,0.312747,0.024361,0.947083,1981.131836,80186.953125,0.049004,0.172791,0.755981,0.405396,0.413748,27.750000,35.542645,9.795496,12.127924,1980.726440,0.755981,-0.616194,1.145571,0.066647,0.000971,0.000247,0.000335,0,1,0,0.013255,0,0.390000,0,15,0,202
36, 101,42960,42932,-7614,0,0,1.442462,-9.791876,0.055600,0.008503,-0.016425,0.096691,-61.750950,114.717926,6.825490,0.480526,-9.129992,-6.246836,0.342627,-2.199001,-1.765364,179.730486,143.340549,-8.201899,0.068491,0.313458,0.025545,0.946784,0.068623,0.313519,0.024717,0.946776,1981.083252,80188.117188,-0.103297,0.172235,0.755981,0.356812,0.411951,27.750000,35.551731,9.897708,11.072968,1980.726440,0.755981,-0.617509,1.147179,0.068255,0.000970,0.000247,0.000335,0,1,0,-0.013618,0,0.390000,0,15,0,202
37, 101,43040,43034,-7534,0,0,1.385566,-9.699258,0.022156,0.042746,0.049529,-0.003469,-62.174805,114.805618,6.577024,2.402629,-10.571568,-5.766310,-0.584639,-2.826987,-0.460739,179.735103,143.293926,-8.345058,0.067212,0.313984,0.023561,0.946753,0.069785,0.313876,0.025098,0.946563,1981.130127,80186.906250,0.008410,0.173365,0.755981,0.403687,0.417238,27.750000,35.556278,9.797750,12.279292,1980.726440,0.755981,-0.621748,1.148056,0.065770,0.000970,0.000247,0.000335,0,1,0,0.032020,0,0.390000,0,15,0,202
38, 101,43119,43100,-7455,0,0,1.382908,-9.820164,0.064241,0.053592,-0.019691,0.116102,-61.560947,114.498688,6.255481,0.480526,-9.610518,-5.766310,-0.649071,-0.541547,-1.169431,179.881460,143.375137,-8.125783,0.067587,0.313339,0.023241,0.946948,0.067587,0.313339,0.023241,0.946948,1981.143433,80186.585938,0.212580,0.173933,0.755981,0.416992,0.422369,27.750000,35.551731,9.917267,11.217989,1980.726440,0.755981,-0.615609,1.144987,0.062555,0.000969,0.000247,0.000335,0,1,0,0.035903,0,0.390000,0,15,0,202
39, 101,43195,43167,-7379,0,0,1.375228,-9.709870,0.054050,-0.006594,-0.052384,0.005782,-61.765564,114.630219,6.123940,1.441578,-10.571568,-6.246836,-0.738613,-0.137609,0.248522,179.884097,143.402089,-7.778805,0.064717,0.313187,0.022255,0.947222,0.064717,0.313187,0.022255,0.947222,1981.077393,80188.406250,0.096261,0.177115,0.755981,0.350952,0.419086,27.750000,35.569912,9.806924,12.363623,1980.726440,0.755981,-0.617656,1.146302,0.061239,0.000969,0.000248,0.000335,0,1,0,0.029665,0,0.390000,0,15,0,202
40, 101,43275,43271,-7299,0,0,1.444198,-9.729927,0.017257,-0.085915,-0.078627,0.034849,-61.940948,114.791000,6.708565,1.441578,-9.610518,-6.246836,-0.886424,0.553772,-1.164322,179.962371,143.482836,-7.745556,0.069091,0.312418,0.023651,0.947133,0.064243,0.312570,0.021472,0.947477,1980.879395,80189.609375,-1.056297,0.174698,0.755981,0.152954,0.372743,27.750000,35.565365,9.836538,11.552626,1980.726440,0.755981,-0.619410,1.147910,0.067086,0.000969,0.000248,0.000335,0,1,0,0.040951,0,0.390000,0,15,0,202
41, 101,43354,43336,-7220,0,0,1.420063,-9.717035,0.033431,0.023616,-0.008317,0.019277,-61.107861,114.454842,6.343175,1.441578,-9.610518,-5.766310,0.250066,-0.117646,-1.663430,179.907866,143.454286,-8.341375,0.069312,0.312657,0.023565,0.947041,0.069312,0.312657,0.023565,0.947041,1980.923096,80189.609375,-1.178641,0.174435,0.755981,0.196655,0.348506,27.750000,35.565365,9.820309,11.300023,1980.726440,0.755981,-0.611079,1.144548,0.063432,0.000969,0.000248,0.000335,0,1,0,0.007353,0,0.390000,0,15,0,202
42, 101,43433,43408,-7141,0,0,1.384505,-9.625672,0.018596,0.002667,0.023199,-0.076278,-61.502487,114.571762,6.503946,1.441578,-9.610518,-4.805259,-1.293452,-1.958890,0.180135,179.738614,143.471156,-8.123380,0.067975,0.312461,0.024359,0.947182,0.067975,0.312461,0.024359,0.947182,1981.084473,80183.796875,-0.330730,0.174045,0.755981,0.358032,0.343541,27.750000,35.569912,9.724750,10.841158,1980.726440,0.755981,-0.615025,1.145718,0.065039,0.000969,0.000248,0.000335,0,1,0,-0.066285,0,0.390000,0,15,0,202
43, 101,43519,43485,-7055,0,0,1.425462,-9.760747,0.034501,-0.031010,-0.043418,0.113920,-61.590176,114.440224,6.533177,0.961052,-10.091043,-4.805259,0.260227,-0.273185,1.330221,179.796479,143.376872,-8.091253,0.069485,0.313181,0.025273,0.946811,0.067535,0.313282,0.023848,0.946956,1981.131104,80188.039062,0.916051,0.170246,0.755981,0.404663,0.364987,27.750000,35.578999,9.864346,11.217990,1980.726440,0.755981,-0.615902,1.144402,0.065332,0.000970,0.000248,0.000335,0,1,0,0.039430,0,0.390000,0,15,0,202
44, 101,43588,43560,-6986,0,0,1.383965,-9.751225,0.072698,0.070318,0.015443,0.047951,-61.940948,114.410995,6.767027,1.922103,-9.610518,-4.805259,-0.468823,2.122702,-0.985253,179.687059,143.429738,-8.273492,0.069349,0.312740,0.025219,0.946968,0.069349,0.312740,0.025219,0.946968,1981.191650,80185.515625,1.260869,0.175771,0.755981,0.465210,0.387632,27.750000,35.565365,9.849215,10.915449,1980.726440,0.755981,-0.619410,1.144110,0.067670,0.000971,0.000248,0.000335,0,1,0,0.064879,0,0.390000,0,15,0,202
45, 101,43666,43635,-6908,0,0,1.396441,-9.851088,0.026454,0.010299,0.031001,0.148553,-62.057877,114.513306,6.869336,0.961052,-10.571568,-5.766310,1.019117,2.006040,1.297356,179.675872,143.513572,-8.029306,0.067376,0.312094,0.024597,0.947340,0.067376,0.312094,0.024597,0.947340,1981.137207,80188.406250,0.832854,0.179908,0.755981,0.410767,0.405336,27.750000,35.569912,9.949607,12.080233,1980.726440,0.755981,-0.617948,1.141479,0.070740,0.000971,0.000248,0.000335,0,1,0,-0.039764,0,0.390000,0,15,0,202
46, 101,43741,43712,-6833,0,0,1.415749,-9.698000,0.053679,-0.026123,0.002739,-0.107356,-61.560947,114.308678,6.460100,1.922103,-9.129992,-6.246836,-0.312753,1.619128,0.604309,179.713629,143.713232,-7.963586,0.067873,0.310516,0.023495,0.947851,0.066763,0.310479,0.023992,0.947929,1981.206299,80185.664062,0.407435,0.182821,0.755981,0.479858,0.421470,27.750000,35.574455,9.800941,11.228276,1980.726440,0.755981,-0.615609,1.143087,0.064601,0.000972,0.000249,0.000335,0,1,0,-0.132856,0,0.390000,0,15,0,202
47, 101,43820,43816,-6754,0,0,1.365010,-9.564025,0.076430,0.039200,-0.041457,-0.139923,-61.502487,114.542534,6.767027,1.922103,-9.610518,-5.766310,0.100030,-1.700038,0.430376,179.854180,143.665407,-8.077796,0.066188,0.310760,0.025565,0.947837,0.067318,0.310933,0.023167,0.947762,1981.135254,80187.523438,0.108259,0.175518,0.755981,0.408813,0.436653,27.750000,35.578999,9.661246,11.371318,1980.726440,0.755981,-0.615025,1.145425,0.067670,0.000971,0.000248,0.000335,0,1,0,0.031326,0,0.390000,0,15,0,202
48, 101,43900,43881,-6674,0,0,1.429026,-9.697377,0.025181,-0.060466,0.016729,0.000935,-61.385559,114.279449,6.767027,1.441578,-10.571568,-6.246836,0.706290,0.070880,-0.778186,179.459409,143.654929,-7.835781,0.066386,0.310841,0.025781,0.947790,0.066386,0.310841,0.025781,0.947790,1981.169312,80185.765625,-0.018480,0.172561,0.755981,0.442871,0.440841,27.750000,35.597176,9.802136,12.363623,1980.726440,0.755981,-0.613856,1.142794,0.067670,0.000971,0.000248,0.000335,0,1,0,0.071728,0,0.390000,0,15,0,202
49, 101,43977,43948,-6597,0,0,1.415982,-9.739748,0.044401,-0.011461,0.019565,0.041213,-61.370945,114.381752,6.854721,2.402629,-9.610518,-5.766310,0.755726,1.571857,-0.353737,179.516045,143.644178,-7.998702,0.067578,0.310926,0.025761,0.947678,0.067578,0.310926,0.025761,0.947678,1981.108154,80188.140625,-0.150179,0.174026,0.755981,0.381714,0.439896,27.750000,35.601723,9.842239,11.462330,1980.726440,0.755981,-0.613709,1.143818,0.068547,0.000970,0.000248,0.000335,0,1,0,0.030247,0,0.390000,0,15,0,202
50, 101,44056,44050,-6518,0,0,1.395923,-9.718616,0.026299,-0.007986,0.044126,0.017288,-61.765564,114.206375,6.460100,0.961052,-10.091043,-4.324733,-1.117814,3.308067,-1.146573,179.518258,143.812898,-8.003708,0.067360,0.309676,0.023630,0.948159,0.067640,0.309531,0.025660,0.948134,1981.026367,80190.000000,-0.412300,0.173775,0.755981,0.299927,0.428964,27.750000,35.606266,9.818390,11.020712,1980.726440,0.755981,-0.617656,1.142064,0.064601,0.000970,0.000249,0.000335,0,1,0,0.025032,0,0.390000,0,15,0,202
51, 101,44137,44115,-6437,0,0,1.397718,-9.702039,0.021976,0.005570,0.016710,0.001211,-61.721718,113.943291,6.284712,1.922103,-10.571568,-4.805259,0.350582,0.526737,-1.313189,179.767055,143.868304,-8.144409,0.068141,0.309189,0.023950,0.948254,0.068141,0.309189,0.023950,0.948254,1981.086182,80186.421875,-0.450070,0.173589,0.755981,0.359741,0.418519,27.750000,35.606266,9.802227,11.770432,1980.726440,0.755981,-0.617217,1.139433,0.062847,0.000969,0.000249,0.000335,0,1,0,0.049145,0,0.390000,0,15,0,202
52, 101,44213,44182,-6361,0,0,1.410001,-9.729765,0.071066,0.005518,-0.056521,-0.003202,-61.560947,114.542534,6.591640,1.441578,-9.610518,-5.766310,-0.196644,-2.859352,-0.533640,179.802981,143.721605,-7.978300,0.066644,0.310458,0.023288,0.947962,0.066644,0.310458,0.023288,0.947962,1981.120361,80190.289062,0.361109,0.175886,0.755981,0.393921,0.439411,27.750000,35.624443,9.831657,11.300023,1980.726440,0.755981,-0.615609,1.145425,0.065916,0.000969,0.000249,0.000335,0,1,0,0.007267,0,0.390000,0,15,0,202
53, 101,44294,44285,-6280,0,0,1.378772,-9.705657,0.039882,0.015255,-0.012314,0.002163,-62.101723,114.294067,6.313943,1.441578,-12.013146,-5.766310,1.313641,0.270751,-0.306092,179.848129,143.619317,-8.024274,0.066396,0.311267,0.023852,0.947700,0.066884,0.311321,0.023098,0.947667,1981.127930,80187.765625,0.458076,0.175984,0.755981,0.401489,0.441652,27.750000,35.610809,9.803182,13.403140,1980.726440,0.755981,-0.621017,1.142941,0.063139,0.000969,0.000249,0.000335,0,1,0,0.001951,0,0.390000,0,15,0,202
54, 101,44374,44351,-6200,0,0,1.396375,-9.719275,0.045724,-0.001606,-0.005005,0.018177,-61.940948,114.279449,6.679334,1.922103,-9.610518,-5.285784,0.475416,-0.831860,-0.230924,179.690925,143.624972,-7.967612,0.066843,0.311195,0.024241,0.947683,0.066843,0.311195,0.024241,0.947683,1981.131104,80187.914062,-0.103255,0.175657,0.755981,0.404663,0.444787,27.750000,35.619900,9.819179,11.135351,1980.726440,0.755981,-0.619410,1.142794,0.066793,0.000969,0.000249,0.000335,0,1,0,0.025101,0,0.390000,0,15,0,202
55, 101,44450,44424,-6124,0,0,1.395345,-9.734579,0.039311,-0.007686,-0.005737,0.033148,-61.707104,114.060211,6.343175,0.961052,-10.091043,-5.766310,0.979339,-0.232099,0.780755,179.715623,143.553583,-7.932339,0.066472,0.311807,0.023981,0.947514,0.066472,0.311807,0.023981,0.947514,1981.030518,80189.773438,-0.357569,0.175438,0.755981,0.304077,0.432813,27.750000,35.624443,9.834153,11.662037,1980.726440,0.755981,-0.617071,1.140602,0.063432,0.000969,0.000249,0.000335,0,1,0,0.016171,0,0.390000,0,15,0,202
56, 101,44537,44501,-6037,0,0,1.392842,-9.726420,0.036227,0.000801,-0.019207,0.004257,-61.531715,114.162529,6.752411,0.480526,-9.610518,-5.766310,0.114970,-0.260059,-0.442923,179.652348,143.539089,-7.927992,0.066846,0.311831,0.025348,0.947444,0.066606,0.311891,0.024501,0.947464,1980.955566,80191.960938,-0.665103,0.175638,0.755981,0.229126,0.425136,27.750000,35.633533,9.825710,11.217989,1980.726440,0.755981,-0.615317,1.141625,0.067524,0.000970,0.000249,0.000335,0,1,0,0.029979,0,0.390000,0,15,0,202
57, 101,44606,44577,-5968,0,0,1.406358,-9.779140,0.028969,-0.010884,0.020109,0.078764,-61.750950,114.104065,6.211634,2.883155,-10.091043,-5.285784,-1.845449,-3.017560,0.157659,179.627459,143.448835,-7.980590,0.067094,0.312611,0.024901,0.947181,0.067094,0.312611,0.024901,0.947181,1980.996338,80187.914062,-0.620077,0.174381,0.755981,0.269897,0.402535,27.750000,35.619900,9.879790,11.750798,1980.726440,0.755981,-0.617509,1.141041,0.062116,0.000971,0.000249,0.000335,0,1,0,0.024035,0,0.390000,0,15,0,202
58, 101,44685,44652,-5889,0,0,1.417562,-9.697832,0.059725,0.014711,-0.013741,0.000051,-61.911720,114.001755,6.650102,0.961052,-9.610518,-5.766310,1.233610,-2.777028,0.868708,179.708943,143.295962,-8.163187,0.068354,0.313883,0.024815,0.946673,0.068354,0.313883,0.024815,0.946673,1981.087402,80187.585938,-0.159297,0.176572,0.755981,0.360962,0.403223,27.750000,35.615353,9.801071,11.248822,1980.726440,0.755981,-0.619117,1.140018,0.066501,0.000972,0.000249,0.000335,0,1,0,-0.020255,0,0.390000,0,15,0,202
59, 101,44761,44749,-5813,0,0,1.538964,0.295839,-9.586228,-1.508150,1.438667,-0.503470,-62.130959,114.367142,6.167788,1.541347,0.378157,-9.664531,-0.009918,-0.021136,0.005675,74.124949,3.052458,127.155269,0.340587,0.287124,-0.530079,0.721510,0.340587,0.287124,-0.530079,0.721510,1980.543335,80186.046875,-1.306307,0.061387,0.755981,-0.183105,0.255606,27.750000,35.615353,9.713481,9.793973,1980.726440,0.755981,-0.621310,1.143671,0.061678,0.000967,0.000249,0.000335,0,1,0,-9.008219,0,0.390000,0,15,0,202
60, 101,44842,44836,-5732,0,0,1.543552,0.365471,-9.663897,-1.736358,1.650797,-0.305372,-62.408649,113.914062,6.898568,1.560494,0.382943,-9.664531,-0.003924,-0.001700,0.001300,74.125707,3.052072,127.155432,0.374561,0.268757,-0.605082,0.649114,0.340586,0.287123,-0.530085,0.721506,1980.590332,80186.046875,-0.391335,-0.086747,0.755981,-0.136108,0.094315,27.750000,35.615353,9.793213,9.797191,1980.726440,0.755981,-0.624086,1.139141,0.068986,0.000961,0.000249,0.000335,0,1,0,-0.305934,0,0.390000,0,15,0,202
61, 101,44922,44919,-5652,0,0,1.509220,0.327010,-9.659872,-0.124940,0.171347,-0.020773,-61.897106,113.724052,6.840106,1.507839,0.325502,-9.659744,0.012021,-0.003154,-0.001072,82.878779,-5.990592,125.317401,0.374559,0.268759,-0.605081,0.649116,0.374559,0.268759,-0.605081,0.649116,1980.590332,80186.046875,-0.052231,-0.098786,0.755981,-0.136108,-0.001084,27.750000,35.615353,9.782525,9.782136,1980.726440,0.755981,-0.618971,1.137241,0.068401,0.000958,0.000250,0.000335,0,1,0,-0.019813,0,0.390000,0,15,0,202
62, 101,45004,45004,-5570,0,0,1.463863,0.278847,-9.668457,0.057921,0.018582,-0.018566,-62.087105,114.294067,6.591640,1.459971,0.272847,-9.669318,-0.006872,-0.000524,-0.000100,83.819289,-6.670128,125.237652,0.376188,0.268235,-0.612031,0.641833,0.376188,0.268235,-0.612031,0.641833,1980.607056,80186.046875,0.016919,-0.101958,0.755981,-0.119385,-0.057857,27.750000,35.615353,9.782622,9.782723,1980.726440,0.755981,-0.620871,1.142941,0.065916,0.000956,0.000250,0.000335,0,1,0,-0.018711,0,0.390000,0,15,0,202
63, 101,45084,45071,-5490,0,0,1.473669,0.331791,-9.669316,-0.002022,0.003571,-0.013213,-62.262493,114.264832,6.299327,1.469545,0.335075,-9.669318,0.006719,-0.000704,0.000540,83.971821,-6.599271,125.245356,0.375434,0.269113,-0.612713,0.641257,0.375434,0.269113,-0.612713,0.641257,1980.607056,80186.046875,0.037557,-0.103466,0.755981,-0.119385,-0.082047,27.750000,35.615353,9.786596,9.786090,1980.726440,0.755981,-0.622625,1.142648,0.062993,0.000956,0.000251,0.000335,0,1,0,-0.013643,0,0.390000,0,15,0,202
64, 101,45165,45157,-5409,0,0,1.495714,0.308913,-9.669318,0.003089,-0.015245,-0.011819,-62.189419,114.630219,6.693949,1.498266,0.306355,-9.669318,0.015505,-0.000165,-0.000443,83.971418,-6.598603,125.245329,0.375529,0.268940,-0.612221,0.641744,0.375431,0.269116,-0.612709,0.641261,1980.615967,80186.046875,0.025850,-0.104691,0.755981,-0.110474,-0.099774,27.750000,35.615353,9.789193,9.789503,1980.726440,0.755981,-0.621894,1.146302,0.066939,0.000955,0.000252,0.000335,0,1,0,-0.012603,0,0.390000,0,15,0,202
65, 101,45245,45242,-5329,0,0,1.547680,0.377581,-9.668761,-0.085280,-0.003305,-0.002248,-61.560947,113.899445,6.898568,1.574854,0.378157,-9.664531,-0.012415,0.001506,0.001375,83.891177,-6.582289,125.247091,0.375528,0.268940,-0.612220,0.641745,0.375528,0.268940,-0.612220,0.641745,1980.620605,80186.046875,0.029069,-0.105259,0.755981,-0.105835,-0.107222,27.750000,35.615353,9.799124,9.799302,1980.726440,0.755981,-0.615609,1.138994,0.068986,0.000955,0.000253,0.000335,0,1,0,-0.002243,0,0.390000,0,15,0,202
66, 101,45329,45309,-5245,0,0,1.518161,0.382511,-9.668898,0.008165,0.029045,-0.005214,-61.487873,114.162529,6.416252,1.512626,0.382943,-9.669318,0.003227,-0.000764,-0.001361,83.786470,-7.089415,125.192095,0.378610,0.265890,-0.612862,0.640592,0.378610,0.265890,-0.612862,0.640592,1980.610962,80186.046875,-0.021882,-0.105339,0.755981,-0.115479,-0.111578,27.750000,35.615353,9.794830,9.794407,1980.726440,0.755981,-0.614879,1.141625,0.064163,0.000955,0.000254,0.000335,0,1,0,-0.001718,0,0.390000,0,15,0,202
67, 101,45413,45413,-5161,0,0,1.508315,0.392087,-9.660603,-0.035809,0.035653,-0.015632,-61.721718,114.337906,6.664718,1.507839,0.397304,-9.659744,0.002788,-0.002061,-0.001602,83.890221,-6.812862,125.221983,0.376823,0.267708,-0.612773,0.640972,0.376823,0.267708,-0.612773,0.640972,1980.561890,80186.046875,-0.132748,-0.106051,0.755981,-0.164551,-0.127884,27.750000,35.615353,9.785499,9.784789,1980.726440,0.755981,-0.617217,1.143379,0.066647,0.000955,0.000255,0.000335,0,1,0,-0.013726,0,0.390000,0,15,0,202
68, 101,45499,45497,-5075,0,0,1.479911,0.331359,-9.676234,0.031066,-0.030518,-0.006739,-62.014030,114.557144,6.240865,1.483905,0.311141,-9.669318,0.000094,-0.002648,-0.000001,84.213377,-6.809915,125.222270,0.376050,0.268786,-0.614571,0.639252,0.376050,0.268786,-0.614571,0.639252,1980.511353,80186.046875,-0.184633,-0.106879,0.755981,-0.215088,-0.150024,27.750000,35.615353,9.794357,9.787466,1980.726440,0.755981,-0.620140,1.145571,0.062409,0.000956,0.000256,0.000335,0,1,0,0.009354,0,0.390000,0,15,0,202
69, 101,45580,45572,-4994,0,0,1.465243,0.329935,-9.678688,0.040912,-0.019298,-0.006576,-62.364803,113.373276,6.387022,1.464758,0.330289,-9.678891,-0.002519,-0.000579,0.002034,84.213473,-6.809925,125.222352,0.376050,0.268786,-0.614572,0.639251,0.376050,0.268786,-0.614572,0.639251,1980.511353,80186.046875,-0.197942,-0.107781,0.755981,-0.215088,-0.176105,27.750000,35.615353,9.794529,9.794669,1980.726440,0.755981,-0.623648,1.133733,0.063870,0.000956,0.000256,0.000335,0,1,0,-0.006942,0,0.390000,0,15,0,202
70, 101,45661,45658,-4913,0,0,1.499443,0.312280,-9.678052,0.038722,-0.031168,-0.002629,-61.765564,114.177147,6.971645,1.498266,0.306355,-9.678891,-0.000123,-0.001585,0.001689,84.060900,-6.828266,125.220604,0.376509,0.268186,-0.613765,0.640008,0.376509,0.268186,-0.613765,0.640008,1980.535400,80186.046875,0.050090,-0.108341,0.755981,-0.191040,-0.186889,27.750000,35.615353,9.798497,9.798959,1980.726440,0.755981,-0.617656,1.141771,0.069716,0.000955,0.000257,0.000335,0,1,0,-0.003740,0,0.390000,0,15,0,202
71, 101,45742,45725,-4832,0,0,1.528995,0.310846,-9.651798,-0.016241,-0.009929,-0.016580,-61.867874,114.279449,6.810874,1.522200,0.296781,-9.650170,0.009891,-0.000686,0.000274,83.816175,-6.823400,125.221123,0.377053,0.267407,-0.612385,0.641334,0.377053,0.267407,-0.612385,0.641334,1980.541992,80186.046875,0.024842,-0.108553,0.755981,-0.184448,-0.190613,27.750000,35.615353,9.777099,9.773993,1980.726440,0.755981,-0.618679,1.142794,0.068109,0.000955,0.000258,0.000335,0,1,0,-0.015547,0,0.390000,0,15,0,202
72, 101,45821,45813,-4753,0,0,1.539679,0.423218,-9.667608,-0.076409,0.041987,-0.002798,-61.327099,114.045593,6.927799,1.541347,0.435598,-9.669318,-0.005966,0.001900,-0.001501,83.816038,-6.823240,125.221068,0.378785,0.265984,-0.614554,0.638825,0.377053,0.267408,-0.612384,0.641335,1980.573486,80186.046875,0.069967,-0.109546,0.755981,-0.152954,-0.187374,27.750000,35.615353,9.798591,9.801082,1980.726440,0.755981,-0.613271,1.140456,0.069278,0.000955,0.000259,0.000335,0,1,0,-0.008934,0,0.390000,0,15,0,202
73, 101,45901,45898,-4673,0,0,1.510765,0.289803,-9.672666,0.117660,-0.049845,-0.007608,-61.370945,114.425613,6.854721,1.507839,0.268060,-9.674106,-0.001165,-0.000302,-0.002281,84.031619,-7.222822,125.177970,0.378785,0.265986,-0.614552,0.638826,0.378785,0.265986,-0.614552,0.638826,1980.573486,80186.046875,0.050756,-0.109472,0.755981,-0.152954,-0.178805,27.750000,35.615353,9.794226,9.794578,1980.726440,0.755981,-0.613709,1.144256,0.068547,0.000955,0.000260,0.000335,0,1,0,-0.007702,0,0.390000,0,15,0,202
74, 101,45982,45964,-4592,0,0,1.431322,0.356372,-9.684995,-0.017889,0.099761,0.000032,-61.502487,114.118683,6.723180,1.426464,0.354223,-9.683678,0.028442,-0.002486,-0.001586,83.740114,-6.534783,125.251968,0.375618,0.268700,-0.611257,0.642710,0.375618,0.268700,-0.611257,0.642710,1980.620117,80186.046875,0.142248,-0.109076,0.755981,-0.106323,-0.162190,27.750000,35.615353,9.796673,9.794584,1980.726440,0.755981,-0.616925,1.147325,0.069863,0.000955,0.000261,0.000335,0,1,0,-0.000446,0,0.390000,0,15,0,202
75, 101,46061,46052,-4513,0,0,1.470063,0.389088,-9.683688,-0.016676,0.006333,0.001345,-61.634029,114.001755,5.700088,1.474332,0.392517,-9.683678,0.008970,-0.002661,0.001791,84.246237,-6.766705,125.227188,0.375729,0.269122,-0.614651,0.639222,0.375729,0.269122,-0.614651,0.639222,1980.710449,80186.046875,0.232926,-0.108053,0.755981,-0.015991,-0.128798,27.750000,35.615353,9.802361,9.803129,1980.726440,0.755981,-0.616340,1.140018,0.057001,0.000955,0.000262,0.000335,0,1,0,-0.001185,0,0.390000,0,15,0,202
76, 101,46142,46139,-4432,0,0,1.512021,0.381330,-9.669435,-0.036072,-0.033451,-0.006759,-61.970184,114.060211,7.161649,1.522200,0.392517,-9.669318,-0.027708,0.003179,0.002081,84.246374,-6.766864,125.227338,0.377201,0.267524,-0.614115,0.639542,0.375729,0.269121,-0.614653,0.639222,1980.671021,80186.046875,0.033343,-0.107197,0.755981,-0.055420,-0.102185,27.750000,35.615353,9.794365,9.796268,1980.726440,0.755981,-0.619702,1.140602,0.071616,0.000955,0.000263,0.000335,0,1,0,-0.011002,0,0.390000,0,15,0,202
77, 101,46223,46206,-4351,0,0,1.559435,0.350572,-9.655346,-0.007965,-0.057402,-0.013828,-62.306343,113.884827,6.620871,1.560494,0.349436,-9.654958,-0.001528,-0.002465,0.002600,84.068530,-6.956776,125.208050,0.377203,0.267519,-0.614121,0.639536,0.377203,0.267519,-0.614121,0.639536,1980.716553,80186.046875,0.109300,-0.106762,0.755981,-0.009888,-0.082519,27.750000,35.615353,9.786748,9.786493,1980.726440,0.755981,-0.623063,1.138848,0.066209,0.000955,0.000264,0.000335,0,1,0,-0.011551,0,0.390000,0,15,0,202
78, 101,46302,46293,-4272,0,0,1.524740,0.349160,-9.666966,0.002692,0.022650,-0.008326,-61.224789,114.030983,6.679334,1.517413,0.359009,-9.674106,0.011118,-0.004152,-0.001425,83.745516,-6.884771,125.215850,0.377553,0.266839,-0.612141,0.641508,0.377553,0.266839,-0.612141,0.641508,1980.748779,80186.046875,0.104535,-0.106724,0.755981,0.022339,-0.055677,27.750000,35.615353,9.792701,9.798966,1980.726440,0.755981,-0.612248,1.140310,0.066793,0.000955,0.000265,0.000335,0,1,0,-0.022842,0,0.390000,0,15,0,202
79, 101,47350,47346,-3224,0,0,1.472236,0.300241,-9.688011,-0.049378,0.019845,0.002691,-62.130959,114.162529,7.366267,1.474332,0.306355,-9.688466,0.024909,-0.000249,-0.002315,83.864437,-6.162680,125.297471,0.373208,0.271062,-0.611060,0.643310,0.373208,0.271062,-0.611060,0.643310,1980.924561,80186.046875,0.022664,-0.104811,0.755981,0.198120,0.175508,27.750000,35.615353,9.803836,9.804789,1980.726440,0.755981,-0.621310,1.141625,0.073663,0.000954,0.000281,0.000335,0,1,0,0.000297,0,0.390000,0,15,0,202
80, 101,47404,47393,-3170,0,0,1.513479,0.410733,-9.662317,-0.139799,0.042228,-0.009822,-61.517101,113.373276,7.015493,1.517413,0.421238,-9.659744,0.024545,-0.000994,-0.001211,83.863959,-6.161977,125.297361,0.373206,0.271065,-0.611055,0.643314,0.373206,0.271065,-0.611055,0.643314,1980.901733,80186.046875,-0.035344,-0.104690,0.755981,0.175293,0.174337,27.750000,35.615353,9.788754,9.787270,1980.726440,0.755981,-0.615171,1.133733,0.070155,0.000954,0.000282,0.000335,0,1,0,0.003309,0,0.390000,0,15,0,202
81, 101,47466,47456,-3108,0,0,1.503656,0.386785,-9.676729,0.017270,-0.001461,-0.000522,-61.224789,113.607132,7.073955,1.498266,0.373370,-9.683678,-0.016479,0.004136,0.001118,84.118458,-7.070461,125.201001,0.377694,0.267050,-0.614685,0.638900,0.377694,0.267050,-0.614685,0.638900,1980.901733,80186.046875,-0.060437,-0.104970,0.755981,0.175293,0.170569,27.750000,35.615353,9.800493,9.806009,1980.726440,0.755981,-0.612248,1.136071,0.070740,0.000955,0.000283,0.000335,0,1,0,-0.014911,0,0.390000,0,15,0,202
82, 101,47546,47538,-3028,0,0,1.481958,0.348817,-9.683789,0.061456,-0.005475,0.001542,-61.414791,113.373276,7.015493,1.459971,0.382943,-9.693252,0.003910,0.001242,0.002079,84.118759,-7.071155,125.201151,0.375959,0.268684,-0.613773,0.640114,0.377696,0.267046,-0.614689,0.638897,1980.871216,80186.046875,-0.108530,-0.105573,0.755981,0.144775,0.159295,27.750000,35.615353,9.802736,9.810061,1980.726440,0.755981,-0.614148,1.133733,0.070155,0.000956,0.000283,0.000335,0,1,0,-0.015444,0,0.390000,0,15,0,202
83, 101,47627,47625,-2947,0,0,1.585778,0.387518,-9.651311,-0.088691,-0.064799,-0.013222,-61.677872,113.855598,6.430868,1.589215,0.387730,-9.650170,0.024607,-0.001543,0.001050,84.093385,-6.748727,125.234619,0.375956,0.268687,-0.613767,0.640120,0.375956,0.268687,-0.613767,0.640120,1980.890259,80186.046875,0.009087,-0.105684,0.755981,0.163818,0.153541,27.750000,35.615353,9.788394,9.787835,1980.726440,0.755981,-0.616779,1.138556,0.064309,0.000955,0.000284,0.000335,0,1,0,-0.011660,0,0.390000,0,15,0,202
84, 101,47705,47696,-2869,0,0,1.540866,0.378517,-9.669172,0.011254,-0.010139,-0.002520,-61.984802,113.957909,6.094709,1.546134,0.368583,-9.669318,-0.026431,0.000081,-0.000314,83.960476,-7.125673,125.195018,0.378371,0.266234,-0.613937,0.639560,0.378371,0.266234,-0.613937,0.639560,1980.902344,80186.046875,0.059481,-0.105824,0.755981,0.175903,0.156694,27.750000,35.615353,9.798491,9.799087,1980.726440,0.755981,-0.619848,1.139579,0.060947,0.000955,0.000285,0.000335,0,1,0,-0.003877,0,0.390000,0,15,0,202
85, 101,47786,47785,-2788,0,0,1.527956,0.301280,-9.665410,-0.056016,-0.002837,-0.011086,-61.619408,113.914062,6.343175,1.546134,0.330289,-9.659744,0.009932,-0.003505,-0.000734,83.722499,-6.329579,125.281570,0.374468,0.269698,-0.610675,0.643516,0.374468,0.269698,-0.610675,0.643516,1980.963379,80186.046875,0.080209,-0.105566,0.755981,0.236938,0.165054,27.750000,35.615353,9.790075,9.788273,1980.726440,0.755981,-0.616194,1.139141,0.063432,0.000955,0.000286,0.000335,0,1,0,-0.006308,0,0.390000,0,15,0,202
86, 101,47864,47855,-2710,0,0,1.485673,0.299897,-9.676544,-0.029520,0.031638,-0.006573,-62.072491,113.650978,6.182403,1.459971,0.287207,-9.683678,0.018726,-0.002856,0.001286,83.722157,-6.328826,125.281529,0.374945,0.269417,-0.611971,0.642123,0.374465,0.269701,-0.610671,0.643520,1980.915894,80186.046875,0.123165,-0.105368,0.755981,0.189453,0.180200,27.750000,35.615353,9.794522,9.797327,1980.726440,0.755981,-0.620725,1.136510,0.061824,0.000955,0.000287,0.000335,0,1,0,-0.013087,0,0.390000,0,15,0,202
87, 101,47947,47944,-2627,0,0,1.482661,0.298145,-9.668304,-0.000720,0.003692,-0.015129,-61.560947,114.484070,5.670856,1.474332,0.272847,-9.659744,-0.026412,0.004132,0.002676,83.886860,-6.483429,125.264768,0.374945,0.269415,-0.611972,0.642123,0.374945,0.269415,-0.611972,0.642123,1980.915894,80186.046875,-0.094111,-0.105329,0.755981,0.189453,0.178760,27.750000,35.615353,9.785872,9.775416,1980.726440,0.755981,-0.615025,1.142064,0.064893,0.000955,0.000287,0.000335,0,1,0,0.009304,0,0.390000,0,15,0,202
88, 101,48025,48015,-2549,0,0,1.590838,0.259079,-9.659814,-0.046843,-0.104680,-0.008312,-61.750950,114.089455,6.284712,1.594001,0.258487,-9.659744,0.026078,0.000090,0.003150,83.873828,-6.397340,125.274166,0.374492,0.269831,-0.611690,0.642482,0.374492,0.269831,-0.611690,0.642482,1980.921631,80186.046875,-0.008098,-0.105592,0.755981,0.195190,0.179529,27.750000,35.615353,9.793359,9.793790,1980.726440,0.755981,-0.618386,1.142064,0.062409,0.000955,0.000288,0.000335,0,1,0,-0.009338,0,0.390000,0,15,0,202
89, 101,48106,48106,-2468,0,0,1.546406,0.465570,-9.655389,-0.139718,0.041312,-0.012566,-61.429405,113.972519,6.957030,1.550920,0.478679,-9.654958,0.001173,0.001503,-0.000566,83.928039,-6.686299,125.242925,0.375985,0.268469,-0.612695,0.641221,0.375985,0.268469,-0.612695,0.641221,1980.903442,80186.046875,-0.033878,-0.106376,0.755981,0.177002,0.177238,27.750000,35.615353,9.789517,9.790439,1980.726440,0.755981,-0.615171,1.137679,0.073370,0.000956,0.000289,0.000335,0,1,0,-0.014395,0,0.390000,0,15,0,202
90, 101,48188,48187,-2386,0,0,1.552307,-0.377542,9.657753,-1.548553,-2.253025,-0.401519,-61.750950,-114.089455,-6.913184,1.550920,-0.378157,9.654958,0.009712,0.001864,0.002315,110.197890,-164.171547,-121.270582,0.669327,-0.549273,0.179480,0.466999,0.669327,-0.549273,0.179480,0.466999,1980.832275,80186.046875,-0.119508,-0.546209,0.755981,0.105835,0.161383,27.750000,35.615353,9.788994,9.786039,1980.726440,0.755981,-0.617509,-1.140895,-0.069132,0.000955,0.000290,0.000335,0,1,0,-19.119337,0,0.390000,0,15,0,202
91, 101,48269,48265,-2305,0,0,1.397225,-0.396785,9.687568,-1.618123,-2.390757,-0.440199,-61.575562,-113.899445,-6.094709,1.392956,-0.397304,9.688466,0.024492,0.004287,0.003209,110.198361,-164.172681,-121.270309,0.669332,-0.549267,0.179487,0.466997,0.669332,-0.549267,0.179487,0.466997,1980.846313,80186.046875,-0.145006,-0.775427,0.755981,0.119873,0.114234,27.750000,35.615353,9.795849,9.796150,1980.726440,0.755981,-0.615756,-1.138994,-0.060947,0.000955,0.000291,0.000335,0,1,0,-0.437601,0,0.390000,0,15,0,202
92, 101,48361,48359,-2213,0,0,1.493409,-0.386914,9.682849,-0.127275,-0.190150,0.001305,-61.809414,-114.074829,-6.796259,1.498266,-0.387730,9.683678,-0.012617,0.002320,-0.001106,97.170834,-172.513626,-123.341933,0.638226,-0.604270,0.270140,0.393128,0.638226,-0.604270,0.270140,0.393128,1980.846313,80186.046875,-0.014741,-0.791610,0.755981,0.119873,0.077536,27.750000,35.615353,9.804975,9.806566,1980.726440,0.755981,-0.618094,-1.140748,-0.067963,0.000955,0.000292,0.000335,0,1,0,-0.003102,0,0.390000,0,15,0,202
93, 101,48442,48441,-2132,0,0,1.558607,-0.330526,9.667086,-0.023587,-0.003153,-0.003527,-61.970184,-113.884827,-6.840106,1.550920,-0.330289,9.669318,-0.004931,0.001285,-0.004279,96.575617,-173.168600,-123.421805,0.637385,-0.605957,0.275617,0.388061,0.637385,-0.605957,0.275617,0.388061,1980.791016,80186.046875,-0.148864,-0.791340,0.755981,0.064575,0.040666,27.750000,35.615353,9.797502,9.798477,1980.726440,0.755981,-0.619702,-1.138848,-0.068401,0.000956,0.000292,0.000335,0,1,0,-0.005725,0,0.390000,0,15,0,202
94, 101,48524,48515,-2050,0,0,1.585830,-0.369494,9.651875,0.025390,-0.000802,-0.012770,-61.239403,-114.834846,-7.205495,1.589215,-0.373370,9.650170,-0.002700,0.001118,-0.002766,96.575487,-173.168504,-123.421996,0.636909,-0.606304,0.274923,0.388793,0.637385,-0.605959,0.275616,0.388060,1980.748413,80186.046875,-0.179702,-0.791201,0.755981,0.021973,0.009500,27.750000,35.615353,9.788262,9.787277,1980.726440,0.755981,-0.612394,-1.148348,-0.072055,0.000956,0.000293,0.000335,0,1,0,-0.010184,0,0.390000,0,15,0,202
95, 101,48604,48594,-1970,0,0,1.587503,-0.350305,9.656238,-0.013861,0.006785,-0.006512,-61.531715,-114.308678,-6.971645,1.589215,-0.349436,9.654958,-0.000309,-0.000822,0.002558,96.572980,-173.035507,-123.406533,0.636908,-0.606305,0.274923,0.388794,0.636908,-0.606305,0.274923,0.388794,1980.774048,80186.046875,0.000605,-0.790528,0.755981,0.047607,-0.008479,27.750000,35.615353,9.792130,9.791114,1980.726440,0.755981,-0.615317,-1.143087,-0.069716,0.000955,0.000294,0.000335,0,1,0,0.001392,0,0.390000,0,15,0,202
96, 101,48683,48675,-1891,0,0,1.547283,-0.293552,9.668941,-0.072032,-0.002953,-0.004905,-61.473255,-114.250221,-7.833967,1.546134,-0.291994,9.669318,0.011424,0.000543,0.005294,96.640510,-173.102429,-123.414060,0.637497,-0.605762,0.275048,0.388585,0.637497,-0.605762,0.275048,0.388585,1980.723511,80186.046875,-0.179331,-0.790146,0.755981,-0.002930,-0.031778,27.750000,35.615353,9.796360,9.796505,1980.726440,0.755981,-0.614733,-1.142502,-0.078340,0.000955,0.000295,0.000335,0,1,0,-0.005244,0,0.390000,0,15,0,202
97, 101,48764,48755,-1810,0,0,1.501450,-0.376837,9.679009,0.010503,-0.004807,0.000596,-61.911720,-113.943291,-7.059340,1.503052,-0.378157,9.678891,-0.002152,-0.001965,0.002734,96.141060,-173.360460,-123.442897,0.635747,-0.607890,0.278101,0.385947,0.635747,-0.607890,0.278101,0.385947,1980.723511,80186.046875,-0.054549,-0.789718,0.755981,-0.002930,-0.053370,27.750000,35.615353,9.802019,9.802199,1980.726440,0.755981,-0.619117,-1.139433,-0.070593,0.000955,0.000296,0.000335,0,1,0,-0.001508,0,0.390000,0,15,0,202
98, 101,48844,48834,-1730,0,0,1.514440,-0.389290,9.683248,0.012944,0.004654,0.004893,-61.356331,-114.440224,-6.606256,1.517413,-0.397304,9.683678,0.011271,-0.002032,-0.000530,96.141367,-173.360761,-123.442842,0.635750,-0.607887,0.278102,0.385947,0.635750,-0.607887,0.278102,0.385947,1980.689209,80186.046875,-0.113868,-0.789112,0.755981,-0.037231,-0.075128,27.750000,35.615353,9.808687,9.809894,1980.726440,0.755981,-0.613563,-1.144402,-0.066063,0.000955,0.000297,0.000335,0,1,0,-0.004235,0,0.390000,0,15,0,202
99, 101,48923,48915,-1651,0,0,1.452183,-0.369293,9.665044,-0.045203,-0.038193,-0.020674,-61.020172,-114.030983,-7.921661,1.450398,-0.368583,9.664531,0.007583,-0.001042,-0.001528,96.142788,-173.193134,-123.424660,0.635177,-0.608300,0.277210,0.386880,0.635177,-0.608300,0.277210,0.386880,1980.689209,80186.046875,-0.038797,-0.788251,0.755981,-0.037231,-0.092433,27.750000,35.615353,9.780506,9.779707,1980.726440,0.755981,-0.611371,-1.140310,-0.079217,0.000955,0.000298,0.000335,0,1,0,-0.018556,0,0.390000,0,15,0,202
100, 101,49003,48995,-1571,0,0,1.548252,-0.387183,9.666459,-0.012389,-0.003210,-0.003691,-61.341713,-114.396370,-6.752411,1.541347,-0.382943,9.669318,-0.012541,-0.001062,-0.001502,96.343841,-172.993201,-123.402735,0.635550,-0.607685,0.275471,0.388473,0.635550,-0.607685,0.275471,0.388473,1980.661133,80186.046875,-0.098117,-0.788280,0.755981,-0.065308,-0.114011,27.750000,35.615353,9.797318,9.798883,1980.726440,0.755981,-0.613417,-1.143964,-0.067524,0.000954,0.000298,0.000335,0,1,0,-0.007326,0,0.390000,0,15,0,202
101, 101,49081,49076,-1493,0,0,1.603088,-0.363962,9.655067,-0.000244,0.056111,-0.007148,-61.093246,-114.367142,-6.957030,1.603575,-0.363796,9.654958,0.010972,0.005333,0.000030,96.343752,-172.993406,-123.402763,0.637119,-0.606041,0.274477,0.389173,0.635550,-0.607685,0.275472,0.388472,1980.610962,80186.046875,-0.163127,-0.788133,0.755981,-0.115479,-0.143033,27.750000,35.615353,9.794012,9.793979,1980.726440,0.755981,-0.610932,-1.143671,-0.069570,0.000954,0.000299,0.000335,0,1,0,-0.007052,0,0.390000,0,15,0,202
102, 101,49161,49157,-1413,0,0,1.523399,-0.363377,9.668864,-0.045674,-0.061098,-0.006415,-61.502487,-114.513306,-5.948553,1.526986,-0.363796,9.669318,0.002454,0.003841,0.000179,96.639117,-172.995045,-123.402858,0.637120,-0.606040,0.274479,0.389172,0.637120,-0.606040,0.274479,0.389172,1980.549927,80186.046875,-0.165830,-0.788441,0.755981,-0.176514,-0.176021,27.750000,35.615353,9.794883,9.795905,1980.726440,0.755981,-0.615025,-1.145133,-0.059486,0.000954,0.000300,0.000335,0,1,0,-0.009125,0,0.390000,0,15,0,202
103, 101,49241,49239,-1333,0,0,1.507145,-0.315474,9.667920,-0.011193,0.000349,-0.011232,-61.429405,-114.337906,-7.351652,1.512626,-0.320715,9.669318,-0.001606,0.000590,-0.000395,96.352085,-173.477352,-123.458142,0.637277,-0.606430,0.277996,0.385796,0.637277,-0.606430,0.277996,0.385796,1980.568481,80186.046875,-0.083749,-0.788599,0.755981,-0.157959,-0.206838,27.750000,35.615353,9.789774,9.792171,1980.726440,0.755981,-0.614294,-1.143818,-0.075270,0.000954,0.000301,0.000335,0,1,0,-0.016811,0,0.390000,0,15,0,202
104, 101,49325,49302,-1249,0,0,1.480010,-0.246182,9.664657,-0.012814,0.002563,-0.020588,-61.882488,-114.323296,-7.000877,1.479118,-0.244126,9.664531,0.025879,0.001074,-0.001024,96.432121,-173.886672,-123.504205,0.639110,-0.604953,0.279888,0.383710,0.639110,-0.604953,0.279888,0.383710,1980.568481,80186.046875,0.026209,-0.788421,0.755981,-0.157959,-0.224245,27.750000,35.615353,9.780420,9.780109,1980.726440,0.755981,-0.618825,-1.143233,-0.070009,0.000955,0.000302,0.000335,0,1,0,-0.020085,0,0.390000,0,15,0,202
105, 101,49408,49405,-1166,0,0,1.619083,3.713178,60.045841,-8.591933,-3.277174,49.674633,-61.692490,-114.425613,-6.562409,1.608362,4.116641,64.645615,-0.409791,0.057308,0.097193,96.425756,-173.879664,-123.502620,0.647386,-0.601235,0.327632,0.334760,0.639049,-0.605004,0.279876,0.383738,1980.539551,80186.046875,-0.081645,-0.681562,0.755981,-0.186890,-0.243288,27.750000,35.615353,60.182323,64.796524,1980.726440,0.755981,-0.616925,-1.144256,-0.065624,0.000955,0.000303,0.000335,0,1,0,37.956226,0,0.390000,0,15,0,202
106, 101,49490,49486,-1084,0,0,14.179171,-2.924182,74.538246,11.979468,5.449750,64.980965,-61.897106,-114.630219,-5.904706,14.527911,-3.116201,74.851051,-0.033092,-0.026790,-0.004406,93.568496,178.767538,-124.144480,0.647318,-0.601295,0.327614,0.334803,0.647318,-0.601295,0.327614,0.334803,1980.525146,80186.046875,-0.075527,2.241279,0.755981,-0.201294,-0.195166,27.750000,35.615353,75.931221,76.311539,1980.726440,0.755981,-0.618971,-1.146302,-0.059047,0.000956,0.000304,0.000335,0,1,0,64.155762,0,0.390000,0,15,0,202
107, 101,49568,49558,-1006,0,0,9.345077,-1.647059,78.276199,2.737549,-1.340940,69.013092,-61.663258,-114.323296,-5.948553,9.382111,-1.766326,78.259247,-0.525588,-0.076892,0.019802,96.018512,-177.404506,-123.820702,0.648404,-0.597984,0.300074,0.363240,0.648404,-0.597984,0.300074,0.363240,1980.667725,80186.046875,0.350287,5.669945,0.755981,-0.058716,-0.010148,27.750000,35.615353,78.849266,78.839417,1980.726440,0.755981,-0.615463,-1.144841,-0.060362,0.000956,0.000304,0.000335,0,1,0,69.142380,0,0.390000,0,15,0,202
108, 101,49648,49639,-926,0,0,6.369798,1.257941,76.888710,0.393778,-2.636936,67.315292,-61.809414,-114.352524,-6.547793,5.514383,0.406877,76.684395,0.166583,0.041911,-0.059168,96.408571,-178.421835,-123.935285,0.653686,-0.593057,0.304132,0.358443,0.653686,-0.593057,0.304132,0.358443,1980.964355,80186.046875,0.544447,9.530945,0.755981,0.237915,0.327331,27.750000,35.615353,77.162369,76.883484,1980.726440,0.755981,-0.618094,-1.143525,-0.065478,0.000955,0.000305,0.000335,0,1,0,68.067329,0,0.390000,0,15,0,202
109, 101,49727,49720,-847,0,0,9.093459,-0.587770,72.497749,3.598998,-0.951032,63.172302,-61.166328,-114.060211,-6.533177,9.190639,-0.617496,72.381065,0.801626,0.081761,-0.005364,96.421439,-178.448254,-123.936337,0.653831,-0.592907,0.304239,0.358337,0.653831,-0.592907,0.304239,0.358337,1980.964355,80186.046875,0.655032,13.176293,0.755981,0.237915,0.762488,27.750000,35.615353,73.068192,72.964836,1980.726440,0.755981,-0.611663,-1.140602,-0.065332,0.000955,0.000306,0.000335,0,1,0,63.451462,0,0.390000,0,15,0,202
110, 101,49807,49802,-767,0,0,8.981218,-0.310891,74.785477,0.269117,-0.151842,65.521843,-61.619408,-114.352524,-6.562409,8.975233,-0.315928,74.511185,0.731887,-0.078484,0.053020,95.677420,-176.197284,-123.689685,0.642679,-0.603076,0.294864,0.369213,0.642679,-0.603076,0.294864,0.369213,1982.336914,80186.046875,4.501905,16.786993,1.610474,1.610474,1.723654,27.750000,35.615353,75.323479,75.050461,1980.726440,1.610474,-0.616194,-1.143525,-0.065624,0.000955,0.000307,0.000335,0,1,0,66.157013,0,0.390000,0,15,0,202
111, 101,49887,49885,-687,0,0,9.127184,-0.164576,74.532425,-0.028522,0.136329,65.288254,-61.502487,-113.811752,-6.767027,9.128410,-0.095736,74.219200,0.707842,-0.282231,-0.001735,95.632484,-175.990069,-123.662692,0.641742,-0.603854,0.293951,0.370297,0.641742,-0.603854,0.293951,0.370297,1983.587769,80186.046875,4.412495,20.478054,2.861328,2.861328,2.878885,27.750000,35.615353,75.089378,74.778519,1980.726440,2.861328,-0.615025,-1.138118,-0.067670,0.000955,0.000308,0.000335,0,1,0,66.012398,0,0.390000,0,15,0,202
112, 101,49969,49968,-605,0,0,9.211171,0.008640,73.941185,-0.060986,0.314879,64.711021,-61.955570,-113.051735,-7.366267,9.219359,0.019147,73.912849,0.559840,-0.406684,-0.034827,95.667284,-176.008442,-123.661272,0.643259,-0.602272,0.293470,0.370623,0.641976,-0.603603,0.293952,0.370302,1985.144165,80186.046875,4.465859,24.025545,4.417725,4.417725,4.063087,27.750000,35.615353,74.512711,74.485611,1980.726440,4.417725,-0.619556,-1.130517,-0.073663,0.000955,0.000308,0.000335,0,1,0,64.781242,0,0.390000,0,15,0,202
113, 101,50049,50048,-525,0,0,8.987378,0.599833,73.350426,-0.585364,0.195981,64.097824,-61.911720,-113.870216,-6.913184,8.922579,0.694085,72.936333,0.084803,-0.539403,-0.119764,95.916504,-176.045954,-123.668607,0.643421,-0.602116,0.293326,0.370710,0.643421,-0.602116,0.293326,0.370710,1986.890259,80186.046875,4.978015,27.617355,6.163818,6.163818,5.440683,27.750000,35.615353,73.901405,73.483353,1980.726440,6.163818,-0.619117,-1.138702,-0.069132,0.000955,0.000309,0.000335,0,1,0,65.075081,0,0.390000,0,15,0,202
114, 101,50131,50129,-443,0,0,8.989209,0.551415,73.345673,-0.042249,-0.016188,64.095520,-61.151707,-114.396370,-6.153172,8.989594,0.550481,73.348000,-0.076326,-0.532646,-0.147337,96.058476,-176.431887,-123.717320,0.645459,-0.600327,0.294852,0.368853,0.645459,-0.600327,0.294852,0.368853,1986.890259,80186.046875,4.551839,31.118399,6.163818,6.163818,6.932806,27.750000,35.615353,73.896530,73.898880,1980.726440,6.163818,-0.611517,-1.143964,-0.061532,0.000955,0.000310,0.000335,0,1,0,64.089371,0,0.390000,0,15,0,202
115, 101,50212,50211,-362,0,0,8.698580,1.593291,72.930534,-0.182452,0.037678,63.663494,-61.400177,-114.118683,-5.977784,8.668879,1.622722,72.835815,0.005874,-0.158022,-0.253671,96.312231,-177.097325,-123.801769,0.648990,-0.597173,0.297459,0.365670,0.648990,-0.597173,0.297459,0.365670,1989.221924,80186.046875,8.682541,34.697647,8.495483,8.495483,8.929897,27.750000,35.615353,73.464729,73.367828,1980.726440,8.495483,-0.614002,-1.141187,-0.059778,0.000955,0.000311,0.000335,0,1,0,63.907166,0,0.390000,0,15,0,202
116, 101,50293,50292,-281,0,0,8.778183,1.822366,73.030670,-0.337273,0.223051,63.776802,-61.546333,-114.337906,-6.387022,8.731108,1.790260,73.103874,-0.182212,0.141620,-0.259339,96.309144,-177.092694,-123.815852,0.649006,-0.597240,0.297369,0.365605,0.649006,-0.597240,0.297369,0.365605,1991.777222,80186.046875,9.384905,38.173973,11.050781,11.050781,11.100567,27.750000,35.615353,73.578911,73.645187,1980.726440,11.050781,-0.615463,-1.143379,-0.063870,0.000955,0.000312,0.000335,0,1,0,63.621769,0,0.390000,0,15,0,202
117, 101,50381,50369,-193,0,0,8.422214,0.954172,73.164268,0.478109,-0.705850,63.847675,-61.794800,-114.294067,-7.073955,8.391245,0.871196,73.170891,-0.437643,0.322761,-0.247939,96.413714,-177.322721,-123.857448,0.650345,-0.596080,0.298154,0.364478,0.650345,-0.596080,0.298154,0.364478,1994.880493,80186.046875,10.360617,41.711411,14.154053,14.154053,13.409198,27.750000,35.615353,73.653610,73.655624,1980.726440,14.154053,-0.617948,-1.142941,-0.070740,0.000955,0.000313,0.000335,0,1,0,63.845142,0,0.390000,0,15,0,202
118, 101,50459,50455,-115,0,0,7.787764,-0.201539,73.428703,0.536981,-0.909356,64.032249,-61.429405,-114.220985,-6.313943,7.596638,-0.574415,73.285774,-0.776005,0.286099,-0.124367,95.644642,-176.909017,-123.828434,0.645038,-0.601561,0.298357,0.364738,0.645038,-0.601561,0.298357,0.364738,1998.321655,80186.046875,12.726282,45.711483,17.595215,17.595215,16.139072,27.750000,35.615353,73.840805,73.680687,1980.726440,17.595215,-0.614294,-1.142210,-0.063139,0.000956,0.000313,0.000335,0,1,0,64.411354,0,0.390000,0,15,0,202
119, 101,50541,50532,-33,0,0,7.244915,-0.587076,73.721611,0.479528,-1.550522,64.260292,-61.984802,-114.030983,-6.357790,6.974355,-0.574415,73.893684,-1.739314,-0.175891,-0.242156,95.605211,-176.861861,-123.839417,0.637964,-0.608860,0.299821,0.363866,0.644728,-0.601948,0.298152,0.364814,2002.359253,80186.046875,17.867210,49.216805,21.632812,21.632812,19.034842,27.750000,35.615353,74.079079,74.224312,1980.726440,21.632812,-0.618094,-1.137094,-0.073955,0.000956,0.000314,0.000335,0,1,0,63.930786,0,0.390000,0,15,0,202
120, 101,50573,50759,-1,0,0,6.887189,0.437415,73.899574,-1.425582,-0.029597,64.405495,-62.160187,-114.089455,-6.211634,7.007863,0.445172,73.888908,-1.693614,-0.090546,0.121512,94.443949,-176.317017,-123.836753,0.636976,-0.610001,0.298725,0.364587,0.636976,-0.610001,0.298725,0.364587,2017.728149,80186.046875,33.528599,57.975266,37.001709,37.001709,26.612640,27.750000,35.615353,74.221100,74.221825,1980.726440,37.001709,-0.620433,-1.133879,-0.065186,0.000964,0.000318,0.000335,0,1,0,64.385818,1,0.390000,0,15,0,202
121, 101,51104,51098,530,0,0,6.461008,-0.776598,73.443848,-0.925843,-0.456855,63.939327,-61.634029,-113.826370,-6.474715,6.438234,-0.780247,73.438950,-1.268850,-0.228248,-0.342886,94.228361,-175.954252,-123.860085,0.634819,-0.612286,0.297206,0.365758,0.634819,-0.612286,0.297206,0.365758,2030.107056,80186.046875,12.211043,75.299942,49.380615,49.380615,48.866741,27.750000,35.615353,73.731583,73.724754,1980.726440,49.380615,-0.614879,-1.141333,-0.060801,0.000955,0.000320,0.000335,0,1,0,64.000610,1,0.390000,0,15,0,202
122, 101,51162,51158,588,0,0,5.333865,0.069498,74.079720,-2.372690,-0.988537,64.426033,-61.560947,-114.279449,-6.679334,5.222389,0.153177,74.142609,-1.000206,-0.307398,-0.121950,94.213239,-175.912697,-123.869360,0.634643,-0.612511,0.296967,0.365881,0.634643,-0.612511,0.296967,0.365881,2036.854004,80186.046875,9.938524,77.804321,56.127563,56.127563,52.658302,27.750000,35.615353,74.271530,74.326462,1980.726440,56.127563,-0.615609,-1.143233,-0.068693,0.000955,0.000320,0.000335,0,1,0,64.297630,1,0.390000,0,15,0,202
123, 101,51218,51208,644,0,0,5.223292,0.152500,74.142097,-2.549898,-1.023868,64.473167,-61.473255,-114.118683,-6.430868,5.222389,0.153177,74.142609,-0.973852,-0.315162,-0.100277,94.203096,-175.877562,-123.873772,0.634498,-0.612678,0.296774,0.366010,0.634498,-0.612678,0.296774,0.366010,2036.854004,80186.046875,5.952820,80.110710,56.127563,56.127563,55.842834,27.750000,35.615353,74.326019,74.326462,1980.726440,56.127563,-0.613709,-1.137387,-0.058901,0.000955,0.000321,0.000335,0,1,0,64.470062,1,0.390000,0,15,0,202
124, 101,51275,51265,701,0,0,5.222470,0.153116,74.142563,-2.597050,-1.012678,64.473137,-61.677872,-113.738670,-6.036247,5.222389,0.153177,74.142609,-0.973657,-0.315220,-0.100116,94.193390,-175.843644,-123.877925,0.634358,-0.612838,0.296588,0.366136,0.634358,-0.612838,0.296588,0.366136,2036.854004,80186.046875,2.916882,82.318214,56.127563,56.127563,58.240768,27.750000,35.615353,74.326424,74.326462,1980.726440,56.127563,-0.616779,-1.137387,-0.060362,0.000955,0.000321,0.000335,0,1,0,64.473587,1,0.390000,0,15,0,202
125, 101,51331,51324,757,0,0,6.700074,0.809923,73.660095,-2.329618,0.625061,64.128281,-61.400177,-113.782524,-6.357790,7.333364,1.091388,73.453308,-0.642926,-0.078098,0.043071,94.181390,-175.808291,-123.880917,0.634197,-0.613011,0.296408,0.366270,0.634197,-0.613011,0.296408,0.366270,2051.963867,80186.046875,13.951859,85.032669,71.237427,71.237427,62.005630,27.750000,35.615353,73.968620,73.826538,1980.726440,71.237427,-0.614002,-1.137825,-0.063578,0.000956,0.000321,0.000335,0,1,0,64.472092,1,0.390000,0,15,0,202
126, 101,51415,51406,841,0,0,7.454558,-0.248177,73.032455,-1.015847,0.722527,63.600754,-61.882488,-114.206375,-5.977784,7.472181,-0.378157,72.988991,-0.438845,0.091047,-0.065709,94.163993,-175.786639,-123.880685,0.634038,-0.613168,0.296340,0.366337,0.634038,-0.613168,0.296340,0.366337,2051.963867,80186.046875,36.155655,88.735420,71.237427,71.237427,68.889397,27.750000,35.615353,73.412338,73.371445,1980.726440,71.237427,-0.618825,-1.142064,-0.059778,0.000956,0.000322,0.000335,0,1,0,63.701263,1,0.380000,0,15,0,202
127, 101,51471,51471,897,0,0,7.284399,-0.365935,74.122719,-1.112408,0.454951,64.669998,-61.750950,-114.074829,-6.489330,7.266349,-0.368583,74.233559,-0.424348,0.023782,-0.160556,94.149957,-175.771175,-123.887296,0.633938,-0.613306,0.296261,0.366344,0.633938,-0.613306,0.296261,0.366344,2060.062744,80186.046875,28.923351,91.848557,79.336304,79.336304,74.455643,27.750000,35.615353,74.480698,74.589256,1980.726440,79.336304,-0.617509,-1.140748,-0.064893,0.000957,0.000323,0.000335,0,1,0,64.389687,1,0.380000,0,15,0,202
128, 101,51541,51537,967,0,0,5.778767,0.399079,73.237236,-2.532034,-0.289932,63.620731,-61.794800,-113.344048,-6.518562,5.681921,0.593562,73.290558,-0.152221,-0.076654,-0.074218,94.146214,-175.759496,-123.893580,0.633903,-0.613376,0.296172,0.366359,0.633903,-0.613376,0.296172,0.366359,2068.503174,80186.046875,53.839111,95.007507,87.776733,87.776733,81.491219,27.750000,35.615353,73.465950,73.512871,1980.726440,87.776733,-0.617948,-1.133440,-0.065186,0.000957,0.000323,0.000335,0,1,0,63.538822,1,0.390000,0,15,0,202
129, 101,51597,51592,1023,0,0,6.200552,0.551453,73.238861,-2.428812,0.143313,63.661659,-61.926334,-113.680206,-5.977784,6.419087,0.540907,73.218758,-0.004036,-0.008466,0.009822,94.146166,-175.755411,-123.894973,0.633895,-0.613391,0.296142,0.366373,0.633895,-0.613391,0.296142,0.366373,2068.503174,80186.046875,30.765779,97.557251,87.776733,87.776733,86.184425,27.750000,35.615353,73.502937,73.501587,1980.726440,87.776733,-0.619263,-1.140456,-0.067524,0.000957,0.000323,0.000335,0,1,0,63.655903,1,0.390000,0,15,0,202
130, 101,51671,51662,1097,0,0,6.613335,0.236074,73.162292,-1.928290,0.312498,63.633984,-61.634029,-113.870216,-5.992400,6.634492,0.205832,73.156532,0.093491,0.068494,0.021808,94.146242,-175.758813,-123.893703,0.633901,-0.613378,0.296168,0.366362,0.633901,-0.613378,0.296168,0.366362,2077.570801,80186.046875,28.896484,100.673088,96.844360,96.844360,92.103813,27.750000,35.615353,73.460968,73.457039,1980.726440,96.844360,-0.616340,-1.138702,-0.059924,0.000956,0.000324,0.000335,0,1,0,63.641586,1,0.390000,0,15,0,202
131, 101,51727,51717,1153,0,0,6.713356,-0.735277,72.577705,-0.640409,-0.460710,63.569603,-61.838646,-113.855598,-6.752411,6.725442,-0.512187,72.371490,0.168425,-0.100012,0.028274,94.149069,-175.763061,-123.892282,0.633925,-0.613347,0.296191,0.366356,0.633925,-0.613347,0.296191,0.366356,2086.947021,80186.046875,56.021915,103.243637,106.220581,106.220581,98.944763,27.750000,35.615353,72.891243,72.685120,1980.726440,106.220581,-0.618386,-1.138556,-0.067524,0.000956,0.000324,0.000335,0,1,0,63.574276,1,0.390000,0,15,0,202
132, 101,51799,51789,1225,0,0,6.661450,0.336232,71.998421,-1.887567,0.476360,62.479500,-61.853260,-114.337906,-6.343175,6.634492,0.708445,71.830582,0.272110,-0.129887,0.004565,94.158973,-175.767651,-123.890616,0.633986,-0.613275,0.296194,0.366367,0.633986,-0.613275,0.296194,0.366367,2096.543213,80186.046875,36.953568,106.224770,115.816772,115.816772,106.056580,27.750000,35.615353,72.306717,72.139801,1980.726440,115.816772,-0.618533,-1.143379,-0.063432,0.000956,0.000325,0.000335,0,1,0,62.894894,1,0.390000,0,15,0,202
133, 101,51856,51844,1282,0,0,6.336628,1.022143,71.799347,-2.573679,0.594848,62.242878,-61.721718,-114.060211,-6.767027,6.328138,1.033947,71.797081,0.509771,0.022030,-0.027488,94.169280,-175.779016,-123.890383,0.634075,-0.613185,0.296228,0.366337,0.634075,-0.613185,0.296228,0.366337,2096.543213,80186.046875,39.256279,108.679695,115.816772,115.816772,111.902016,27.750000,35.615353,72.085670,72.082832,1980.726440,115.816772,-0.617217,-1.140602,-0.067670,0.000956,0.000325,0.000335,0,1,0,62.271694,1,0.390000,0,15,0,202
134, 101,52131,52123,1557,0,0,6.018990,-0.046225,70.463547,-1.114876,0.172019,60.927052,-61.794800,-113.738670,-6.737796,5.748936,0.028721,70.480713,1.363432,0.161673,-0.051732,94.236352,-175.931862,-123.888703,0.634886,-0.612379,0.296900,0.365735,0.634886,-0.612379,0.296900,0.365735,2127.760010,80186.046875,15.132509,120.879227,147.033569,147.033569,139.575500,27.750000,35.615353,70.720169,70.714790,1980.726440,147.033569,-0.620140,-1.141041,-0.059778,0.000954,0.000328,0.000335,0,1,0,60.927376,1,0.390000,0,15,0,202
135, 101,52188,52184,1614,0,0,5.759838,-0.021584,70.204414,-1.701808,-0.464192,60.617210,-61.078632,-114.016365,-7.643963,5.729789,-0.033508,70.088203,1.514240,0.155552,-0.042843,94.261139,-175.978608,-123.888813,0.635158,-0.612110,0.297088,0.365559,0.635158,-0.612110,0.297088,0.365559,2127.760010,80186.046875,29.738708,123.130898,147.033569,147.033569,145.189880,27.750000,35.615353,70.440300,70.322029,1980.726440,147.033569,-0.610786,-1.140164,-0.076440,0.000954,0.000329,0.000335,0,1,0,60.893353,1,0.390000,0,15,0,202
136, 101,52245,52235,1671,0,0,6.575093,-0.773928,69.427025,-0.770306,-0.263590,60.070820,-61.487873,-113.811752,-6.723180,6.658427,-0.847262,69.360603,1.757308,0.248171,0.076693,94.287374,-176.029056,-123.887378,0.635445,-0.611819,0.297302,0.365376,0.635445,-0.611819,0.297302,0.365376,2138.831299,80186.046875,41.125374,125.311226,158.104858,158.104858,150.318954,27.750000,35.615353,69.741974,69.684616,1980.726440,158.104858,-0.614879,-1.138118,-0.067232,0.000954,0.000330,0.000335,0,1,0,60.511166,1,0.390000,0,15,0,202
137, 101,52302,52293,1728,0,0,6.999404,-0.679826,68.944382,-0.251070,0.217855,59.500305,-61.210175,-113.899445,-6.577024,7.156252,-0.617496,68.757462,1.797815,0.207220,0.026879,94.315220,-176.085050,-123.883376,0.635748,-0.611495,0.297556,0.365184,0.635748,-0.611495,0.297556,0.365184,2150.179199,80186.046875,56.291611,127.489426,169.452759,169.452759,157.077133,27.750000,35.615353,69.302101,69.131630,1980.726440,169.452759,-0.612102,-1.138994,-0.065770,0.000955,0.000330,0.000335,0,1,0,59.900902,1,0.390000,0,15,0,202
138, 101,52357,52353,1783,0,0,5.614357,0.029862,68.893188,-1.521154,-0.569712,59.301495,-61.560947,-113.943291,-6.182403,5.466516,0.095736,68.901070,1.906924,0.156107,-0.080538,94.353586,-176.155401,-123.882419,0.636159,-0.611081,0.297842,0.364928,0.636159,-0.611081,0.297842,0.364928,2150.179199,80186.046875,54.626064,130.128525,169.452759,169.452759,164.771164,27.750000,35.615353,69.121590,69.117645,1980.726440,169.452759,-0.615609,-1.139433,-0.061824,0.000955,0.000331,0.000335,0,1,0,59.321636,1,0.390000,0,15,0,202
139, 101,52439,52417,1865,0,0,5.443956,0.355355,67.508469,-1.853256,-0.572490,58.493862,-62.189419,-114.381752,-6.401637,5.490449,0.325502,67.249634,2.118705,0.276082,0.038071,94.398064,-176.237869,-123.881272,0.636638,-0.610597,0.298180,0.364626,0.636638,-0.610597,0.298180,0.364626,2161.747559,80186.046875,52.155197,132.991547,181.021118,181.021118,173.085159,27.750000,35.615353,67.728554,67.474174,1980.726440,181.021118,-0.621894,-1.143818,-0.064016,0.000956,0.000331,0.000335,0,1,0,58.698761,1,0.380000,0,15,0,202
140, 101,52496,52484,1922,0,0,6.417017,-0.710415,67.295822,-0.475329,-0.349571,57.786106,-61.517101,-113.709435,-6.474715,6.510036,-0.813755,67.292709,2.195385,0.273291,0.012553,94.441811,-176.325814,-123.876737,0.637118,-0.610092,0.298570,0.364314,0.637118,-0.610092,0.298570,0.364314,2173.678467,80186.046875,59.198669,135.737717,192.952026,192.952026,181.231827,27.750000,35.615353,67.604813,67.611771,1980.726440,192.952026,-0.615171,-1.137094,-0.064747,0.000956,0.000332,0.000335,0,1,0,57.735802,1,0.380000,0,15,0,202
141, 101,52557,52549,1983,0,0,6.102925,-0.382259,66.840645,-0.473651,-0.395703,57.315933,-61.809414,-113.840988,-6.123940,5.940408,-0.210619,66.646500,2.219478,0.236483,-0.021921,94.485053,-176.410003,-123.873991,0.637589,-0.609605,0.298930,0.364010,0.637589,-0.609605,0.298930,0.364010,2173.678467,80186.046875,51.543949,138.287552,192.952026,192.952026,189.082870,27.750000,35.615353,67.119766,66.911049,1980.726440,192.952026,-0.618094,-1.138410,-0.061239,0.000957,0.000332,0.000335,0,1,0,57.807690,1,0.390000,0,15,0,202
142, 101,52614,52603,2040,0,0,5.117338,-0.146803,65.819023,-1.029953,-1.007023,56.262707,-61.736332,-114.425613,-6.094709,5.093146,-0.143604,65.794449,2.368902,0.246685,-0.010150,94.526362,-176.487539,-123.872256,0.638032,-0.609149,0.299253,0.363730,0.638032,-0.609149,0.299253,0.363730,2185.886719,80186.046875,49.005344,140.574432,205.160278,205.160278,196.607239,27.750000,35.615353,66.017822,65.991440,1980.726440,205.160278,-0.617363,-1.144256,-0.060947,0.000956,0.000332,0.000335,0,1,0,56.494389,1,0.390000,0,15,0,202
143, 101,52685,52676,2111,0,0,5.918185,-0.194923,64.304688,-0.373036,-0.350846,54.773712,-61.648643,-114.527916,-6.138556,5.940408,-0.196258,64.262665,2.480571,0.284564,0.042252,94.578893,-176.588257,-123.867871,0.638595,-0.608557,0.299688,0.363375,0.638595,-0.608557,0.299688,0.363375,2185.886719,80186.046875,34.241817,143.217789,205.160278,205.160278,204.632767,27.750000,35.615353,64.576744,64.536942,1980.726440,205.160278,-0.616486,-1.145279,-0.061386,0.000956,0.000333,0.000335,0,1,0,54.877041,1,0.390000,0,15,0,202
144, 101,52741,52731,2167,0,0,5.284871,-0.353847,63.315845,-0.391494,-0.802388,53.844246,-61.546333,-113.855598,-6.255481,5.222389,-0.368583,63.271805,2.590249,0.300632,-0.011720,94.624273,-176.675820,-123.864456,0.639083,-0.608045,0.300064,0.363064,0.639083,-0.608045,0.300064,0.363064,2198.282715,80186.046875,45.900906,145.435120,217.556274,217.556274,212.512299,27.750000,35.615353,63.537006,63.488033,1980.726440,217.556274,-0.615463,-1.138556,-0.062555,0.000956,0.000333,0.000335,0,1,0,54.237385,1,0.390000,0,15,0,202
145, 101,52813,52804,2239,0,0,5.224076,-0.333337,62.432289,-0.319708,-0.962750,52.842144,-61.955570,-114.484070,-6.343175,5.222389,-0.330289,62.347954,2.670158,0.288999,0.030730,94.680697,-176.784215,-123.860863,0.639690,-0.607410,0.300527,0.362675,0.639690,-0.607410,0.300527,0.362675,2210.951172,80186.046875,48.370537,148.024612,230.224731,230.224731,221.852478,27.750000,35.615353,62.651360,62.567162,1980.726440,230.224731,-0.619556,-1.144841,-0.063432,0.000956,0.000334,0.000335,0,1,0,53.059689,1,0.390000,0,15,0,202
146, 101,52869,52859,2295,0,0,5.366786,-0.213875,61.719872,-0.200755,-0.787796,52.188168,-61.531715,-114.016365,-6.503946,5.370780,-0.210619,61.701740,2.737606,0.313150,0.040331,94.729164,-176.877065,-123.856765,0.640207,-0.606861,0.300928,0.362349,0.640207,-0.606861,0.300928,0.362349,2210.951172,80186.046875,34.462288,150.105789,230.224731,230.224731,228.662231,27.750000,35.615353,61.953133,61.935406,1980.726440,230.224731,-0.615317,-1.140164,-0.065039,0.000956,0.000334,0.000335,0,1,0,52.340397,1,0.390000,0,15,0,202
147, 101,53144,53142,2570,0,0,4.634078,-0.227733,54.980625,0.276478,-1.089662,45.363590,-61.634029,-113.870216,-7.161649,4.652761,-0.162751,54.899712,3.136526,0.338530,0.041473,94.999926,-177.403946,-123.837941,0.643116,-0.603771,0.303197,0.360464,0.643116,-0.603771,0.303197,0.360464,2250.293213,80186.046875,47.555912,160.283386,269.566772,269.566772,266.809998,27.750000,35.615353,55.176044,55.096760,1980.726440,269.566772,-0.616340,-1.138702,-0.071616,0.000954,0.000337,0.000335,0,1,0,45.565685,1,0.390000,0,15,0,202
148, 101,53198,53189,2624,0,0,4.277642,0.201397,53.943577,-0.031319,-1.098875,44.533234,-61.867874,-114.294067,-6.313943,4.241097,0.239340,53.846611,3.222664,0.415221,0.042508,95.048660,-177.498161,-123.834390,0.643635,-0.603213,0.303603,0.360130,0.643635,-0.603213,0.303603,0.360130,2263.905762,80186.046875,44.648129,161.833694,283.179321,283.179321,273.188629,27.750000,35.615353,54.113289,54.013905,1980.726440,283.179321,-0.618679,-1.142941,-0.063139,0.000955,0.000338,0.000335,0,1,0,45.310215,1,0.390000,0,15,0,202
149, 101,53254,53243,2680,0,0,3.976369,-1.125107,51.405525,0.739421,-1.731803,42.303661,-61.619408,-113.709435,-6.840106,3.949103,-1.258926,51.161221,3.250116,0.410711,0.012101,95.096177,-177.593402,-123.831220,0.644150,-0.602660,0.304017,0.359785,0.644150,-0.602660,0.304017,0.359785,2263.905762,80186.046875,51.818321,163.352661,283.179321,283.179321,280.148499,27.750000,35.615353,51.571362,51.328850,1980.726440,283.179321,-0.616194,-1.137094,-0.068401,0.000955,0.000338,0.000335,0,1,0,44.233311,1,0.390000,0,15,0,202
150, 101,53312,53300,2738,0,0,3.806092,-0.702103,50.897747,0.773440,-1.861113,41.285824,-61.853260,-114.381752,-6.313943,3.791139,-0.651004,50.864441,3.305031,0.305056,0.066360,95.151550,-177.700991,-123.827928,0.644742,-0.602025,0.304478,0.359398,0.644742,-0.602025,0.304478,0.359398,2277.765625,80186.046875,49.189320,164.961136,297.039185,297.039185,287.268738,27.750000,35.615353,51.044685,51.009686,1980.726440,297.039185,-0.618533,-1.143818,-0.063139,0.000955,0.000339,0.000335,0,1,0,41.556149,1,0.390000,0,15,0,202
151, 101,53369,53362,2795,0,0,4.045131,0.036998,49.551933,0.335170,-1.141805,39.901539,-62.072491,-114.147911,-6.825490,4.068772,0.110096,49.418831,3.383028,0.357166,0.062709,95.215678,-177.820915,-123.822833,0.645408,-0.601299,0.304992,0.358982,0.645408,-0.601299,0.304992,0.358982,2277.765625,80186.046875,55.518402,166.681808,297.039185,297.039185,295.274109,27.750000,35.615353,49.716785,49.586166,1980.726440,297.039185,-0.620725,-1.141479,-0.068255,0.000955,0.000339,0.000335,0,1,0,40.235252,1,0.390000,0,15,0,202
152, 101,53441,53428,2867,0,0,3.714161,-0.427495,48.593384,0.701523,-1.650898,38.902973,-62.189419,-113.636360,-6.489330,3.704977,-0.440385,48.566784,3.436139,0.446655,0.026080,95.291569,-177.972381,-123.818530,0.646228,-0.600415,0.305646,0.358431,0.646228,-0.600415,0.305646,0.358431,2291.849609,80186.046875,64.384453,168.742752,311.123169,311.123169,306.073547,27.750000,35.615353,48.736996,48.709888,1980.726440,311.123169,-0.621894,-1.136364,-0.064893,0.000956,0.000340,0.000335,0,1,0,38.976376,1,0.380000,0,15,0,202
153, 101,53498,53495,2924,0,0,3.501331,-0.302053,45.774712,0.703481,-1.560191,36.076508,-62.218647,-113.914062,-6.182403,3.628388,-0.172324,45.196880,3.524860,0.442013,0.090838,95.371072,-178.128765,-123.812096,0.647072,-0.599488,0.306328,0.357877,0.647072,-0.599488,0.306328,0.357877,2306.157471,80186.046875,57.410244,170.727509,325.431030,325.431030,315.569794,27.750000,35.615353,45.909420,45.342617,1980.726440,325.431030,-0.622186,-1.139141,-0.061824,0.000957,0.000340,0.000335,0,1,0,37.395844,1,0.380000,0,15,0,202
154, 101,53565,53559,2991,0,0,3.868892,-1.177703,44.092995,1.805499,-1.644243,34.409679,-62.174805,-114.147911,-6.767027,3.896448,-1.273286,43.966675,3.523278,0.435404,0.047363,95.446491,-178.278934,-123.806440,0.647877,-0.598602,0.306984,0.357340,0.647877,-0.598602,0.306984,0.357340,2306.157471,80186.046875,53.875492,172.498795,325.431030,325.431030,324.716705,27.750000,35.615353,44.278072,44.157356,1980.726440,325.431030,-0.621748,-1.141479,-0.067670,0.000957,0.000340,0.000335,0,1,0,34.737011,1,0.390000,0,15,0,202
155, 101,53623,53616,3049,0,0,3.297713,-1.300156,41.475273,-0.130100,-1.504478,33.120872,-62.145573,-114.337906,-6.591640,3.523078,-2.106188,40.883984,3.725982,0.548658,0.053322,95.513359,-178.409773,-123.801386,0.648583,-0.597822,0.307552,0.356877,0.648583,-0.597822,0.307552,0.356877,2321.020508,80186.046875,61.689400,173.978241,340.294067,340.294067,333.290833,27.750000,35.615353,41.626480,41.089516,1980.726440,340.294067,-0.621456,-1.143379,-0.065916,0.000957,0.000341,0.000335,0,1,0,33.427166,1,0.390000,0,15,0,202
156, 101,53695,53689,3121,0,0,2.803283,-0.881505,40.494507,1.282965,-2.120180,30.724293,-62.364803,-114.571762,-6.547793,2.503492,-0.387730,40.304783,3.665936,0.367284,0.025061,95.592500,-178.573329,-123.797548,0.649447,-0.596877,0.308264,0.356271,0.649447,-0.596877,0.308264,0.356271,2335.739258,80186.046875,61.725269,175.630112,355.012817,355.012817,343.627106,27.750000,35.615353,40.600994,40.384319,1980.726440,355.012817,-0.623648,-1.145718,-0.065478,0.000957,0.000341,0.000335,0,1,0,31.199648,1,0.390000,0,15,0,202
157, 101,53750,53746,3176,0,0,2.799081,-1.642516,38.641567,2.050900,-2.412832,28.847097,-62.218647,-113.782524,-6.387022,2.819420,-1.751966,38.471443,3.785246,0.561936,-0.014817,95.662796,-178.709495,-123.795662,0.650192,-0.596067,0.308837,0.355772,0.650192,-0.596067,0.308837,0.355772,2335.739258,80186.046875,58.364883,176.970078,355.012817,355.012817,352.415680,27.750000,35.615353,38.777615,38.614380,1980.726440,355.012817,-0.617656,-1.141771,-0.054955,0.000957,0.000341,0.000335,0,1,0,29.292013,1,0.390000,0,15,0,202
158, 101,53823,53818,3249,0,0,1.324182,-0.609980,37.862682,0.501731,-3.036383,27.964552,-61.648643,-114.235603,-6.080093,1.282860,-0.579202,37.844372,3.684630,0.380654,0.053454,95.747969,-178.877928,-123.792534,0.651100,-0.595071,0.309555,0.355155,0.651100,-0.595071,0.309555,0.355155,2350.823730,80186.046875,60.289822,178.541519,370.097290,370.097290,364.156982,27.750000,35.615353,37.890739,37.870537,1980.726440,370.097290,-0.616486,-1.142356,-0.060801,0.000956,0.000342,0.000335,0,1,0,28.020796,1,0.390000,0,15,0,202
159, 101,53879,53875,3305,0,0,2.387815,0.099969,36.550064,0.615991,-1.677615,26.783491,-62.174805,-113.680206,-6.518562,2.417330,0.119670,36.513641,3.739164,0.421388,0.110822,95.818907,-179.014532,-123.787029,0.651835,-0.594242,0.310147,0.354677,0.651835,-0.594242,0.310147,0.354677,2350.823730,80186.046875,42.659733,179.685104,370.097290,370.097290,371.605621,27.750000,35.615353,36.628117,36.593769,1980.726440,370.097290,-0.621748,-1.136802,-0.065186,0.000957,0.000342,0.000335,0,1,0,26.869715,1,0.390000,0,15,0,202
160, 101,54156,54148,3582,0,0,0.666931,-0.490944,28.625675,0.957496,-2.458790,19.429228,-61.765564,-114.001755,-7.044724,0.440385,-0.469106,28.328230,4.039420,0.509013,-0.024635,96.160929,-179.692004,-123.778095,0.655461,-0.590217,0.313024,0.352180,0.655461,-0.590217,0.313024,0.352180,2399.253418,80186.046875,22.601952,184.669281,418.526978,418.526978,418.418213,27.750000,35.615353,28.637651,28.335537,1980.726440,418.526978,-0.617656,-1.140018,-0.070447,0.000954,0.000345,0.000335,0,1,0,21.883610,1,0.390000,0,15,0,202
161, 101,54214,54210,3640,0,0,1.236138,-1.063484,27.069986,1.489991,-2.504435,17.161028,-62.072491,-114.367142,-6.825490,1.292434,-1.120109,26.916126,3.970650,0.464725,0.136430,96.230037,-179.828116,-123.774817,0.656182,-0.589397,0.313609,0.351689,0.656182,-0.589397,0.313609,0.351689,2416.215332,80186.046875,47.885223,185.488831,435.488892,435.488892,427.338593,27.750000,35.615353,27.119055,26.970407,1980.726440,435.488892,-0.620725,-1.143671,-0.068255,0.000955,0.000345,0.000335,0,1,0,17.554590,1,0.390000,0,15,0,202
162, 101,54269,54262,3695,0,0,0.094988,-0.593348,25.785587,0.599019,-3.041628,15.882513,-61.560947,-114.250221,-7.541654,0.062228,-0.579202,25.752935,4.059261,0.504432,-0.034340,96.298243,-179.962480,-123.772549,0.656895,-0.588589,0.314182,0.351199,0.656895,-0.588589,0.314182,0.351199,2433.803711,80186.046875,88.297760,186.283539,453.077271,453.077271,438.283905,27.750000,35.615353,25.792587,25.759523,1980.726440,453.077271,-0.615609,-1.142502,-0.075417,0.000955,0.000346,0.000335,0,1,0,16.182461,1,0.390000,0,15,0,202
163, 101,54327,54322,3753,0,0,0.836185,-0.981225,25.024071,1.320737,-2.624564,15.083402,-61.926334,-114.133301,-6.737796,0.909490,-1.019586,24.948755,4.038354,0.503573,0.085633,96.363410,179.907811,-123.771169,0.657581,-0.587814,0.314734,0.350720,0.657581,-0.587814,0.314734,0.350720,2433.803711,80186.046875,77.115555,186.952499,453.077271,453.077271,447.616852,27.750000,35.615353,25.057257,24.986139,1980.726440,453.077271,-0.619263,-1.141333,-0.067378,0.000955,0.000346,0.000335,0,1,0,15.268085,1,0.390000,0,15,0,202
164, 101,54384,54366,3810,0,0,0.422389,-0.773745,22.961882,0.984208,-2.658010,13.002320,-61.663258,-114.367142,-7.512424,0.033508,-0.770673,22.785126,4.067594,0.511902,-0.004082,96.451458,179.734925,-123.769475,0.658499,-0.586773,0.315464,0.350084,0.658499,-0.586773,0.315464,0.350084,2470.381348,80186.046875,70.344467,187.795715,489.654907,489.654907,459.789734,27.750000,35.615353,22.978798,22.798180,1980.726440,489.654907,-0.612686,-1.143087,-0.075124,0.000956,0.000347,0.000335,0,1,0,13.509607,1,0.390000,0,15,0,202
165, 101,54463,54455,3889,0,0,0.257450,-0.701061,22.058094,0.899252,-2.687861,12.086988,-62.087105,-114.264832,-6.474715,0.268060,-0.694085,21.980946,4.073715,0.490704,0.122085,96.544553,179.549622,-123.767194,0.659473,-0.585660,0.316254,0.349402,0.659473,-0.585660,0.316254,0.349402,2470.381348,80186.046875,120.255646,188.731674,489.654907,489.654907,475.343994,27.750000,35.615353,22.070734,21.993534,1980.726440,489.654907,-0.620871,-1.142648,-0.064747,0.000957,0.000347,0.000335,0,1,0,12.284355,1,0.380000,0,15,0,202
166, 101,54520,54519,3946,0,0,0.206790,-0.424202,20.092531,0.687452,-2.384416,10.143285,-61.575562,-114.250221,-7.541654,0.201045,-0.397304,19.903477,4.041032,0.442001,-0.037042,96.635408,179.372925,-123.765500,0.660410,-0.584585,0.316999,0.348756,0.660410,-0.584585,0.316999,0.348756,2489.595703,80186.046875,101.185364,189.587372,508.869263,508.869263,489.986694,27.750000,35.615353,20.098074,19.908457,1980.726440,508.869263,-0.615756,-1.142502,-0.075417,0.000957,0.000347,0.000335,0,1,0,10.626891,1,0.380000,0,15,0,202
167, 101,54588,54584,4014,0,0,0.533763,-0.912270,19.526663,1.325794,-2.346061,9.567685,-61.780178,-114.381752,-6.913184,1.096175,-0.995653,18.950907,3.999909,0.482448,0.102961,96.720588,179.205258,-123.763479,0.661290,-0.583568,0.317712,0.348142,0.661290,-0.583568,0.317712,0.348142,2509.276611,80186.046875,109.338181,190.329941,528.550171,528.550171,503.913696,27.750000,35.615353,19.555248,19.008677,1980.726440,528.550171,-0.617802,-1.143818,-0.069132,0.000958,0.000348,0.000335,0,1,0,10.795522,1,0.390000,0,15,0,202
168, 101,54643,54641,4069,0,0,-0.098475,-0.661677,18.168972,0.793736,-2.595011,8.176624,-61.897106,-114.498688,-7.234727,-0.588775,-0.521760,17.811649,4.018276,0.436364,0.044551,96.795440,179.058860,-123.760678,0.662056,-0.582672,0.318338,0.347614,0.662056,-0.582672,0.318338,0.347614,2509.276611,80186.046875,92.526978,190.983810,528.550171,528.550171,516.603394,27.750000,35.615353,18.181282,17.829014,1980.726440,528.550171,-0.619263,-1.146595,-0.071616,0.000957,0.000348,0.000335,0,1,0,9.086611,1,0.390000,0,15,0,202
169, 101,54719,54715,4145,0,0,-1.404532,-0.886182,16.780567,0.285431,-3.661552,6.656734,-62.320961,-114.615608,-6.693949,-1.431251,-0.895130,16.748981,4.018943,0.413755,0.008411,96.892148,178.875756,-123.761716,0.663041,-0.581544,0.319089,0.346937,0.663041,-0.581544,0.319089,0.346937,2529.244873,80186.046875,83.309029,191.730270,548.518433,548.518433,533.376648,27.750000,35.615353,16.862547,16.833838,1980.726440,548.518433,-0.623210,-1.146156,-0.066939,0.000957,0.000348,0.000335,0,1,0,6.748669,1,0.390000,0,15,0,202
170, 101,54774,54772,4200,0,0,0.208928,-0.815710,15.478324,1.137760,-2.152941,5.507752,-61.853260,-113.709435,-6.664718,0.253700,-0.813755,15.442187,4.049807,0.453402,0.157281,96.969056,178.727691,-123.757755,0.663814,-0.580624,0.319726,0.346414,0.663814,-0.580624,0.319726,0.346414,2549.588867,80186.046875,110.553856,192.363754,568.862427,568.862427,548.962769,27.750000,35.615353,15.501211,15.465694,1980.726440,568.862427,-0.618533,-1.137094,-0.066647,0.000957,0.000348,0.000335,0,1,0,5.592247,1,0.390000,0,15,0,202
171, 101,54850,54848,4276,0,0,-1.695176,-1.044959,14.289593,0.292435,-3.733184,4.132264,-62.043262,-114.425613,-6.460100,-2.939090,-1.167977,14.202409,4.135155,0.453191,-0.058969,97.069364,178.533714,-123.758725,0.664840,-0.579435,0.320530,0.345693,0.664840,-0.579435,0.320530,0.345693,2549.588867,80186.046875,46.880142,192.839401,568.862427,568.862427,563.398254,27.750000,35.615353,14.427683,14.550286,1980.726440,568.862427,-0.620433,-1.144256,-0.064601,0.000957,0.000349,0.000335,0,1,0,4.619873,1,0.390000,0,15,0,202
172, 101,54905,54906,4331,0,0,0.640264,-2.571637,11.944011,2.830303,-2.366811,1.863915,-61.049400,-113.870216,-6.401637,0.957358,-2.714111,11.718065,4.059835,0.501914,-0.004551,97.147973,178.380540,-123.762823,0.665654,-0.578508,0.321150,0.345102,0.665654,-0.578508,0.321150,0.345102,2570.092773,80186.046875,56.299053,193.187042,589.366333,589.366333,575.049438,27.750000,35.615353,12.234486,12.066316,1980.726440,589.366333,-0.610494,-1.138702,-0.064016,0.000957,0.000349,0.000335,0,1,0,2.408081,2,0.390000,0,15,0,202
173, 101,55186,55183,4612,0,0,-0.655737,-1.219000,7.702802,0.964898,-2.215386,-2.357201,-61.414791,-114.162529,-6.313943,-0.627070,-1.263713,7.481754,4.055206,0.526494,0.061331,97.516564,177.645448,-123.762345,0.669429,-0.574025,0.324260,0.342368,0.669429,-0.574025,0.324260,0.342368,2634.479004,80186.046875,20.985168,194.246063,653.752563,653.752563,637.790588,27.750000,35.615353,7.826180,7.613595,1980.726440,653.752563,-0.614148,-1.141625,-0.063139,0.000954,0.000352,0.000335,0,1,0,-1.839341,2,0.390000,0,15,0,202
174, 101,55242,55227,4668,0,0,-0.627844,-1.262506,7.487723,1.027238,-2.197222,-2.578043,-61.736332,-113.928673,-6.416252,-0.627070,-1.263713,7.481754,4.031608,0.490140,0.051431,97.592550,177.494951,-123.763369,0.670202,-0.573102,0.324890,0.341804,0.670202,-0.573102,0.324890,0.341804,2634.479004,80186.046875,43.411949,194.252319,653.752563,653.752563,648.473877,27.750000,35.615353,7.619324,7.613595,1980.726440,653.752563,-0.617363,-1.139287,-0.064163,0.000955,0.000352,0.000335,0,1,0,-2.560826,2,0.390000,0,15,0,202
175, 101,55298,55285,4724,0,0,-0.789535,-1.347315,5.629317,0.941203,-2.138703,-4.446756,-61.677872,-113.884827,-6.781643,-0.785034,-1.364236,5.519170,4.016762,0.507495,0.022682,97.667614,177.345616,-123.765309,0.670968,-0.572189,0.325512,0.341238,0.670968,-0.572189,0.325512,0.341238,2656.986328,80186.046875,163.825134,194.365860,676.259888,676.259888,662.180054,27.750000,35.615353,5.841904,5.739221,1980.726440,676.259888,-0.616779,-1.138848,-0.067816,0.000955,0.000353,0.000335,0,1,0,-4.158644,2,0.390000,0,15,0,202
176, 101,55356,55350,4782,0,0,-1.154022,-1.030988,5.003016,0.458725,-2.189589,-5.066009,-61.414791,-114.118683,-6.445484,-1.311581,-0.890343,4.767644,3.990379,0.476280,0.061494,97.734898,177.212072,-123.767126,0.671652,-0.571370,0.326068,0.340733,0.671652,-0.571370,0.326068,0.340733,2679.780029,80186.046875,215.896484,194.370651,699.053589,699.053589,673.062866,27.750000,35.615353,5.236876,5.024280,1980.726440,699.053589,-0.614148,-1.141187,-0.064455,0.000956,0.000353,0.000335,0,1,0,-4.524048,2,0.390000,0,15,0,202
177, 101,55413,55402,4839,0,0,-0.871729,-1.146787,4.172873,0.597974,-1.981169,-5.730917,-61.414791,-114.484070,-7.249342,-0.832902,-1.167977,4.107067,4.011093,0.484198,0.081777,97.807353,177.070209,-123.767713,0.672378,-0.570490,0.326663,0.340207,0.672378,-0.570490,0.326663,0.340207,2679.780029,80186.046875,131.650375,194.357071,699.053589,699.053589,684.357788,27.750000,35.615353,4.414511,4.350390,1980.726440,699.053589,-0.614148,-1.144841,-0.072493,0.000957,0.000353,0.000335,0,1,0,-5.223455,2,0.390000,0,15,0,202
178, 101,55495,55491,4921,0,0,-0.927671,-1.153566,2.487481,0.579078,-1.737633,-7.559538,-61.268635,-114.469460,-6.942414,-0.737166,-1.273286,2.149269,4.006577,0.491854,0.060566,97.916246,176.855331,-123.769475,0.673472,-0.569161,0.327562,0.339404,0.673472,-0.569161,0.327562,0.339404,2703.331787,80186.046875,119.938232,194.427979,722.605347,722.605347,704.488403,27.750000,35.615353,2.894624,2.604617,1980.726440,722.605347,-0.612686,-1.144695,-0.069424,0.000958,0.000353,0.000335,0,1,0,-6.773986,2,0.380000,0,15,0,202
179, 101,55550,55542,4976,0,0,-1.182263,-1.278766,1.631328,0.548578,-1.840788,-8.296486,-61.517101,-113.694824,-6.767027,-1.220632,-1.282860,1.570068,3.965738,0.511847,0.058731,97.987069,176.714397,-123.771115,0.674185,-0.568292,0.328152,0.338873,0.674185,-0.568292,0.328152,0.338873,2727.047852,80186.046875,121.291176,194.386276,746.321411,746.321411,716.554932,27.750000,35.615353,2.386256,2.366597,1980.726440,746.321411,-0.615171,-1.136948,-0.067670,0.000959,0.000354,0.000335,0,1,0,-7.786454,2,0.380000,0,15,0,202
180, 101,55624,55621,5050,0,0,-1.247541,-1.012612,1.012816,0.209096,-1.724851,-9.033728,-61.414791,-114.381752,-6.036247,-1.249352,-1.005226,0.995653,3.946788,0.469026,0.031666,98.077179,176.536402,-123.774393,0.675091,-0.567192,0.328889,0.338197,0.675091,-0.567192,0.328889,0.338197,2727.047852,80186.046875,101.531502,194.365051,746.321411,746.321411,734.079041,27.750000,35.615353,1.899352,1.887508,1980.726440,746.321411,-0.614148,-1.143818,-0.060362,0.000958,0.000354,0.000335,0,1,0,-8.990502,2,0.390000,0,15,0,202
181, 101,55680,55680,5106,0,0,-1.327477,-1.121261,0.165498,0.204027,-1.731023,-9.894496,-61.107861,-114.177147,-6.197019,-1.086601,-1.426464,-0.095736,3.940057,0.517860,0.056430,98.152967,176.384649,-123.776907,0.675855,-0.566258,0.329523,0.337621,0.675855,-0.566258,0.329523,0.337621,2751.181885,80186.046875,97.005203,194.378571,770.455444,770.455444,750.246094,27.750000,35.615353,1.745511,1.795736,1980.726440,770.455444,-0.611079,-1.141771,-0.061970,0.000958,0.000354,0.000335,0,1,0,-9.244008,2,0.390000,0,15,0,202
182, 101,55752,55741,5178,0,0,-1.076351,-0.771528,-0.896214,-0.016262,-1.181537,-10.878355,-61.297863,-114.761772,-5.860859,-1.062668,-0.502613,-1.249352,3.929808,0.506599,0.026488,98.231603,176.225779,-123.779830,0.676649,-0.565283,0.330187,0.337014,0.676649,-0.565283,0.330187,0.337014,2775.585449,80186.046875,95.770851,194.247879,794.859009,794.859009,764.895996,27.750000,35.615353,1.599058,1.715449,1980.726440,794.859009,-0.612979,-1.147618,-0.058609,0.000958,0.000354,0.000335,0,1,0,-10.147836,2,0.390000,0,15,0,202
183, 101,55808,55801,5234,0,0,-2.474015,-0.602600,-1.348958,-0.914664,-2.106318,-11.398060,-61.721718,-114.206375,-7.176264,-2.513065,-0.603136,-1.354662,3.931225,0.533009,0.028982,98.305021,176.077523,-123.783819,0.677392,-0.564375,0.330800,0.336440,0.677392,-0.564375,0.330800,0.336440,2775.585449,80186.046875,95.719070,194.120712,794.859009,794.859009,779.258789,27.750000,35.615353,2.881591,2.917941,1980.726440,794.859009,-0.617217,-1.142064,-0.071763,0.000958,0.000354,0.000335,0,1,0,-11.320783,2,0.390000,0,15,0,202
184, 101,55883,55880,5309,0,0,-1.152007,-1.800111,-2.141634,0.700302,-1.616848,-12.260572,-61.473255,-114.484070,-6.094709,-1.115322,-1.833341,-2.163630,3.868637,0.520904,0.138659,98.391156,175.902124,-123.784679,0.678254,-0.563291,0.331548,0.335783,0.678254,-0.563291,0.331548,0.335783,2800.211914,80186.046875,95.060760,194.002762,819.485474,819.485474,798.446655,27.750000,35.615353,3.025577,3.047355,1980.726440,819.485474,-0.614733,-1.144841,-0.060947,0.000957,0.000355,0.000335,0,1,0,-12.198370,2,0.390000,0,15,0,202
185, 101,55937,55922,5363,0,0,-1.532778,-1.292068,-3.463028,-0.035577,-1.459841,-13.526454,-61.590176,-113.782524,-6.577024,-1.689737,-1.421677,-3.791139,3.804383,0.474542,0.043033,98.466637,175.754523,-123.788887,0.679002,-0.562370,0.332152,0.335218,0.679002,-0.562370,0.332152,0.335218,2825.192383,80186.046875,87.529778,193.779709,844.465942,844.465942,813.010498,27.750000,35.615353,4.001426,4.387381,1980.726440,844.465942,-0.613271,-1.140164,-0.064601,0.000957,0.000355,0.000335,0,1,0,-12.694221,2,0.390000,0,15,0,202
186, 101,56215,56207,5641,0,0,-1.767426,-0.531399,-5.901145,-1.035710,-0.861077,-15.824163,-61.780178,-113.840988,-6.430868,-1.766326,-0.526547,-5.906900,3.666941,0.438834,0.038031,98.802696,175.091599,-123.808066,0.682321,-0.558233,0.334874,0.332676,0.682321,-0.558233,0.334874,0.332676,2875.726074,80186.046875,29.912687,192.504440,894.999634,894.999634,887.128357,27.750000,35.615353,6.183017,6.187780,1980.726440,894.999634,-0.617802,-1.138410,-0.064309,0.000955,0.000357,0.000335,0,1,0,-15.782445,2,0.390000,0,15,0,202
187, 101,56272,56271,5698,0,0,-1.783849,-1.842490,-6.437812,-0.029179,-1.481679,-16.570496,-61.707104,-114.323296,-6.606256,-1.785473,-1.972158,-6.490889,3.642904,0.490931,0.015558,98.867084,174.962618,-123.812724,0.682960,-0.557432,0.335403,0.332173,0.682960,-0.557432,0.335403,0.332173,2901.354492,80186.046875,66.939987,192.090942,920.628052,920.628052,900.052551,27.750000,35.615353,6.929813,7.014910,1980.726440,920.628052,-0.617071,-1.143233,-0.066063,0.000955,0.000357,0.000335,0,1,0,-16.381916,2,0.390000,0,15,0,202
188, 101,56328,56312,5754,0,0,-1.727126,-0.827792,-7.089878,-0.049117,-2.183616,-16.824072,-61.736332,-114.250221,-6.737796,-1.440824,-0.215406,-7.309430,3.594500,0.363589,0.097438,98.917559,174.863675,-123.816535,0.683455,-0.556812,0.335805,0.331790,0.683455,-0.556812,0.335805,0.331790,2926.990723,80186.046875,119.335350,191.708527,946.264282,946.264282,908.779907,27.750000,35.615353,7.344016,7.453197,1980.726440,946.264282,-0.617363,-1.142502,-0.067378,0.000956,0.000358,0.000335,0,1,0,-16.758657,2,0.390000,0,15,0,202
189, 101,56388,56383,5814,0,0,-1.466591,-0.270520,-7.289670,-1.261176,-0.225062,-17.130539,-61.429405,-113.797142,-6.810874,-1.440824,-0.215406,-7.309430,3.587430,0.338751,0.126568,99.001024,174.709136,-123.818516,0.684237,-0.555802,0.336439,0.331229,0.684237,-0.555802,0.336439,0.331229,2926.990723,80186.046875,107.812439,191.242325,946.264282,946.264282,926.253113,27.750000,35.615353,7.440656,7.453197,1980.726440,946.264282,-0.614294,-1.137971,-0.068109,0.000957,0.000358,0.000335,0,1,0,-17.109629,2,0.390000,0,15,0,202
190, 101,56444,56431,5870,0,0,-2.597463,-0.714782,-8.470737,-1.283700,-2.091671,-18.180164,-61.692490,-113.987137,-7.132418,-2.379035,-0.402090,-8.659305,3.503457,0.362060,0.091170,99.061765,174.594675,-123.822696,0.684817,-0.555068,0.336898,0.330794,0.684817,-0.555068,0.336898,0.330794,2952.914551,80186.046875,106.081398,190.750656,972.188110,972.188110,935.750244,27.750000,35.615353,8.888820,8.989162,1980.726440,972.188110,-0.616925,-1.139871,-0.071324,0.000957,0.000358,0.000335,0,1,0,-17.911524,2,0.390000,0,15,0,202
191, 101,56528,56526,5954,0,0,-2.546104,-0.502009,-9.085456,-1.882377,-0.939448,-19.012638,-61.794800,-114.513306,-6.503946,-2.556146,-0.502613,-9.133198,3.496827,0.420078,0.009997,99.164177,174.399072,-123.828639,0.685795,-0.553815,0.337694,0.330055,0.685795,-0.553815,0.337694,0.330055,2952.914551,80186.046875,112.083374,190.079849,972.188110,972.188110,957.192017,27.750000,35.615353,9.448818,9.497463,1980.726440,972.188110,-0.617948,-1.145133,-0.065039,0.000958,0.000359,0.000335,0,1,0,-18.890350,2,0.380000,0,15,0,202
192, 101,56584,56572,6010,0,0,-2.641252,-0.692987,-9.843742,-2.131643,-1.430590,-19.537571,-61.648643,-114.001755,-6.650102,-2.431690,-0.703658,-9.970886,3.410513,0.402297,0.077519,99.220013,174.291046,-123.832231,0.686332,-0.553127,0.338134,0.329643,0.686332,-0.553127,0.338134,0.329643,2978.858887,80186.046875,123.564232,189.759918,998.132446,998.132446,970.313477,27.750000,35.615353,10.215465,10.287216,1980.726440,998.132446,-0.616486,-1.140018,-0.066501,0.000958,0.000359,0.000335,0,1,0,-19.403524,2,0.380000,0,15,0,202
193, 101,56655,56652,6081,0,0,-2.864234,-0.786134,-10.189608,-1.977518,-1.157628,-20.164362,-61.663258,-113.811752,-6.767027,-2.900795,-0.794607,-10.215012,3.383269,0.401090,0.035041,99.298151,174.138979,-123.837149,0.687082,-0.552160,0.338756,0.329063,0.687082,-0.552160,0.338756,0.329063,3004.652344,80186.046875,133.124344,189.380890,1023.925903,1023.925903,991.690857,27.750000,35.615353,10.613667,10.648590,1980.726440,1023.925903,-0.616633,-1.138118,-0.067670,0.000958,0.000359,0.000335,0,1,0,-20.089657,2,0.390000,0,15,0,202
194, 101,56711,56711,6137,0,0,-2.621026,-0.715971,-10.623789,-1.969201,-0.836792,-20.555967,-61.634029,-113.797142,-6.723180,-2.594441,-0.708445,-10.664970,3.356956,0.416266,0.061525,99.364820,174.008440,-123.842039,0.687724,-0.551333,0.339289,0.328560,0.687724,-0.551333,0.339289,0.328560,3004.652344,80186.046875,114.830521,188.860504,1023.925903,1023.925903,1006.669434,27.750000,35.615353,10.965732,10.998846,1980.726440,1023.925903,-0.616340,-1.137971,-0.067232,0.000958,0.000359,0.000335,0,1,0,-20.461191,2,0.390000,0,15,0,202
195, 101,56783,56774,6209,0,0,-3.149407,-0.745909,-11.399751,-2.345063,-1.151840,-21.359694,-62.145573,-114.250221,-6.445484,-3.164069,-0.746739,-11.421283,3.309480,0.379399,0.032256,99.435253,173.872355,-123.847818,0.688398,-0.550465,0.339838,0.328035,0.688398,-0.550465,0.339838,0.328035,3030.404297,80186.046875,89.149551,188.402359,1049.677856,1049.677856,1024.922852,27.750000,35.615353,11.850293,11.874959,1980.726440,1049.677856,-0.621456,-1.142502,-0.064455,0.000958,0.000360,0.000335,0,1,0,-21.302532,2,0.390000,0,15,0,202
196, 101,56840,56833,6266,0,0,-3.187463,-0.492730,-11.925325,-2.657645,-0.949296,-21.828131,-61.546333,-113.607132,-7.103186,-3.374688,-0.349436,-11.966978,3.253353,0.370126,0.018491,99.501178,173.744836,-123.853296,0.689027,-0.549652,0.340353,0.327542,0.689027,-0.549652,0.340353,0.327542,3056.155029,80186.046875,134.869598,187.971329,1075.428589,1075.428589,1042.659180,27.750000,35.615353,12.353788,12.438617,1980.726440,1075.428589,-0.615463,-1.136071,-0.071032,0.000958,0.000360,0.000335,0,1,0,-21.748148,2,0.390000,0,15,0,202
197, 101,56914,56912,6340,0,0,-2.876590,-0.202493,-12.384815,-2.808696,-0.444590,-22.195070,-61.677872,-113.899445,-6.270096,-2.828994,-0.186685,-12.426510,3.238461,0.401812,0.066043,99.582191,173.588192,-123.860577,0.689800,-0.548653,0.340983,0.326934,0.689800,-0.548653,0.340983,0.326934,3056.155029,80186.046875,102.044685,187.229782,1075.428589,1075.428589,1061.427856,27.750000,35.615353,12.716108,12.745831,1980.726440,1075.428589,-0.616779,-1.138994,-0.062701,0.000958,0.000360,0.000335,0,1,0,-22.108299,2,0.390000,0,15,0,202
198, 101,56968,56955,6394,0,0,-2.154934,-1.039443,-13.226482,-1.841160,-0.139885,-23.114698,-61.853260,-114.016365,-7.351652,-2.134909,-1.062668,-13.249838,3.193821,0.403885,0.050517,99.645193,173.463582,-123.865399,0.690404,-0.547863,0.341494,0.326453,0.690404,-0.547863,0.341494,0.326453,3082.145020,80186.046875,100.675980,186.714691,1101.418579,1101.418579,1078.373047,27.750000,35.615353,13.441132,13.462737,1980.726440,1101.418579,-0.622917,-1.140164,-0.073517,0.000958,0.000360,0.000335,0,1,0,-23.048744,2,0.390000,0,15,0,202
199, 101,57245,57244,6671,0,0,-3.970294,-3.325199,-16.139194,-1.456320,-2.298443,-26.530916,-62.218647,-114.294067,-6.650102,-4.265031,-3.508718,-16.102764,3.105453,0.489835,-0.118662,99.933413,172.888152,-123.894686,0.693178,-0.544237,0.343829,0.324181,0.693178,-0.544237,0.343829,0.324181,3159.459229,80186.046875,67.175995,183.583969,1178.732788,1178.732788,1154.788330,27.750000,35.615353,16.949743,17.023531,1980.726440,1178.732788,-0.622186,-1.142941,-0.066501,0.000955,0.000362,0.000335,0,1,0,-26.472393,2,0.390000,0,15,0,202
200, 101,57301,57294,6727,0,0,-3.695683,-2.865610,-16.146254,-1.712970,-1.811230,-26.424973,-61.560947,-114.264832,-6.752411,-3.489571,-2.613588,-16.160208,2.979860,0.345951,0.069945,99.983301,172.786246,-123.902418,0.693667,-0.543607,0.344234,0.323760,0.693667,-0.543607,0.344234,0.323760,3159.459229,80186.046875,84.352165,182.749008,1178.732788,1178.732788,1164.910767,27.750000,35.615353,16.809856,16.737989,1980.726440,1178.732788,-0.615609,-1.142648,-0.067524,0.000956,0.000362,0.000335,0,1,0,-26.545961,2,0.390000,0,15,0,202
201, 101,57357,57355,6783,0,0,-2.715415,-1.945216,-16.895992,-2.056851,-0.362858,-26.896894,-61.020172,-114.118683,-5.919322,-2.632735,-1.871635,-16.969175,2.955539,0.371606,-0.042265,100.043598,172.670283,-123.908716,0.694233,-0.542861,0.344697,0.323307,0.694233,-0.542861,0.344697,0.323307,3185.302734,80186.046875,94.451431,181.892609,1204.576294,1204.576294,1179.744751,27.750000,35.615353,17.223003,17.273888,1980.726440,1204.576294,-0.610202,-1.141187,-0.059193,0.000956,0.000363,0.000335,0,1,0,-26.767422,2,0.390000,0,15,0,202
202, 101,57414,57410,6840,0,0,-3.223208,-1.921817,-16.895573,-2.390460,-0.755528,-26.925768,-61.750950,-114.425613,-6.138556,-3.465637,-1.933864,-16.873438,2.939374,0.366592,-0.058335,100.100637,172.557940,-123.918428,0.694783,-0.542156,0.345133,0.322842,0.694783,-0.542156,0.345133,0.322842,3185.302734,80186.046875,96.974182,180.926346,1204.576294,1204.576294,1190.851562,27.750000,35.615353,17.307304,17.333879,1980.726440,1204.576294,-0.615609,-1.137387,-0.066063,0.000958,0.000363,0.000335,0,1,0,-26.928923,2,0.390000,0,15,0,202
203, 101,57469,57459,6895,0,0,-3.011571,-1.503883,-17.163595,-2.680341,-0.297634,-27.082418,-61.736332,-114.206375,-6.167788,-2.848140,-1.321154,-17.285103,2.871255,0.331467,0.072354,100.149425,172.463315,-123.924726,0.695243,-0.541551,0.345508,0.322465,0.695243,-0.541551,0.345508,0.322465,3211.614502,80186.046875,113.497009,180.164642,1230.888062,1230.888062,1201.499756,27.750000,35.615353,17.490576,17.567928,1980.726440,1230.888062,-0.617363,-1.142064,-0.061678,0.000958,0.000363,0.000335,0,1,0,-26.923246,2,0.390000,0,15,0,202
204, 101,57555,57552,6981,0,0,-3.167216,-0.960753,-17.005770,-3.242489,-0.141482,-26.819130,-61.809414,-114.030983,-6.313943,-3.494357,-0.804181,-16.911732,2.833826,0.311385,-0.009507,100.238456,172.293789,-123.933154,0.696066,-0.540448,0.346187,0.321811,0.696066,-0.540448,0.346187,0.321811,3237.871582,80186.046875,178.141129,178.885254,1257.145142,1257.145142,1223.166260,27.750000,35.615353,17.324854,17.287682,1980.726440,1257.145142,-0.618094,-1.140310,-0.063139,0.000959,0.000363,0.000335,0,1,0,-27.055895,2,0.380000,0,15,0,202
205, 101,57612,57612,7038,0,0,-3.298218,-0.660305,-17.110291,-3.609406,-0.056315,-26.861050,-61.327099,-113.563286,-7.337036,-3.288526,-0.641430,-17.127138,2.805309,0.354542,0.063213,100.297107,172.181023,-123.940298,0.696613,-0.539722,0.346634,0.321366,0.696613,-0.539722,0.346634,0.321366,3237.871582,80186.046875,141.336975,178.090973,1257.145142,1257.145142,1238.455444,27.750000,35.615353,17.437782,17.451782,1980.726440,1257.145142,-0.613271,-1.135633,-0.073370,0.000959,0.000363,0.000335,0,1,0,-26.832727,2,0.380000,0,15,0,202
206, 101,57681,57676,7107,0,0,-2.347962,-1.522216,-17.312984,-2.437689,0.329024,-27.165300,-62.189419,-113.402512,-6.898568,-2.321594,-1.546134,-17.318609,2.782548,0.347695,0.091898,100.356004,172.065565,-123.944315,0.697157,-0.538974,0.347111,0.320926,0.697157,-0.538974,0.347111,0.320926,3263.695312,80186.046875,129.267349,177.404785,1282.968872,1282.968872,1256.741821,27.750000,35.615353,17.537659,17.541794,1980.726440,1282.968872,-0.621894,-1.134025,-0.068986,0.000959,0.000363,0.000335,0,1,0,-27.144535,2,0.390000,0,15,0,202
207, 101,57736,57737,7162,0,0,-2.780923,-0.429854,-17.161074,-3.586135,0.536184,-26.809025,-61.794800,-113.957909,-6.635486,-2.728471,-0.521760,-17.136711,2.696329,0.331407,0.015628,100.413541,171.956173,-123.951473,0.697689,-0.538264,0.347542,0.320495,0.697689,-0.538264,0.347542,0.320495,3288.998047,80186.046875,149.224396,176.840378,1308.271606,1308.271606,1276.611938,27.750000,35.615353,17.390247,17.360405,1980.726440,1308.271606,-0.617948,-1.139579,-0.066355,0.000959,0.000364,0.000335,0,1,0,-26.832077,2,0.390000,0,15,0,202
208, 101,57807,57800,7233,0,0,-2.664547,-1.015861,-17.302896,-3.094095,0.364893,-27.058331,-61.151707,-114.118683,-6.971645,-2.656669,-1.067454,-17.318609,2.664677,0.321031,0.028788,100.471161,171.843694,-123.958480,0.698226,-0.537542,0.347991,0.320049,0.698226,-0.537542,0.347991,0.320049,3288.998047,80186.046875,89.623421,175.954849,1308.271606,1308.271606,1291.593872,27.750000,35.615353,17.536304,17.553677,1980.726440,1308.271606,-0.611517,-1.141187,-0.069716,0.000959,0.000364,0.000335,0,1,0,-26.993595,2,0.390000,0,15,0,202
209, 101,57865,57861,7291,0,0,-2.639458,-0.839550,-17.213640,-3.244116,0.478595,-26.924891,-61.444019,-114.177147,-6.445484,-2.637522,-0.818541,-17.203726,2.626277,0.261611,0.013820,100.527592,171.737170,-123.965543,0.698744,-0.536847,0.348410,0.319630,0.698744,-0.536847,0.348410,0.319630,3314.003906,80186.046875,81.753563,175.137451,1333.277466,1333.277466,1306.889038,27.750000,35.615353,17.435051,17.423969,1980.726440,1333.277466,-0.614440,-1.141771,-0.064455,0.000959,0.000364,0.000335,0,1,0,-26.963797,2,0.390000,0,15,0,202
210, 101,57941,57921,7367,0,0,-2.556265,-0.827041,-17.164711,-3.407189,0.661198,-26.838385,-61.984802,-113.811752,-6.898568,-2.551359,-0.914277,-17.155861,2.546677,0.323813,0.026328,100.578599,171.637968,-123.971608,0.699216,-0.536207,0.348807,0.319238,0.699216,-0.536207,0.348807,0.319238,3338.664062,80186.046875,140.585800,174.625290,1357.937622,1357.937622,1326.283447,27.750000,35.615353,17.373711,17.368618,1980.726440,1357.937622,-0.619848,-1.138118,-0.068986,0.000958,0.000364,0.000335,0,1,0,-26.846140,2,0.390000,0,15,0,202
211, 101,57997,57984,7423,0,0,-2.673460,-0.437120,-16.907806,-3.513783,0.613428,-26.605848,-61.677872,-114.001755,-6.460100,-2.685390,-0.392517,-16.883011,2.438392,0.258110,0.048249,100.627702,171.542564,-123.977509,0.699670,-0.535590,0.349188,0.318861,0.699670,-0.535590,0.349188,0.318861,3362.843018,80186.046875,111.078110,173.979492,1382.116577,1382.116577,1342.842407,27.750000,35.615353,17.123446,17.099751,1980.726440,1382.116577,-0.616779,-1.140018,-0.064601,0.000958,0.000364,0.000335,0,1,0,-26.865431,2,0.390000,0,15,0,202
212, 101,58271,58260,7697,0,0,-2.733224,-0.924749,-16.242523,-3.256963,0.264312,-25.973269,-61.341713,-113.987137,-6.123940,-2.733258,-0.923851,-16.241583,2.257716,0.220575,0.044281,100.847928,171.126606,-124.006606,0.701675,-0.532869,0.350820,0.317219,0.701675,-0.532869,0.350820,0.317219,3410.106934,80186.046875,27.155382,170.748032,1429.380493,1429.380493,1420.311768,27.750000,35.615353,16.496824,16.495853,1980.726440,1429.380493,-0.615609,-1.140895,-0.061239,0.000955,0.000365,0.000335,0,1,0,-25.984133,2,0.390000,0,15,0,202
213, 101,58327,58324,7753,0,0,-2.319437,-0.745336,-16.250381,-3.199817,0.715590,-25.902531,-61.385559,-114.147911,-6.284712,-2.278512,-0.727592,-16.251158,2.231621,0.208136,0.068947,100.891053,171.048441,-124.010882,0.702054,-0.532342,0.351128,0.316923,0.702054,-0.532342,0.351128,0.316923,3410.106934,80186.046875,13.306137,169.767578,1429.380493,1429.380493,1428.273193,27.750000,35.615353,16.431986,16.426233,1980.726440,1429.380493,-0.613856,-1.141479,-0.062847,0.000955,0.000366,0.000335,0,1,0,-25.920603,2,0.390000,0,15,0,202
214, 101,58385,58370,7811,0,0,-2.408890,-0.767744,-15.952885,-3.381289,0.737528,-25.605352,-61.458633,-114.045593,-6.387022,-2.422117,-0.866409,-15.935228,2.145511,0.246781,0.035155,100.927465,170.980262,-124.015540,0.702382,-0.531893,0.351396,0.316656,0.702382,-0.531893,0.351396,0.316656,3455.460205,80186.046875,88.938301,169.015472,1474.733765,1474.733765,1437.680908,27.750000,35.615353,16.151987,16.141525,1980.726440,1474.733765,-0.614586,-1.140456,-0.063870,0.000956,0.000366,0.000335,0,1,0,-25.681976,2,0.390000,0,15,0,202
215, 101,58445,58444,7871,0,0,-2.390769,-0.840776,-15.829593,-3.139301,0.549400,-25.512196,-61.824028,-114.147911,-6.606256,-2.379035,-0.842475,-15.782050,2.100423,0.228168,0.052317,100.975748,170.888874,-124.021127,0.702816,-0.531291,0.351759,0.316300,0.702816,-0.531291,0.351759,0.316300,3455.460205,80186.046875,135.567123,168.165771,1474.733765,1474.733765,1453.975830,27.750000,35.615353,16.031179,15.982574,1980.726440,1474.733765,-0.618240,-1.141479,-0.066063,0.000957,0.000367,0.000335,0,1,0,-25.622339,2,0.390000,0,15,0,202
216, 101,58500,58496,7926,0,0,-2.195800,-0.688188,-15.772926,-3.167414,0.790730,-25.403006,-61.780178,-114.074829,-5.627010,-2.115762,-0.622283,-15.762904,2.075150,0.208149,0.057180,101.015335,170.815641,-124.025184,0.703166,-0.530801,0.352050,0.316020,0.703166,-0.530801,0.352050,0.316020,3455.460205,80186.046875,115.180855,167.298218,1474.733765,1474.733765,1463.434082,27.750000,35.615353,15.939898,15.916432,1980.726440,1474.733765,-0.617802,-1.140748,-0.056270,0.000958,0.000367,0.000335,0,1,0,-25.478340,2,0.390000,0,15,0,202
217, 101,58586,58585,8012,0,0,-2.236367,-0.509226,-15.568305,-3.334738,0.827651,-25.157669,-61.838646,-113.972519,-6.138556,-2.264152,-0.536121,-15.509203,2.009450,0.255182,0.034642,101.077401,170.699446,-124.032260,0.703718,-0.530030,0.352511,0.315571,0.703718,-0.530030,0.352511,0.315571,3477.442871,80186.046875,81.041634,165.970596,1496.716431,1496.716431,1479.491821,27.750000,35.615353,15.736352,15.682767,1980.726440,1496.716431,-0.618386,-1.139725,-0.061386,0.000959,0.000367,0.000335,0,1,0,-25.276670,2,0.380000,0,15,0,202
218, 101,58642,58628,8068,0,0,-1.901520,-0.686178,-15.514149,-3.335476,0.790879,-25.109474,-61.531715,-113.884827,-5.919322,-1.747179,-0.751526,-15.513989,1.923867,0.210494,0.044246,101.106744,170.641512,-124.035866,0.703986,-0.529655,0.352745,0.315341,0.703986,-0.529655,0.352745,0.315341,3499.014648,80186.046875,128.140106,165.289322,1518.288208,1518.288208,1487.166504,27.750000,35.615353,15.645301,15.630140,1980.726440,1518.288208,-0.615317,-1.140018,-0.062701,0.000959,0.000367,0.000335,0,1,0,-25.122486,2,0.380000,0,15,0,202
219, 101,58711,58708,8137,0,0,-1.768770,-0.379504,-16.467955,-3.369564,1.474706,-25.954556,-62.116344,-113.694824,-5.948553,-1.766326,-0.344649,-16.562298,1.862278,0.206767,0.019738,101.154343,170.552747,-124.041850,0.704409,-0.529065,0.353094,0.314995,0.704409,-0.529065,0.353094,0.314995,3520.389160,80186.046875,155.013260,164.614548,1539.662720,1539.662720,1508.244507,27.750000,35.615353,16.567019,16.659784,1980.726440,1539.662720,-0.621163,-1.136948,-0.059486,0.000958,0.000367,0.000335,0,1,0,-25.742441,2,0.390000,0,15,0,202
220, 101,58766,58752,8192,0,0,-1.649953,-0.718194,-16.331530,-3.025199,1.379971,-25.891396,-61.926334,-113.417122,-5.495469,-1.646656,-0.727592,-16.327744,1.821638,0.238000,0.011947,101.191411,170.480251,-124.047382,0.704748,-0.528597,0.353381,0.314703,0.704748,-0.528597,0.353381,0.314703,3520.389160,80186.046875,122.649658,163.838211,1539.662720,1539.662720,1522.270020,27.750000,35.615353,16.430368,16.426687,1980.726440,1539.662720,-0.617509,-1.138264,-0.057732,0.000958,0.000367,0.000335,0,1,0,-25.896914,2,0.390000,0,15,0,202
221, 101,58838,58832,8264,0,0,-1.776486,-0.686292,-15.928402,-3.074991,1.224439,-25.497690,-61.926334,-113.840988,-6.065478,-1.742392,-0.622283,-15.829918,1.718815,0.177030,0.041538,101.230903,170.405707,-124.053065,0.705101,-0.528106,0.353673,0.314407,0.705101,-0.528106,0.353673,0.314407,3541.600586,80186.046875,68.042122,162.892639,1560.874146,1560.874146,1535.139648,27.750000,35.615353,16.041849,15.937675,1980.726440,1560.874146,-0.619263,-1.138410,-0.060655,0.000958,0.000367,0.000335,0,1,0,-25.764666,2,0.390000,0,15,0,202
222, 101,58893,58878,8319,0,0,-1.646141,-0.774795,-15.651636,-2.903348,1.242935,-25.238276,-61.677872,-113.855598,-6.796259,-1.603575,-0.837689,-15.571431,1.666059,0.171063,0.049503,101.268934,170.336312,-124.056972,0.705432,-0.527637,0.353947,0.314143,0.705432,-0.527637,0.353947,0.314143,3562.358887,80186.046875,104.641197,162.096512,1581.632446,1581.632446,1549.928223,27.750000,35.615353,15.757024,15.676181,1980.726440,1581.632446,-0.616779,-1.138556,-0.067963,0.000959,0.000368,0.000335,0,1,0,-25.392141,2,0.390000,4,15,4,202
223, 101,58965,58959,8391,0,0,-1.844303,-0.609479,-15.408070,-3.125275,1.126886,-24.971508,-61.794800,-114.279449,-6.416252,-1.866848,-0.588775,-15.389533,1.627119,0.171386,0.019813,101.306390,170.267081,-124.061753,0.705762,-0.527174,0.354219,0.313874,0.705762,-0.527174,0.354219,0.313874,3562.358887,80186.046875,102.101379,161.270447,1581.632446,1581.632446,1564.481934,27.750000,35.615353,15.530020,15.513527,1980.726440,1581.632446,-0.617948,-1.142794,-0.064163,0.000959,0.000368,0.000335,0,1,0,-25.028618,2,0.390000,4,15,4,202
224, 101,59019,59004,8445,0,0,-2.019939,-0.892075,-15.110580,-2.958151,0.784112,-24.762287,-61.853260,-114.805618,-6.343175,-2.024813,-0.899917,-15.102325,1.561346,0.202841,0.063256,101.339851,170.202003,-124.064799,0.706059,-0.526745,0.354485,0.313624,0.706059,-0.526745,0.354485,0.313624,3582.916016,80186.046875,99.951408,160.589142,1602.189575,1602.189575,1580.287354,27.750000,35.615353,15.271070,15.264009,1980.726440,1602.189575,-0.618533,-1.144402,-0.065186,0.000959,0.000368,0.000335,0,1,0,-24.778202,2,0.390000,4,15,4,202
225, 101,59295,59285,8721,0,0,-1.587444,-0.691984,-14.025775,-2.746357,1.026490,-23.655031,-61.473255,-113.987137,-6.021631,-1.574854,-0.674938,-14.015724,1.281408,0.128594,0.031736,101.471005,169.952401,-124.078036,0.707213,-0.525084,0.355493,0.312667,0.707213,-0.525084,0.355493,0.312667,3661.161133,80186.046875,53.512291,157.969101,1680.434692,1680.434692,1655.609009,27.750000,35.615353,14.132275,14.120065,1980.726440,1680.434692,-0.614733,-1.139871,-0.060216,0.000955,0.000369,0.000335,0,1,0,-23.771477,2,0.390000,4,15,4,202
226, 101,59353,59336,8779,0,0,-1.706667,-0.478777,-13.865845,-2.770661,1.083510,-23.607847,-61.283249,-114.001755,-5.510085,-1.761539,-0.392517,-13.800318,1.260222,0.133589,0.021694,101.490375,169.917184,-124.080468,0.707381,-0.524846,0.355631,0.312531,0.707381,-0.524846,0.355631,0.312531,3661.161133,80186.046875,65.702591,157.390518,1680.434692,1680.434692,1664.430420,27.750000,35.615353,13.978683,13.917826,1980.726440,1680.434692,-0.612832,-1.140018,-0.055101,0.000956,0.000369,0.000335,0,1,0,-23.620901,2,0.390000,4,15,4,202
227, 101,59408,59405,8834,0,0,-1.786757,-0.514206,-13.735849,-2.983936,0.947535,-23.303917,-61.487873,-114.089455,-5.290851,-1.804620,-0.555268,-13.699796,1.235498,0.155478,0.027762,101.518987,169.863321,-124.084388,0.707633,-0.524488,0.355843,0.312319,0.707633,-0.524488,0.355843,0.312319,3680.016602,80186.046875,77.458710,156.465256,1699.290161,1699.290161,1676.648804,27.750000,35.615353,13.861114,13.829294,1980.726440,1699.290161,-0.614879,-1.140895,-0.052909,0.000957,0.000370,0.000335,0,1,0,-23.360970,2,0.390000,4,15,0,202
228, 101,59478,59453,8904,0,0,-1.712662,-0.636923,-13.517819,-2.850125,0.910061,-23.156351,-61.268635,-113.709435,-5.539316,-1.704098,-0.646217,-13.498752,1.154673,0.148538,0.060418,101.538576,169.824922,-124.086355,0.707807,-0.524236,0.356000,0.312170,0.707807,-0.524236,0.356000,0.312170,3680.016602,80186.046875,90.094376,155.803513,1699.290161,1699.290161,1685.541260,27.750000,35.615353,13.640759,13.621227,1980.726440,1699.290161,-0.612686,-1.137094,-0.055393,0.000958,0.000370,0.000335,0,1,0,-23.287197,2,0.390000,4,15,0,202
229, 101,59535,59526,8961,0,0,-1.386882,-0.475497,-13.343652,-2.746399,1.232674,-22.883064,-61.122478,-113.884827,-6.518562,-1.354662,-0.459532,-13.326427,1.103818,0.129456,0.050523,101.565193,169.773723,-124.088281,0.708039,-0.523894,0.356211,0.311978,0.708039,-0.523894,0.356211,0.311978,3698.582031,80186.046875,103.902634,154.918945,1717.855591,1717.855591,1698.917114,27.750000,35.615353,13.423956,13.402982,1980.726440,1717.855591,-0.611225,-1.138848,-0.065186,0.000958,0.000370,0.000335,0,1,0,-22.943293,2,0.390000,4,15,0,202
230, 101,59615,59613,9041,0,0,-1.559567,-0.504789,-13.020950,-2.774135,1.016377,-22.587843,-61.195557,-114.206375,-6.533177,-1.570068,-0.507400,-13.000925,1.055448,0.156288,0.001243,101.595253,169.712811,-124.092735,0.708312,-0.523503,0.356458,0.311731,0.708312,-0.523503,0.356458,0.311731,3716.833984,80186.046875,70.069977,153.889191,1736.107544,1736.107544,1715.989502,27.750000,35.615353,13.123728,13.105213,1980.726440,1736.107544,-0.611663,-1.140602,-0.069570,0.000959,0.000370,0.000335,0,1,0,-22.635044,2,0.380000,4,15,0,202
