index, checksum,uptime mp,uptime nav,missiontime,  errorflag mp,errorflag NAV,  accel x, accel y, accel z, accelworld x, accelworld y, accelworld z, accelhighg x, accelhighg y, accelhighg z, gyro x, gyro y, gyro z, euler x, euler y, euler z, quat w, quat x, quat y, quat z, altitude, presusre, verticalvel,filtered vvel, maxalt, altitudeagl, filtered alt, imutemp, barotemp,state,battstate,pyros fired,pyros cont,pyros state, checksum2
10684, 101,13808,13797,-7140,1,1,-0.644718,9.865020,1.379109,0.155634,-0.036222,0.179515,11.341324,2.965941,-4.692398,0.577048,0.134103,-2.149967,172.106738,160.741371,178.098221,0.983246,-0.070618,0.165727,-0.027834,1388.949951,86256.101562,6.288438,2.335531,5.374756,4.563721,4.233976,15.500000,20.809402,0,2.880000,0,0,0, 202
10685, 101,13858,13849,-7090,1,1,-0.687858,9.769452,1.421607,0.129453,-0.101919,0.093906,10.860798,2.965941,-5.172924,1.033653,-0.902681,-1.045359,172.105454,160.836215,178.061529,0.983375,-0.070677,0.164890,-0.028097,1388.936768,86258.070312,3.524985,2.342911,5.374756,4.550537,4.342811,15.625000,20.809402,0,2.880000,0,0,0, 202
10686, 101,13908,13902,-7040,1,1,-0.852740,9.714392,1.326184,-0.154255,0.057735,0.039132,9.899747,2.004889,-6.133976,-1.313514,0.503720,-0.356872,171.150006,160.902004,178.642846,0.982984,-0.078038,0.164484,-0.024442,1388.837402,86256.101562,-0.733054,1.687170,5.374756,4.451172,4.276401,15.625000,20.809402,0,2.880000,0,0,0, 202
10687, 101,13958,13954,-6990,1,1,-0.614234,9.757310,1.997535,0.286809,-0.474994,0.162164,10.860798,1.043838,-5.653450,-1.173341,0.336437,2.213992,171.077196,160.903261,178.672790,0.982942,-0.078620,0.164478,-0.024289,1388.979492,86257.976562,0.521773,1.689617,5.374756,4.593262,4.355159,15.625000,20.813950,0,2.880000,0,0,0, 202
10688, 101,14007,14008,-6941,1,1,-0.852263,9.617366,1.633703,0.027465,-0.031589,-0.008793,9.899747,2.965941,-4.692398,-0.389040,3.309404,-1.341119,170.060413,160.702084,178.159542,0.981787,-0.088076,0.165588,-0.030292,1389.070068,86254.929688,2.225218,1.858069,5.374756,4.683838,4.419483,15.625000,20.818497,0,2.870000,0,0,0, 202
10689, 101,14058,14043,-6890,1,1,-0.546099,9.572551,1.860260,0.388080,-0.156399,-0.043057,10.860798,2.485415,-5.172924,1.769729,1.212181,-0.206153,170.079825,160.701702,178.170471,0.981804,-0.087894,0.165605,-0.030171,1389.189209,86251.976562,2.505383,1.855360,5.374756,4.802979,4.477759,15.625000,20.818497,0,2.880000,0,0,0, 202
10690, 101,14108,14096,-6840,1,1,-0.788127,9.720290,1.567565,0.060865,0.060971,0.075995,9.899747,3.446467,-4.692398,0.154768,0.393506,-2.151945,170.090753,160.693205,178.213255,0.982130,-0.085470,0.165551,-0.026611,1389.283569,86252.960938,3.647308,2.438112,5.374756,4.897339,4.580859,15.625000,20.818497,0,2.880000,0,0,0, 202
10691, 101,14157,14147,-6791,1,1,-0.743855,9.685388,1.478915,0.001640,0.095021,0.024386,10.380273,2.485415,-5.172924,-0.189968,-0.663419,1.417138,170.280263,160.831626,178.631672,0.982259,-0.085511,0.164889,-0.025836,1389.334961,86253.945312,3.402966,2.436512,5.374756,4.948730,4.694671,15.625000,20.818497,0,2.880000,0,0,0, 202
10692, 101,14207,14199,-6741,1,1,-0.987585,9.860257,1.878203,-0.098450,-0.334250,0.278991,9.419221,1.524364,-5.172924,-0.152277,-2.740578,1.533328,170.338183,160.932849,178.640374,0.980952,-0.098927,0.164012,-0.032366,1389.191406,86256.710938,0.434670,1.788347,5.374756,4.805176,4.665345,15.625000,20.827591,0,2.870000,0,0,0, 202
10693, 101,14258,14250,-6690,1,1,-0.913627,9.446760,1.696582,-0.008973,0.079526,-0.160047,9.419221,2.965941,-5.653450,0.983541,-1.847805,0.958640,168.770546,160.815479,178.099300,0.980883,-0.099208,0.164213,-0.032577,1389.367065,86252.679688,0.262134,1.784629,5.374756,4.980835,4.748705,15.625000,20.832138,0,2.870000,0,0,0, 202
10694, 101,14308,14302,-6640,1,1,-1.025603,9.329090,1.699325,-0.127318,0.004424,-0.263953,11.341324,1.524364,-4.692398,0.388700,-2.778709,0.522017,168.839066,160.953285,178.134503,0.980962,-0.097385,0.163678,-0.037924,1389.439819,86250.710938,1.970703,1.847489,5.374756,5.053589,4.811576,15.625000,20.832138,0,2.880000,0,0,0, 202
10695, 101,14357,14353,-6591,1,1,-1.128659,9.408137,1.665692,-0.137808,0.018145,-0.181118,9.419221,2.485415,-5.172924,-0.204160,-1.707668,0.503904,169.050310,160.975100,177.517682,0.981179,-0.097638,0.162431,-0.037029,1389.424561,86253.562500,2.131499,1.837865,5.374756,5.038330,4.896960,15.625000,20.836683,0,2.880000,0,0,0, 202
10696, 101,14408,14405,-6540,1,1,-0.956899,9.776065,1.707179,0.045652,0.109672,0.168325,10.860798,3.446467,-5.172924,-0.355865,0.957268,1.986859,169.023946,160.934652,177.570944,0.981660,-0.093267,0.162792,-0.033814,1389.358521,86253.562500,-0.223725,1.175744,5.374756,4.972290,4.872106,15.625000,20.836683,0,2.880000,0,0,0, 202
10697, 101,14458,14457,-6490,1,1,-0.929188,9.724921,1.959165,0.097176,-0.222900,0.159757,9.419221,2.004889,-5.653450,0.513015,0.364919,0.618311,169.474246,160.984622,177.901129,0.981663,-0.093463,0.162799,-0.033136,1389.292236,86253.468750,-1.867063,1.176572,5.374756,4.906006,4.926792,15.625000,20.841230,0,2.880000,0,0,0, 202
10698, 101,14508,14491,-6440,1,1,-1.060581,9.734105,1.690784,-0.107927,-0.001149,0.135032,9.899747,1.524364,-5.653450,-2.170981,-2.577628,0.988965,169.426135,161.073961,177.845231,0.981737,-0.093952,0.161974,-0.033615,1389.313477,86254.171875,-0.127017,1.179334,5.374756,4.927246,4.980702,15.625000,20.854872,0,2.880000,0,0,0, 202
10699, 101,14558,14543,-6390,1,1,-0.963917,9.750473,1.598219,0.039584,0.125978,0.125617,9.899747,2.485415,-4.692398,-1.755739,0.914777,1.331476,169.550102,161.013117,177.326368,0.981588,-0.093626,0.162109,-0.037930,1389.437500,86253.281250,1.510777,0.755667,5.374756,5.051270,4.916588,15.625000,20.850325,0,2.880000,0,0,0, 202
10700, 101,14607,14594,-6341,1,1,-1.126597,9.924631,1.281479,-0.211111,0.409334,0.258701,10.860798,2.004889,-4.211873,-0.855950,1.194876,-1.775116,169.517181,161.019879,177.335466,0.981574,-0.093895,0.162048,-0.037894,1389.569824,86251.406250,4.042055,0.763190,5.374756,5.183594,4.951462,15.625000,20.845778,0,2.880000,0,0,0, 202
10701, 101,14658,14646,-6290,1,1,-1.061634,9.731562,1.835422,-0.157035,0.296586,0.153221,9.419221,2.965941,-5.653450,0.203166,-0.441825,3.770572,166.760175,161.284754,178.388859,0.979754,-0.116008,0.159897,-0.032522,1389.292969,86255.953125,-1.012609,1.478384,5.374756,4.906738,5.016201,15.625000,20.863964,0,2.870000,0,0,0, 202
10702, 101,14708,14697,-6240,1,1,-1.049114,9.545630,1.920790,-0.126605,0.180707,-0.010165,10.860798,2.004889,-5.172924,1.068164,-3.977065,-0.469013,166.744903,161.416344,178.383245,0.979923,-0.116152,0.158761,-0.032464,1389.392578,86254.171875,-2.505023,1.486480,5.374756,5.006348,5.083716,15.625000,20.854872,0,2.880000,0,0,0, 202
10703, 101,14758,14749,-6190,1,1,-0.945567,9.551254,1.632442,0.095093,0.137623,-0.066657,11.341324,2.485415,-5.172924,0.300577,-0.376554,-4.552377,169.181600,161.216985,177.061849,0.981486,-0.097139,0.160015,-0.040559,1389.254639,86257.031250,-0.034578,0.479734,5.374756,4.868408,4.996218,15.625000,20.859419,0,2.870000,0,0,0, 202
10704, 101,14807,14800,-6141,1,1,-1.079973,9.872241,1.541311,-0.039855,0.249094,0.245865,11.341324,1.524364,-6.133976,-0.448368,-1.218456,-3.266345,169.178212,161.205811,177.027807,0.981455,-0.097216,0.160081,-0.040864,1389.353882,86253.984375,-0.701861,0.478022,5.374756,4.967651,5.018310,15.625000,20.863964,0,2.880000,0,0,0, 202
10705, 101,14857,14852,-6091,1,1,-0.915605,9.482094,1.740510,0.095650,0.236490,-0.120466,10.380273,0.563312,-5.172924,0.794730,-0.285836,3.349365,167.857541,161.311364,177.419546,0.980561,-0.107970,0.159066,-0.039262,1389.507690,86250.046875,1.374256,-0.032798,5.374756,5.121460,4.939138,15.625000,20.863964,0,2.880000,0,0,0, 202
10706, 101,14908,14905,-6040,1,1,-1.157300,9.881528,2.099521,0.008772,-0.064675,0.366973,10.380273,0.563312,-4.692398,-1.804135,1.207578,-0.519351,167.786001,161.236546,177.377622,0.980371,-0.108644,0.159642,-0.039786,1389.637329,86250.937500,4.584851,-0.034272,5.374756,5.251099,4.937533,15.625000,20.868511,0,2.880000,0,0,0, 202
10707, 101,14958,14957,-5990,1,1,-1.062754,9.646074,1.924086,0.125680,-0.230278,0.088868,9.899747,2.004889,-5.172924,-2.565268,0.352878,-0.933997,169.725106,161.105407,176.818216,0.981687,-0.092835,0.160966,-0.041968,1389.624512,86251.031250,2.812212,1.530352,5.374756,5.238281,5.130473,15.625000,20.863964,0,2.880000,0,0,0, 202
10708, 101,15007,14992,-5941,1,1,-1.161409,9.576564,1.528558,0.344805,-0.141636,0.511635,10.860798,1.043838,-4.692398,1.209781,1.386157,-2.434276,169.715789,161.168108,176.800294,0.981764,-0.092933,0.160410,-0.042089,1389.595947,86252.015625,0.463890,1.532859,5.374756,5.209717,5.177755,15.625000,20.863964,0,2.880000,0,0,0, 202
10709, 101,15058,15044,-5890,1,1,-0.872853,9.597157,1.757541,-0.111446,0.278111,-0.009857,10.860798,0.563312,-5.172924,-0.075696,2.158508,-1.413701,167.250924,161.587277,178.984042,0.980819,-0.111002,0.158024,-0.026460,1389.527100,86252.015625,-0.781989,0.941738,5.374756,5.140869,5.125476,15.625000,20.863964,0,2.880000,0,0,0, 202
10710, 101,15108,15095,-5840,1,1,-1.176010,9.544439,1.828286,-0.374014,0.103676,-0.019829,10.380273,2.485415,-5.172924,2.053414,0.210555,-1.054192,167.284679,161.569477,178.965546,0.980823,-0.110738,0.158166,-0.026589,1389.492188,86253.796875,-1.969954,0.947031,5.374756,5.105957,5.168588,15.625000,20.873058,0,2.880000,0,0,0, 202
10711, 101,15158,15147,-5790,1,1,-1.239850,9.613315,1.751526,-0.304678,-0.229929,0.041520,10.860798,2.004889,-5.653450,0.325983,0.582143,-0.670719,169.905586,161.347114,178.054794,0.982571,-0.089541,0.159934,-0.030940,1389.517090,86247.890625,-1.308316,-0.175874,5.374756,5.130859,5.056275,15.625000,20.873058,0,2.880000,0,0,0, 202
10712, 101,15207,15199,-5741,1,1,-0.830711,9.373422,2.092620,0.185963,-0.475846,-0.174518,10.380273,2.485415,-5.653450,1.739030,-1.056532,2.831196,169.964189,161.320203,178.049453,0.982577,-0.089047,0.160177,-0.030924,1389.734741,86249.859375,2.643881,-0.178207,5.374756,5.348511,5.048110,15.625000,20.873058,0,2.880000,0,0,0, 202
10713, 101,15258,15252,-5690,1,1,-0.677181,9.502727,1.636046,0.171427,0.464390,-0.147400,9.899747,2.485415,-4.211873,0.610423,-1.585971,-5.241909,167.304773,161.404542,178.147139,0.980395,-0.111690,0.158789,-0.033719,1389.711182,86246.898438,2.674608,0.968740,5.374756,5.324951,5.131822,15.625000,20.873058,0,2.880000,0,0,0, 202
10714, 101,15308,15303,-5640,1,1,-0.797676,9.444102,1.404426,-0.010022,0.621522,-0.239966,9.899747,1.043838,-5.172924,0.801613,1.234000,-2.117178,167.362447,161.385527,178.096950,0.980409,-0.111266,0.158920,-0.034086,1389.882568,86244.929688,1.910588,0.960456,5.496338,5.496338,5.176052,15.625000,20.873058,0,2.880000,0,0,0, 202
10715, 101,15358,15355,-5590,1,1,-1.047371,9.435282,1.761942,-0.068841,-0.344094,-0.152019,9.419221,2.485415,-5.653450,0.053603,0.368802,0.880585,170.790957,161.266517,177.714228,0.983026,-0.082427,0.160616,-0.032679,1389.653809,86248.679688,-0.144567,0.959847,5.496338,5.267578,5.163976,15.625000,20.882153,0,2.870000,0,0,0, 202
10716, 101,15407,15407,-5541,1,1,-1.089752,9.668694,1.630846,-0.131395,-0.176021,0.062195,10.380273,2.004889,-5.172924,-3.258711,-0.003886,-1.212370,170.705347,161.259168,177.648084,0.982935,-0.083255,0.160606,-0.033371,1389.743896,86247.601562,-1.231632,0.952611,5.496338,5.357666,5.207887,15.625000,20.886698,0,2.880000,0,0,0, 202
10717, 101,15458,15441,-5490,1,1,-0.778175,9.560404,1.823796,-0.016465,0.064989,-0.023343,10.380273,2.004889,-5.172924,0.063606,1.319442,0.563549,170.711726,161.314534,177.627744,0.983231,-0.080163,0.160281,-0.033766,1390.087036,86242.773438,3.795624,1.439333,5.700806,5.700806,5.311235,15.625000,20.882153,0,2.880000,0,0,0, 202
10718, 101,15508,15493,-5440,1,1,-1.182088,9.677189,1.701511,-0.176520,-0.330999,0.088375,10.860798,2.485415,-5.172924,0.198846,-1.120302,2.976590,171.107003,161.319438,177.516343,0.983268,-0.079989,0.160113,-0.033900,1390.126465,86245.726562,6.030612,1.441910,5.756958,5.740234,5.378331,15.625000,20.882153,0,2.880000,0,0,0, 202
10719, 101,15558,15545,-5390,1,1,-0.740001,9.739057,1.902367,0.334943,-0.366018,0.137293,9.899747,3.446467,-5.653450,0.223784,-0.289509,-2.403717,171.126879,161.380595,177.341586,0.982278,-0.098735,0.157634,-0.023066,1390.135864,86248.492188,4.334407,2.378276,5.882568,5.749634,5.476356,15.625000,20.891245,0,2.870000,0,0,0, 202
10720, 101,15607,15597,-5341,1,1,-1.082145,9.944754,1.568581,-0.387731,0.217610,0.314924,10.860798,2.004889,-5.653450,0.864149,-2.224608,0.227858,168.633163,161.697748,179.108105,0.982267,-0.099000,0.157492,-0.023396,1390.186279,86243.382812,1.656872,2.388769,5.882568,5.800049,5.587439,15.625000,20.900339,0,2.880000,0,0,0, 202
10721, 101,15657,15649,-5291,1,1,-1.026452,9.920157,1.166016,-0.467302,0.598071,0.211325,9.899747,2.485415,-5.653450,-0.324799,-0.927400,1.518308,168.662820,161.751270,179.134647,0.983967,-0.069014,0.159659,-0.039445,1390.254883,86242.492188,1.514482,2.098126,5.882568,5.868652,5.624111,15.625000,20.895792,0,2.880000,0,0,0, 202
10722, 101,15708,15700,-5240,1,1,-0.866567,9.961842,1.701094,0.272953,-0.387801,0.331031,10.380273,0.563312,-5.172924,-0.613256,-2.990731,3.424716,172.525237,161.477652,176.644770,0.984137,-0.069008,0.158641,-0.039318,1390.344238,86243.476562,2.564189,2.110062,5.976807,5.958008,5.722084,15.625000,20.895792,0,2.870000,0,0,0, 202
10723, 101,15758,15752,-5190,1,1,-0.676558,9.606645,1.475730,0.363432,-0.171524,-0.066442,10.860798,2.485415,-5.172924,0.139990,2.143732,2.056321,172.536466,161.500151,176.629156,0.984116,-0.079376,0.156945,-0.024150,1390.233643,86243.289062,0.402181,1.548090,5.976807,5.847412,5.708218,15.625000,20.904886,0,2.880000,0,0,0, 202
10724, 101,15808,15804,-5140,1,1,-0.679376,9.433739,1.690099,0.103503,-0.256013,-0.196982,10.380273,2.965941,-5.653450,0.505211,0.467708,-5.429803,171.060408,161.772416,178.593450,0.984147,-0.078882,0.156958,-0.024426,1389.987793,86246.335938,-3.352477,1.550511,5.976807,5.601562,5.780399,15.625000,20.900339,0,2.880000,0,0,0, 202
10725, 101,15857,15855,-5091,1,1,-0.719584,9.616117,1.269868,-0.056157,0.155080,-0.076141,10.860798,2.485415,-4.692398,1.644232,-1.245906,-2.952843,171.076527,161.792783,178.554655,0.984650,-0.071325,0.157137,-0.026155,1390.185425,86241.312500,-1.734108,0.483594,5.976807,5.799194,5.742483,15.625000,20.904886,0,2.880000,0,0,0, 202
10726, 101,15908,15907,-5040,1,1,-0.766852,9.366363,1.172931,-0.090562,0.037760,-0.330892,10.860798,1.524364,-5.172924,0.499169,0.620409,-0.738048,172.095195,161.740778,178.261531,0.984704,-0.070448,0.157240,-0.025878,1390.088379,86247.125000,1.326483,0.477440,5.976807,5.702148,5.764925,15.625000,20.909433,0,2.870000,0,0,0, 202
10727, 101,15958,15941,-4990,1,1,-0.861102,9.657297,1.717074,-0.193910,0.212281,-0.126163,9.899747,2.004889,-5.653450,-0.053858,0.406924,-0.988780,172.079704,161.662286,178.269399,0.984587,-0.070573,0.157916,-0.025877,1390.318115,86240.234375,1.772504,0.467608,5.976807,5.931885,5.779526,15.625000,20.909433,0,2.880000,0,0,0, 202
10728, 101,16008,15994,-4940,1,1,-0.745736,9.555829,1.024557,-0.095887,0.634854,-0.182919,10.860798,1.524364,-5.172924,-2.640182,2.644613,-3.541244,169.600851,161.596784,178.180443,0.982716,-0.091976,0.157810,-0.030099,1390.292114,86247.031250,3.188049,0.900189,6.046631,5.905884,5.842009,15.625000,20.913979,0,2.870000,0,0,0, 202
10729, 101,16057,16045,-4891,1,1,-0.740680,9.795577,1.592492,0.088555,0.158502,0.149126,10.380273,1.524364,-5.653450,-1.682906,1.392148,2.744805,169.547548,161.545216,178.231874,0.982614,-0.092363,0.158280,-0.029771,1390.330566,86245.156250,2.304200,0.895910,6.046631,5.944336,5.883159,15.625000,20.909433,0,2.880000,0,0,0, 202
10730, 101,16108,16097,-4840,1,1,-0.811250,9.667692,1.618135,-0.070640,-0.222867,0.031909,10.380273,2.004889,-5.653450,1.763235,-1.819793,0.639972,171.181234,161.698295,178.805897,0.984170,-0.077552,0.157764,-0.022484,1390.213013,86247.031250,0.230176,0.829085,6.046631,5.826782,5.868283,15.625000,20.913979,0,2.880000,0,0,0, 202
10731, 101,16158,16148,-4790,1,1,-0.774376,9.596424,1.655828,-0.024457,-0.274917,-0.035929,10.860798,4.407518,-5.653450,0.846240,0.074429,-1.473684,171.279984,161.693937,178.801990,0.984230,-0.076709,0.157818,-0.022384,1390.091064,86245.953125,-2.637112,0.836049,6.046631,5.704834,5.906570,15.625000,20.918526,0,2.880000,0,0,0, 202
10732, 101,16208,16201,-4740,1,1,-0.985866,9.913114,1.377575,-0.244418,-0.358129,0.246461,10.380273,2.485415,-5.172924,-1.059484,-0.043963,-0.232227,173.273266,161.641112,178.434567,0.985273,-0.060087,0.158446,-0.022821,1390.187988,86243.984375,-1.789759,-0.428015,6.046631,5.801758,5.786940,15.625000,20.918526,0,2.880000,0,0,0, 202
10733, 101,16258,16253,-4690,1,1,-0.994562,9.774674,1.038387,-0.350716,-0.054229,0.072486,10.380273,2.004889,-4.692398,0.479320,-0.915180,-3.747864,173.273963,161.656521,178.356320,0.985279,-0.060188,0.158273,-0.023485,1390.397461,86240.046875,2.225452,-0.421129,6.046631,6.011230,5.767164,15.625000,20.918526,0,2.880000,0,0,0, 202
10734, 101,16308,16305,-4640,1,1,-1.220695,9.947244,1.219053,-0.247545,0.189014,0.289928,9.899747,2.485415,-5.653450,0.440713,0.234893,2.674796,171.132261,161.459866,176.836739,0.983268,-0.080703,0.158439,-0.039608,1390.417725,86242.906250,3.558669,0.683992,6.058472,6.031494,5.904829,15.625000,20.923073,0,2.880000,0,0,0, 202
10735, 101,16357,16356,-4591,1,1,-1.073641,9.855830,1.650450,0.013751,-0.175723,0.248030,9.899747,2.004889,-5.172924,-1.296539,-0.475264,2.258077,171.055258,161.475521,176.896736,0.983256,-0.081278,0.158321,-0.039190,1390.356201,86243.796875,1.089689,0.692493,6.058472,5.969971,5.936428,15.625000,20.927620,0,2.870000,0,0,0, 202
10736, 101,16408,16391,-4540,1,1,-1.002692,9.866021,1.431381,0.088039,-0.385070,0.253077,9.899747,2.485415,-6.133976,0.637841,-1.440219,-1.713696,172.370315,161.359121,176.289751,0.983747,-0.070851,0.159387,-0.042644,1390.453613,86239.859375,0.214203,0.434193,6.067383,6.067383,5.901670,15.750000,20.927620,0,2.880000,0,0,0, 202
10737, 101,16458,16443,-4490,1,1,-0.943722,9.826036,1.392505,0.163047,-0.098057,0.166170,9.899747,1.524364,-5.653450,0.611134,1.709304,-1.536843,172.403715,161.326377,176.246912,0.983704,-0.070630,0.159654,-0.042982,1390.438599,86241.031250,0.615855,0.438383,6.067383,6.052368,5.921821,15.750000,20.918526,0,2.880000,0,0,0, 202
10738, 101,16508,16495,-4440,1,1,-0.830192,9.584747,1.586913,0.181483,-0.197549,-0.054055,9.899747,2.485415,-5.172924,1.356385,0.898619,0.309712,171.636288,161.414049,177.087763,0.983631,-0.076035,0.159172,-0.036783,1390.409790,86244.781250,1.262317,0.974669,6.141846,6.023560,5.996425,15.750000,20.927620,0,2.880000,0,0,0, 202
10739, 101,16558,16547,-4390,1,1,-1.063519,9.508807,1.069388,-0.202925,0.204823,-0.177646,9.899747,2.485415,-5.172924,-0.725608,-2.045210,-1.541392,171.636042,161.346895,177.064540,0.983528,-0.076077,0.159733,-0.037022,1390.371826,86243.609375,-0.712107,0.973702,6.141846,5.985596,6.041341,15.750000,20.936712,0,2.870000,0,0,0, 202
10740, 101,16608,16599,-4340,1,1,-1.037899,9.528851,0.891316,-0.436552,0.432917,-0.194092,10.860798,1.524364,-4.692398,-0.459497,-0.009419,-0.004190,170.937942,161.524357,178.319942,0.983654,-0.080312,0.158871,-0.027106,1390.437866,86243.609375,0.514782,0.622544,6.141846,6.051636,6.041628,15.750000,20.936712,0,2.870000,0,0,0, 202
10741, 101,16657,16650,-4291,1,1,-0.812042,9.683842,1.705406,0.026944,-0.237220,0.062448,10.380273,2.004889,-5.653450,-0.248424,2.796242,4.599930,170.925061,161.434950,178.417805,0.983542,-0.080288,0.159704,-0.026343,1390.439209,86244.593750,0.972086,0.617328,6.157593,6.052979,6.070024,15.750000,20.936712,0,2.870000,0,0,0, 202
10742, 101,16708,16702,-4240,1,1,-1.131270,9.577215,1.305288,-0.151142,-0.322173,-0.075777,9.899747,2.485415,-5.172924,0.845931,-1.290705,1.513816,173.442928,161.171851,176.858733,0.984291,-0.060875,0.161693,-0.036347,1390.598145,86241.632812,2.457330,1.068325,6.264404,6.211914,6.136183,15.750000,20.936712,0,2.880000,0,0,0, 202
10743, 101,16757,16753,-4191,1,1,-0.736943,9.866480,1.695295,0.353736,-0.525396,0.217152,9.899747,2.485415,-5.653450,-1.359941,-0.630106,1.004428,173.415552,161.128629,176.919439,0.984233,-0.061030,0.162088,-0.035884,1390.568726,86238.585938,1.162020,1.068861,6.264404,6.182495,6.184778,15.750000,20.941259,0,2.880000,0,0,0, 202
10744, 101,16807,16805,-4141,1,1,-0.743162,9.924662,1.276678,0.184599,0.495092,0.219076,11.341324,2.004889,-4.692398,-0.549771,-1.245468,-1.196721,169.809049,161.250480,177.090358,0.982061,-0.091720,0.159971,-0.039413,1390.610229,86238.585938,0.533008,0.849390,6.299683,6.223999,6.147227,15.750000,20.941259,0,2.880000,0,0,0, 202
10745, 101,16858,16856,-4090,1,1,-0.877960,9.581476,0.942677,-0.066976,0.701830,-0.159056,9.899747,1.524364,-5.172924,-0.681539,2.348769,0.058267,169.788135,161.187752,177.098882,0.981957,-0.091893,0.160508,-0.039415,1390.490967,86241.445312,-1.108469,0.855915,6.299683,6.104736,6.186278,15.750000,20.945807,0,2.880000,0,0,0, 202
10746, 101,16908,16891,-4040,1,1,-0.964065,9.778699,1.412844,-0.000435,0.225385,0.237806,9.899747,0.563312,-5.653450,-0.521029,-1.053780,4.066687,169.781058,161.168299,177.091150,0.982799,-0.082040,0.161059,-0.037900,1390.368652,86239.476562,-3.796988,-0.592303,6.299683,5.982422,6.026682,15.750000,20.945807,0,2.870000,0,0,0, 202
10747, 101,16958,16943,-3990,1,1,-0.935771,9.613104,1.061188,-0.074498,0.382213,-0.092142,10.380273,2.004889,-5.172924,1.024673,-0.246945,-2.787171,170.968856,161.177616,177.053735,0.982822,-0.081835,0.160960,-0.038153,1390.335327,86241.539062,-3.795671,-0.584325,6.299683,5.949097,5.998951,15.750000,20.941259,0,2.880000,0,0,0, 202
10748, 101,17008,16996,-3940,1,1,-1.013082,9.563770,1.517506,-0.002961,-0.081506,-0.065076,10.380273,0.563312,-6.614501,0.229503,0.769406,1.744528,170.993321,161.135514,177.062477,0.982462,-0.085297,0.161203,-0.038813,1390.544189,86240.460938,0.895310,-0.109834,6.299683,6.157959,6.076135,15.750000,20.945807,0,2.880000,0,0,0, 202
10749, 101,17057,17049,-3891,1,1,-0.923406,9.848136,1.444912,0.079610,0.145368,0.193937,10.380273,1.524364,-5.172924,-1.103823,0.015476,-2.332731,170.538622,161.152043,177.013846,0.982457,-0.085583,0.161006,-0.039116,1390.507812,86237.507812,1.505205,-0.113108,6.299683,6.121582,6.070862,15.750000,20.945807,0,2.870000,0,0,0, 202
10750, 101,17108,17101,-3840,1,1,-0.864567,9.658195,1.636021,0.182836,-0.051503,0.031023,10.860798,2.485415,-5.172924,0.162976,-0.893579,-1.723825,170.545056,161.207614,177.033476,0.982636,-0.089151,0.159733,-0.031057,1390.634644,86240.078125,2.613469,0.773399,6.299683,6.248413,6.141030,15.750000,20.963993,0,2.880000,0,0,0, 202
10751, 101,17158,17153,-3790,1,1,-0.899258,9.660212,1.430078,-0.068190,0.196065,0.003610,10.860798,2.485415,-5.172924,-2.540184,2.110118,-6.697771,169.863280,161.326869,177.962805,0.982484,-0.090033,0.160024,-0.031803,1390.781006,86238.304688,4.181850,0.770929,6.394775,6.394775,6.177125,15.750000,20.954899,0,2.880000,0,0,0, 202
10752, 101,17208,17205,-3740,1,1,-1.083407,9.631126,0.984745,-0.387599,0.549702,-0.082477,9.899747,2.004889,-5.653450,-0.654784,0.000233,-3.081588,169.857871,161.343466,177.970086,0.983750,-0.062197,0.162229,-0.045260,1390.932129,86234.460938,4.769205,2.069336,6.545898,6.545898,6.293523,15.750000,20.950354,0,2.880000,0,0,0, 202
10753, 101,17258,17256,-3690,1,1,-1.044399,9.617124,1.268823,0.080060,-0.204843,-0.046956,11.341324,2.004889,-4.692398,-0.112873,1.220600,0.089239,173.461765,161.030616,175.884283,0.983752,-0.062118,0.162390,-0.044751,1390.979248,86237.125000,4.154190,2.070662,6.625977,6.593018,6.390155,15.750000,20.963993,0,2.880000,0,0,0, 202
10754, 101,17308,17290,-3640,1,1,-1.098109,9.866897,1.362636,0.073367,-0.287999,0.215484,9.899747,2.004889,-5.653450,0.811479,0.816208,-0.433737,173.524494,161.011710,175.908380,0.983768,-0.061549,0.162590,-0.044463,1390.800537,86240.875000,0.652152,1.609709,6.625977,6.414307,6.339015,15.750000,20.973085,0,2.880000,0,0,0, 202
10755, 101,17358,17342,-3590,1,1,-0.942186,9.639428,1.479270,0.127118,0.033671,0.114272,10.860798,0.563312,-5.653450,2.013963,1.804392,2.325397,171.926175,161.029264,176.273754,0.982983,-0.074744,0.162042,-0.043583,1391.032227,86235.953125,0.437280,1.614791,6.654053,6.645996,6.389542,15.750000,20.973085,0,2.880000,0,0,0, 202
10756, 101,17408,17394,-3540,1,1,-0.949376,9.713851,1.188069,0.099580,0.150429,0.029523,9.419221,2.485415,-5.653450,0.329943,0.147014,-5.977426,171.982743,161.021546,176.198636,0.982980,-0.074367,0.162081,-0.044152,1390.945312,86237.921875,1.366334,1.617597,6.654053,6.559082,6.464169,15.750000,20.973085,0,2.880000,0,0,0, 202
10757, 101,17458,17446,-3490,1,1,-0.961219,9.507019,1.138780,0.099895,0.168404,-0.179886,10.860798,2.004889,-5.653450,1.056035,-0.639654,1.237285,172.013711,161.009443,175.943351,0.982882,-0.074465,0.162032,-0.046304,1391.026733,86236.046875,0.462547,1.449577,6.654053,6.640503,6.474864,15.750000,20.968540,0,2.880000,0,0,0, 202
10758, 101,17508,17497,-3440,1,1,-1.147173,9.803019,1.618784,0.096281,-0.290895,0.196087,10.380273,1.524364,-5.653450,-1.944228,0.594906,-2.654053,172.003643,161.017366,175.967871,0.982897,-0.074515,0.161976,-0.046104,1391.097534,86234.968750,1.681340,1.451799,6.711304,6.711304,6.541509,15.750000,20.973085,0,2.870000,0,0,0, 202
10759, 101,17557,17549,-3391,1,1,-0.907506,9.430388,1.477672,0.151880,-0.361635,-0.220527,10.380273,2.965941,-5.172924,-1.048008,-0.216367,-1.340961,173.102047,161.136812,176.586276,0.983965,-0.064192,0.161733,-0.039184,1391.299072,86233.984375,3.660535,1.603886,6.955200,6.912842,6.610323,15.750000,20.973085,0,2.880000,0,0,0, 202
10760, 101,17607,17601,-3341,1,1,-0.995929,9.683509,1.285633,0.025568,-0.175346,0.016519,10.380273,2.004889,-5.172924,0.129106,-2.121117,-4.336654,173.122059,161.148136,176.553259,0.983981,-0.064065,0.161624,-0.039434,1391.277222,86233.890625,3.203137,1.602805,6.955200,6.890991,6.684460,15.750000,20.977633,0,2.880000,0,0,0, 202
10761, 101,17658,17653,-3290,1,1,-0.894256,9.691007,1.141960,0.014807,0.188189,-0.003871,9.899747,1.524364,-5.653450,0.863473,-0.403863,-0.058811,171.858051,161.205701,176.924262,0.983425,-0.074385,0.160927,-0.037998,1391.222412,86229.945312,-0.481245,1.537678,6.955200,6.836182,6.704919,15.750000,20.977633,0,2.880000,0,0,0, 202
10762, 101,17708,17705,-3240,1,1,-0.661807,9.705339,1.282557,0.278203,0.122583,0.006351,9.419221,0.563312,-5.653450,0.246001,1.725135,4.039258,171.901177,161.133342,176.948891,0.983357,-0.073990,0.161578,-0.037767,1391.420654,86230.835938,1.682412,1.533849,7.034424,7.034424,6.776014,15.750000,20.982180,0,2.880000,0,0,0, 202
10763, 101,17758,17757,-3190,1,1,-1.045927,9.791665,1.616794,0.121144,-0.245405,0.174459,10.380273,2.004889,-5.653450,-1.566868,0.641323,0.113845,171.787427,161.050192,176.388338,0.982966,-0.075769,0.161886,-0.042785,1391.395630,86232.804688,3.134960,2.151684,7.060303,7.009399,6.876070,15.750000,20.982180,0,2.880000,0,0,0, 202
10764, 101,17807,17791,-3141,1,1,-0.976085,9.330058,1.289417,0.110458,0.085709,-0.210842,9.899747,2.485415,-5.653450,-0.829317,-0.402936,1.507026,171.796374,160.983037,176.325418,0.982850,-0.075793,0.162424,-0.043350,1391.270264,86230.835938,-1.115791,2.152327,7.060303,6.884033,6.942049,15.750000,20.982180,0,2.880000,0,0,0, 202
10765, 101,17857,17843,-3091,1,1,-1.109854,9.943018,1.792089,0.258417,-0.722485,0.333999,9.899747,2.965941,-6.133976,0.084302,1.177152,3.910894,173.833082,160.891881,175.620638,0.983642,-0.059338,0.163590,-0.046545,1391.110596,86233.789062,-3.735809,0.504036,7.060303,6.724365,6.767845,15.750000,20.982180,0,2.880000,0,0,0, 202
10766, 101,17907,17896,-3041,1,1,-0.953735,9.649488,1.565625,0.314354,-0.487411,0.003949,9.899747,2.004889,-5.172924,0.004498,-0.709768,-1.100302,173.775695,160.998924,175.576515,0.983750,-0.059867,0.162624,-0.046962,1391.016968,86235.570312,-4.176716,0.513771,7.060303,6.630737,6.791507,15.750000,20.991272,0,2.880000,0,0,0, 202
10767, 101,17958,17948,-2990,1,1,-0.980320,9.649953,1.374993,0.040556,0.233589,-0.007277,10.380273,2.004889,-5.172924,0.384996,-2.469922,-4.474229,170.191771,161.261736,176.702390,0.982241,-0.088980,0.159704,-0.042197,1391.223633,86233.218750,-0.169382,-0.079797,7.060303,6.837402,6.779618,15.750000,21.009459,0,2.880000,0,0,0, 202
10768, 101,18008,18001,-2940,1,1,-0.847416,9.490203,1.257328,0.111463,0.336693,-0.196983,10.380273,2.485415,-5.172924,1.819581,0.231881,2.343114,170.280345,161.319479,176.746499,0.982408,-0.088152,0.159275,-0.041655,1391.311279,86231.632812,2.771120,-0.077139,7.060303,6.925049,6.775882,15.750000,20.991272,0,2.880000,0,0,0, 202
10769, 101,18057,18054,-2891,1,1,-0.686453,9.476532,1.184813,0.231943,0.551526,-0.244762,9.899747,2.004889,-5.172924,-0.377447,1.373148,-2.091831,169.662090,161.304520,176.798081,0.981916,-0.093381,0.159219,-0.042083,1391.240112,86234.398438,1.250309,0.482363,7.060303,6.853882,6.828916,15.750000,21.000366,0,2.880000,0,0,0, 202
10770, 101,18108,18105,-2840,1,1,-1.044255,9.528478,1.314297,-0.058851,0.328851,-0.131557,9.899747,2.485415,-4.692398,1.150074,-0.634235,1.768943,169.686938,161.291106,176.779011,0.981910,-0.093196,0.159327,-0.042222,1391.195801,86239.031250,0.843650,0.476366,7.060303,6.809570,6.851136,15.750000,21.014006,0,2.880000,0,0,0, 202
10771, 101,18158,18157,-2790,1,1,-1.060269,9.703703,1.252185,-0.058078,-0.181318,0.038601,9.899747,1.524364,-5.653450,-1.013853,1.100927,1.619221,173.217914,161.253868,176.619895,0.984209,-0.063130,0.160785,-0.038677,1391.344482,86233.312500,1.170913,0.731519,7.060303,6.958252,6.897431,15.750000,21.004913,0,2.880000,0,0,0, 202
10772, 101,18207,18191,-2741,1,1,-1.022267,9.709289,1.795808,-0.153627,-0.164315,0.158542,10.380273,2.004889,-5.172924,0.766644,0.262154,1.470252,173.146470,161.245303,176.669810,0.984174,-0.063675,0.160862,-0.038353,1391.540161,86228.296875,3.375412,0.732403,7.153931,7.153931,6.919767,15.750000,21.009459,0,2.880000,0,0,0, 202
10773, 101,18258,18243,-2690,1,1,-1.235394,9.852011,1.645260,-0.089734,-0.579586,0.246449,10.380273,1.524364,-5.653450,-0.816283,-0.588241,-0.947788,173.185512,161.271257,176.620987,0.982078,-0.088254,0.159821,-0.046807,1391.617676,86229.281250,4.237536,1.871121,7.231445,7.231445,7.015990,15.750000,21.009459,0,2.880000,0,0,0, 202
10774, 101,18307,18295,-2641,1,1,-1.113748,9.961941,1.832204,0.174928,-0.173747,0.386094,9.899747,2.965941,-4.692398,0.351385,0.183733,2.445677,170.369684,161.250904,176.120499,0.982136,-0.088267,0.159416,-0.046944,1391.676025,86228.203125,3.336874,1.878211,7.289795,7.289795,7.103395,15.750000,21.014006,0,2.870000,0,0,0, 202
10775, 101,18358,18346,-2590,1,1,-1.107197,9.610404,1.525758,0.059463,0.050391,-0.007757,9.899747,3.446467,-5.172924,0.699084,0.682765,0.445098,170.352950,161.205483,176.132356,0.982389,-0.086564,0.159674,-0.043843,1391.611206,86229.093750,1.468246,1.740459,7.289795,7.224976,7.094697,15.750000,21.018553,0,2.870000,0,0,0, 202
10776, 101,18408,18398,-2540,1,1,-0.900777,9.679276,1.162832,0.082608,0.410945,-0.019575,9.899747,1.524364,-5.172924,1.263738,0.233944,2.698623,170.553471,161.238636,176.497347,0.982407,-0.086168,0.159881,-0.043466,1391.775146,86225.148438,0.803117,1.744338,7.388916,7.388916,7.175859,15.750000,21.018553,0,2.880000,0,0,0, 202
10777, 101,18458,18450,-2490,1,1,-0.941231,9.563880,1.293605,0.075935,0.256253,-0.107925,10.380273,2.485415,-5.172924,0.089494,-1.617439,-0.578964,170.538827,161.212887,176.525242,0.983472,-0.075133,0.160316,-0.037894,1391.965454,86223.179688,4.352873,2.587729,7.579224,7.579224,7.277187,15.750000,21.018553,0,2.880000,0,0,0, 202
10778, 101,18508,18501,-2440,1,1,-1.166519,9.623687,1.040097,-0.296072,0.194493,-0.057673,9.419221,2.485415,-5.653450,0.390197,0.434005,1.832178,171.795855,161.332784,177.015677,0.983597,-0.074775,0.159874,-0.037227,1391.922607,86226.132812,3.727327,2.582608,7.579224,7.536377,7.397002,15.750000,21.018553,0,2.880000,0,0,0, 202
10779, 101,18558,18553,-2390,1,1,-1.019897,9.598473,1.223989,-0.107390,0.050408,-0.071923,10.380273,1.043838,-6.133976,2.282870,0.305331,6.025628,171.856466,161.330380,177.064048,0.983624,-0.071099,0.160398,-0.041241,1391.752441,86230.867188,-0.068745,1.726170,7.579224,7.366211,7.310717,15.750000,21.027645,0,2.870000,0,0,0, 202
10780, 101,18608,18605,-2340,1,1,-1.182094,9.602906,1.651413,-0.038409,-0.447341,0.004036,10.380273,2.004889,-5.653450,0.860441,1.428112,2.326161,172.291822,161.122045,176.569064,0.983459,-0.071174,0.161568,-0.040482,1391.878174,86222.992188,-1.074199,1.725669,7.579224,7.491943,7.391561,15.750000,21.027645,0,2.880000,0,0,0, 202
10781, 101,18657,18656,-2291,1,1,-1.039000,9.360351,1.429404,0.004903,-0.234520,-0.278193,10.380273,2.004889,-5.653450,-0.455469,1.086882,4.060927,172.291385,161.037173,176.623870,0.982516,-0.082043,0.161860,-0.041626,1391.819946,86228.898438,0.889734,1.454893,7.579224,7.433716,7.357041,15.750000,21.027645,0,2.880000,0,0,0, 202
10782, 101,18708,18691,-2240,1,1,-1.002350,9.661534,1.305331,-0.106218,-0.319517,0.498104,10.860798,2.485415,-5.172924,-1.262971,2.192302,-3.600673,171.005834,161.061147,176.599882,0.982521,-0.082172,0.161648,-0.042067,1391.878906,86224.765625,0.292155,1.449520,7.579224,7.492676,7.402875,15.750000,21.036739,0,2.870000,0,0,0, 202
10783, 101,18758,18742,-2190,1,1,-0.969868,9.678638,0.781113,0.152690,-0.244662,-0.173649,9.899747,2.004889,-5.653450,0.518602,2.283845,0.129058,171.026830,161.040288,176.578599,0.982498,-0.082025,0.161820,-0.042233,1392.042969,86222.992188,1.900220,1.457230,7.656738,7.656738,7.469151,15.750000,21.027645,0,2.880000,0,0,0, 202
10784, 101,18808,18794,-2140,1,1,-1.115602,9.576998,1.216370,-0.001225,-0.399176,-0.091022,9.899747,2.485415,-6.614501,0.311575,-0.414834,-5.132584,174.742071,160.944064,175.860965,0.984250,-0.051177,0.163613,-0.043164,1391.910767,86228.515625,2.014271,1.601111,7.656738,7.524536,7.520163,15.750000,21.045832,0,2.870000,0,0,0, 202
10785, 101,18858,18846,-2090,1,1,-1.010681,9.670648,1.080900,0.039798,-0.235778,-0.020710,10.380273,1.524364,-4.692398,0.405934,-0.407526,3.832709,174.748669,160.926511,175.988198,0.984275,-0.050943,0.163823,-0.042068,1391.857544,86228.609375,-0.354915,1.600382,7.656738,7.471313,7.593297,15.750000,21.041286,0,2.880000,0,0,0, 202
10786, 101,18907,18898,-2041,1,1,-0.888922,9.479218,1.013503,0.146592,0.554009,-0.243566,10.380273,2.004889,-5.653450,0.151272,-0.664539,0.418971,170.555943,160.916265,175.819396,0.981666,-0.087155,0.162135,-0.049485,1392.254150,86217.875000,2.108284,0.864793,7.867920,7.867920,7.522025,15.750000,21.036739,0,2.870000,0,0,0, 202
10787, 101,18957,18949,-1991,1,1,-1.054331,9.738898,1.540402,0.174292,0.057622,0.113479,10.860798,3.926993,-5.653450,-1.390489,1.423288,-0.132589,170.557187,160.904791,175.861962,0.981668,-0.087086,0.162266,-0.049126,1392.106445,86224.671875,3.541641,0.856087,7.867920,7.720215,7.561323,15.875000,21.041286,0,2.880000,0,0,0, 202
10788, 101,19008,19001,-1940,1,1,-0.970692,9.705152,1.361408,0.119305,0.319836,0.041211,10.380273,3.446467,-6.133976,-0.402935,0.685299,-5.104712,169.971689,160.976685,176.304818,0.981501,-0.091463,0.161751,-0.046111,1392.169678,86223.687500,1.008691,1.533205,7.867920,7.783447,7.635785,15.875000,21.041286,0,2.870000,0,0,0, 202
10789, 101,19057,19052,-1891,1,1,-0.954040,9.797443,1.543142,0.191742,0.169730,0.159713,10.380273,2.965941,-5.653450,1.216038,-0.269982,-2.634046,169.978287,160.967068,176.356536,0.981513,-0.091335,0.161877,-0.045666,1392.291870,86221.335938,2.391400,1.537122,7.922607,7.905640,7.706400,15.875000,21.059473,0,2.880000,0,0,0, 202
10790, 101,19107,19105,-1841,1,1,-1.041694,9.684684,1.401723,0.292818,-0.242414,0.032542,9.899747,1.524364,-4.692398,1.334093,-3.543286,-4.668427,173.334861,160.859288,174.899384,0.983010,-0.064651,0.163262,-0.053458,1392.350586,86221.429688,2.166719,1.872163,7.964355,7.964355,7.777208,15.875000,21.054926,0,2.880000,0,0,0, 202
10791, 101,19158,19156,-1790,1,1,-1.019361,9.355483,0.858343,0.098617,0.214213,-0.354027,10.380273,1.043838,-5.172924,1.804190,-2.358775,0.417426,173.393081,160.913369,174.954640,0.983147,-0.064057,0.162856,-0.052878,1392.439453,86219.656250,2.177433,1.876447,8.053223,8.053223,7.863091,15.875000,21.045832,0,2.880000,0,0,0, 202
10792, 101,19207,19191,-1741,1,1,-1.091763,9.503650,1.209886,-0.032808,-0.222422,0.004041,9.419221,1.524364,-5.172924,-0.226784,0.148405,0.696936,172.116082,161.001834,175.957640,0.982943,-0.073568,0.162148,-0.046041,1392.334961,86224.382812,1.303156,1.991257,8.066406,7.948730,7.880869,15.875000,21.054926,0,2.870000,0,0,0, 202
10793, 101,19258,19242,-1690,1,1,-1.254904,9.780110,0.805575,-0.166103,0.027449,-0.190303,10.380273,1.524364,-5.172924,1.072792,0.111505,2.323282,172.144960,160.962560,175.913243,0.982886,-0.073391,0.162468,-0.046402,1392.439697,86221.242188,0.778842,1.989862,8.130371,8.053467,7.972233,15.875000,21.064018,0,2.880000,0,0,0, 202
10794, 101,19307,19294,-1641,1,1,-1.200308,9.450592,1.189699,-0.094314,0.283934,-0.205152,9.899747,2.965941,-5.172924,0.465703,-2.705623,0.344109,170.576680,160.970634,175.831035,0.981766,-0.086950,0.161686,-0.049320,1392.408691,86220.445312,0.564712,1.413784,8.130371,8.022461,7.924943,15.875000,21.054926,0,2.880000,0,0,0, 202
10795, 101,19357,19346,-1591,1,1,-1.152230,9.508632,0.852627,-0.164218,0.620425,-0.206377,10.380273,3.446467,-5.172924,0.502384,2.140492,-2.063941,170.575068,160.905050,175.897042,0.981697,-0.086883,0.162298,-0.048800,1392.375488,86221.242188,-0.747181,1.408790,8.130371,7.989258,7.989574,15.875000,21.064018,0,2.880000,0,0,0, 202
10796, 101,19408,19397,-1540,1,1,-1.145166,9.615257,1.173120,-0.273301,0.231635,-0.053567,10.860798,2.485415,-5.653450,0.591048,1.050060,-1.263844,170.778649,161.113234,177.295523,0.982671,-0.083133,0.161625,-0.036389,1392.626221,86219.171875,2.033634,1.441059,8.249390,8.239990,8.055847,15.875000,21.068565,0,2.880000,0,0,0, 202
10797, 101,19458,19448,-1490,1,1,-1.022947,9.895616,1.620400,-0.009857,-0.102610,0.277923,11.341324,1.043838,-5.653450,-1.135249,0.906113,-1.357602,170.778512,161.068428,177.360806,0.982627,-0.083045,0.162057,-0.035859,1392.351685,86224.101562,0.373158,1.437637,8.249390,7.965454,8.121582,15.875000,21.068565,0,2.880000,0,0,0, 202
10798, 101,19508,19500,-1440,1,1,-1.174601,9.326853,1.230081,-0.222036,0.014928,-0.322949,9.899747,2.004889,-5.653450,-2.013818,-0.145071,-2.821359,171.549258,160.941865,176.847217,0.982813,-0.077177,0.163037,-0.039249,1392.497803,86219.968750,-0.853180,0.463564,8.249390,8.111572,8.065153,15.875000,21.077658,0,2.880000,0,0,0, 202
10799, 101,19557,19552,-1391,1,1,-1.044948,9.550448,1.312361,-0.074311,0.009759,-0.104627,9.899747,1.524364,-4.692398,1.558787,-3.912142,0.049608,171.562140,161.041599,176.914617,0.982990,-0.076959,0.162230,-0.038594,1392.605713,86216.218750,1.134012,0.462091,8.249390,8.219482,8.086243,15.875000,21.068565,0,2.880000,0,0,0, 202
10800, 101,19608,19604,-1340,1,1,-1.177050,9.734978,0.879043,-0.225073,0.241987,0.038651,9.419221,1.524364,-5.172924,0.488658,0.359230,1.319007,172.712111,160.901676,176.277607,0.983288,-0.068019,0.163435,-0.042501,1392.673096,86213.171875,2.160419,0.549802,8.286865,8.286865,8.072188,15.875000,21.073112,0,2.880000,0,0,0, 202
10801, 101,19657,19655,-1291,1,1,-0.952998,9.860327,1.082905,0.060954,0.151529,0.162948,9.419221,1.524364,-5.172924,-1.773433,-2.301431,0.707777,172.649451,160.967136,176.267525,0.983343,-0.068559,0.162844,-0.042644,1392.598145,86218.000000,0.661303,0.550068,8.286865,8.211914,8.097398,15.875000,21.077658,0,2.880000,0,0,0, 202
10802, 101,19708,19707,-1240,1,1,-1.215338,9.622396,1.492944,0.022871,-0.576040,-0.004873,9.419221,2.485415,-5.653450,-0.194689,0.813059,-0.028743,174.150235,160.958981,175.703666,0.983933,-0.056480,0.163183,-0.045353,1392.666016,86215.140625,0.905560,0.410750,8.286865,8.279785,8.099750,15.875000,21.073112,0,2.880000,0,0,0, 202
10803, 101,19758,19741,-1190,1,1,-1.120594,9.836228,0.956735,0.165683,-0.160580,0.017131,10.860798,2.485415,-5.653450,0.086348,0.465960,-1.126689,174.160849,160.968407,175.686426,0.983945,-0.056411,0.163098,-0.045483,1392.617920,86218.000000,0.111088,0.409686,8.286865,8.231689,8.112400,15.875000,21.077658,0,2.880000,0,0,0, 202
10804, 101,19762,21660,-1186,1,1,-1.517551,9.793206,1.089666,-0.424306,-0.165604,0.158406,9.899747,2.485415,-5.653450,-1.012293,-0.581462,0.444393,173.480999,161.217968,175.930537,0.984051,-0.061845,0.160813,-0.044245,1392.437988,86222.796875,-0.565127,-1.006928,8.662109,8.051758,8.279240,15.875000,21.036739,1,2.880000,0,0,0, 202
