index, checksum,uptime mp,uptime nav,missiontime,  errorflag mp,errorflag NAV,  accel x, accel y, accel z, accelworld x, accelworld y, accelworld z, accelhighg x, accelhighg y, accelhighg z, gyro x, gyro y, gyro z, euler x, euler y, euler z, quat w, quat x, quat y, quat z, altitude, presusre, verticalvel,filtered vvel, maxalt, altitudeagl, filtered alt, imutemp, barotemp,state,battstate,pyros fired,pyros cont,pyros state, checksum2
10805, 101,4636,6234,-225194,1,1,-1.535643,9.808976,1.559909,-0.083440,-0.180489,0.247283,8.938695,2.965941,-5.653450,-0.118552,-1.457736,1.346815,172.081343,178.292185,171.852450,0.994909,-0.069922,0.009925,-0.071890,1336.510498,86813.625000,3.768800,-0.226617,1.671997,1.405151,1.297731,21.750000,27.406504,0,2.860000,0,0,0, 202
10806, 101,6292,6286,-223538,1,1,-1.691562,9.972071,1.314075,-0.221650,0.088924,0.395731,8.938695,2.965941,-5.172924,-0.422940,2.392087,-1.747016,172.053941,178.233991,171.858420,0.994886,-0.070195,0.010417,-0.071875,1336.608643,86810.632812,3.417875,-0.224895,1.671997,1.503296,1.287566,21.750000,27.406504,0,2.870000,0,0,0, 202
10807, 101,6343,6338,-223487,1,1,-1.499236,9.924585,1.407145,0.095073,0.086894,0.333524,9.899747,3.446467,-5.172924,-0.939939,-3.514649,-4.567571,171.540952,178.215919,171.116907,0.994072,-0.074724,0.009769,-0.078366,1336.566650,86811.859375,1.835120,0.739159,1.671997,1.461304,1.376882,21.750000,27.397423,0,2.870000,0,0,0, 202
10808, 101,6393,6391,-223437,1,1,-1.600815,9.879019,1.554622,-0.025128,-0.061909,0.326685,8.938695,2.485415,-5.653450,0.903312,0.847296,2.118419,171.512184,178.286515,171.205863,0.994127,-0.074920,0.009195,-0.077552,1336.484009,86810.101562,-1.584593,0.761395,1.671997,1.378662,1.411859,21.750000,27.388342,0,2.860000,0,0,0, 202
10809, 101,6443,6426,-223387,1,1,-1.605007,10.148954,1.518992,-0.304452,0.660530,0.137202,9.899747,4.888044,-5.172924,1.634985,-1.815192,-0.777496,171.534791,178.309998,171.157191,0.994733,-0.044874,0.012324,-0.091326,1336.323975,86819.085938,-1.863086,0.030831,1.671997,1.218628,1.376726,21.750000,27.388342,0,2.860000,0,0,0, 202
10810, 101,6493,6479,-223337,1,1,-1.372438,9.594964,1.718073,0.446264,-0.860420,-0.005122,9.419221,3.446467,-5.172924,1.206751,0.453595,-2.148163,175.037504,178.152589,169.547357,0.994716,-0.044574,0.012096,-0.091688,1336.412476,86813.210938,-1.156172,0.055970,1.671997,1.307129,1.378392,21.750000,27.383802,0,2.860000,0,0,0, 202
10811, 101,6543,6532,-223287,1,1,-1.393380,9.247007,1.329821,0.352394,-0.525121,-0.376715,9.899747,3.926993,-5.653450,1.874240,-0.327338,-3.840269,175.155420,178.154064,169.532904,0.994750,-0.068637,0.009137,-0.075353,1336.456055,86813.328125,0.675690,0.239975,1.671997,1.350708,1.366925,21.750000,27.379263,0,2.870000,0,0,0, 202
10812, 101,6592,6584,-223238,1,1,-1.558625,9.529236,1.159458,-0.107150,0.151070,-0.077539,11.341324,2.485415,-5.172924,-1.863345,3.959032,-1.879547,172.240801,178.328466,171.547687,0.994817,-0.068541,0.009528,-0.074501,1336.466797,86809.570312,-0.906864,0.223055,1.671997,1.361450,1.378044,21.750000,27.370182,0,2.870000,0,0,0, 202
10813, 101,6642,6640,-223188,1,1,-1.376830,9.153506,1.306361,0.026475,-0.050842,-0.452972,9.419221,2.485415,-5.653450,1.347169,3.891726,-1.122143,172.279665,178.197655,171.536444,0.994734,-0.070736,0.010412,-0.073429,1336.404297,86815.437500,-0.504495,-0.001475,1.671997,1.298950,1.341313,21.750000,27.374722,0,2.860000,0,0,0, 202
10814, 101,228643,229837,-1187,1,1,-1.329400,9.525978,0.928539,0.321641,0.226589,-0.146004,9.899747,4.407518,-5.653450,-0.096883,-1.278531,-1.046001,170.739771,-146.326858,166.056993,0.949796,-0.041651,-0.295941,-0.092586,1346.489258,86708.437500,0.147589,-0.292142,42.987793,11.383911,11.490851,22.625000,28.368895,1,2.870000,0,0,0, 202
10815, 101,230098,230092,268,1,1,-1.837694,9.633477,1.740205,-0.516465,-0.110892,0.145370,8.458169,3.926993,-5.172924,0.857588,-3.042840,3.728228,170.524238,-146.336680,166.052663,0.949736,-0.043438,-0.296035,-0.092075,1346.127441,86716.312500,-5.126873,-1.288677,42.987793,11.022095,11.336229,22.625000,28.373434,2,2.860000,0,0,0, 202
10816, 101,230154,230154,324,1,1,-1.635411,10.053429,1.498615,-0.124637,-0.007395,0.493477,8.938695,2.004889,-5.653450,-2.500067,-1.215932,-2.406323,170.436606,-146.333292,165.982353,0.949638,-0.043978,-0.296161,-0.092428,1346.338623,86710.187500,-3.677992,-2.065850,42.987793,11.233276,11.329473,22.625000,28.377974,2,2.870000,0,0,0, 202
10817, 101,230208,230198,378,1,1,-2.071607,10.042420,0.977760,-0.191922,0.676467,0.475348,10.380273,3.446467,-5.172924,-1.004327,-3.067776,4.631967,170.396076,-146.274962,165.985823,0.949484,-0.044251,-0.296672,-0.092236,1346.333862,86708.679688,-1.189090,-2.048664,42.987793,11.228516,11.248347,22.625000,28.359816,2,2.870000,0,0,0, 202
10818, 101,230262,230258,432,1,1,-1.795969,10.132488,1.095019,-0.015540,0.447306,0.537838,9.899747,3.446467,-5.653450,-2.433098,1.075213,1.568003,170.269185,-146.249404,165.975742,0.949365,-0.045245,-0.296989,-0.091965,1346.148438,86714.164062,-2.273864,-2.125282,42.987793,11.043091,11.233570,22.625000,28.341660,2,2.860000,0,0,0, 202
10819, 101,230317,230302,487,1,1,-1.904923,9.381394,1.160484,-0.288111,0.413711,-0.171262,9.419221,4.888044,-5.653450,1.855791,-0.450122,-1.728566,170.368482,-146.239910,165.952478,0.949362,-0.044351,-0.296996,-0.092405,1346.160156,86712.406250,-2.787400,-2.108680,42.987793,11.054810,11.150938,22.625000,28.332582,2,2.870000,0,0,0, 202
10820, 101,230371,230365,541,1,1,-1.585779,8.936115,1.603080,-0.408369,-0.115772,-0.594559,8.458169,2.485415,-5.653450,2.166235,-0.585193,1.929658,170.358851,-146.179804,166.257664,0.949455,-0.045149,-0.297379,-0.089792,1346.004639,86711.773438,-2.565251,-2.250988,42.987793,10.899292,11.121612,22.750000,28.318964,2,2.870000,0,0,0, 202
10821, 101,230426,230412,596,1,1,-2.133601,9.897979,0.935661,-0.304412,0.792182,0.331990,10.380273,4.407518,-4.211873,-1.126124,0.085765,3.844680,170.324919,-146.225225,166.366606,0.949637,-0.045767,-0.296988,-0.088846,1346.207886,86706.406250,-1.050842,-2.266091,42.987793,11.102539,11.028106,22.750000,28.332582,3,2.870000,3,0,3, 202
10822, 101,230480,230475,650,1,1,-1.605133,9.824412,0.935225,0.105052,0.505215,0.184184,9.419221,3.926993,-5.172924,-2.255229,0.326520,-2.184764,170.236782,-146.226004,166.389391,0.949621,-0.046558,-0.297041,-0.088430,1346.169922,86713.648438,1.321244,-1.230350,42.987793,11.064575,11.102499,22.750000,28.323503,3,2.860000,3,0,3, 202
10823, 101,230534,230520,704,1,1,-1.842477,9.776299,1.649034,-0.490458,0.058983,0.271042,8.458169,2.965941,-5.653450,-0.539651,-1.671105,-1.199833,170.195897,-146.121980,166.351375,0.949322,-0.046673,-0.297945,-0.088534,1346.249268,86707.890625,0.832469,-1.214015,42.987793,11.143921,11.054034,22.750000,28.314425,3,2.870000,3,0,3, 202
10824, 101,230590,230583,760,1,1,-1.210219,9.166226,1.711905,-0.152887,-0.367785,-0.406517,9.899747,3.926993,-5.172924,0.718606,-0.968512,0.268224,170.210582,-146.100929,166.480793,0.949376,-0.046862,-0.298054,-0.087479,1346.170166,86707.132812,-0.979965,-1.158811,42.987793,11.064819,11.089876,22.750000,28.305347,3,2.870000,3,0,3, 202
10825, 101,230645,230628,815,1,1,-1.548435,9.444515,0.970197,-0.520899,0.376996,-0.420363,8.938695,2.965941,-4.692398,-1.075577,-1.750909,2.889703,170.321531,-146.088211,166.729234,0.949578,-0.046574,-0.297974,-0.085696,1346.103271,86710.648438,-0.739007,-1.181375,42.987793,10.997925,11.043394,22.750000,28.323503,3,2.870000,3,0,3, 202
10826, 101,230700,230692,870,1,1,-1.039251,8.952812,1.376547,0.100670,-0.199099,-0.686287,10.380273,2.965941,-4.692398,1.865172,-0.639530,-11.202435,170.327624,-146.029362,166.695903,0.949412,-0.046368,-0.298467,-0.085929,1346.159302,86708.773438,-0.106172,-0.858057,42.987793,11.053955,11.077847,22.750000,28.318964,3,2.870000,3,0,3, 202
10827, 101,230754,230751,924,1,1,-1.607537,9.603140,0.785178,0.033495,0.660817,-0.055069,8.458169,3.446467,-5.172924,0.656213,0.699844,1.499030,170.424940,-146.013790,167.142488,0.949742,-0.046706,-0.298342,-0.082467,1345.947144,86715.132812,-1.417255,-0.878117,42.987793,10.841797,11.032122,22.750000,28.305347,3,2.870000,3,0,3, 202
10828, 101,230807,230796,977,1,1,-2.125067,9.483947,2.349020,-1.285426,-0.316819,0.109921,9.419221,2.965941,-5.172924,0.476064,-2.582603,1.326111,170.393112,-146.023652,167.176093,0.949777,-0.047069,-0.298270,-0.082115,1345.901245,86712.132812,-2.819190,-1.418381,42.987793,10.795898,10.983341,22.750000,28.305347,3,2.860000,3,0,3, 202
10829, 101,230861,230856,1031,1,1,-1.357323,9.233401,1.149510,-0.025998,0.199709,-0.399998,9.899747,2.965941,-5.653450,0.722104,2.373337,-7.199230,170.413821,-146.024732,167.069268,0.949711,-0.046620,-0.298290,-0.083056,1345.815308,86714.132812,-2.818403,-1.405968,42.987793,10.709961,10.908521,22.750000,28.305347,3,2.870000,3,0,3, 202
10830, 101,231100,231093,1270,1,1,-1.675480,9.065668,0.773946,-0.043665,0.627803,-0.570804,8.938695,2.004889,-5.653450,1.051884,3.272547,2.696044,170.503993,-146.051574,166.616809,0.949477,-0.044726,-0.298183,-0.087066,1346.058228,86708.437500,2.680555,-2.386645,42.987793,10.952881,10.588083,22.750000,28.368895,4,2.860000,3,0,0, 202
10831, 101,231155,231152,1325,1,1,-1.396796,10.028681,1.823736,-0.195195,-0.387732,0.478254,9.419221,3.446467,-5.653450,1.823402,0.634738,-6.556730,170.572268,-146.090452,166.455672,0.949475,-0.043788,-0.297872,-0.088617,1346.082520,86707.921875,2.192251,-0.511983,42.987793,10.977173,10.788795,22.750000,28.350739,4,2.870000,3,0,0, 202
10832, 101,231209,231197,1379,1,1,-1.866684,10.245254,0.802578,0.063149,0.691854,0.620670,9.419221,3.926993,-5.653450,-0.681867,-1.600639,-4.074831,170.652140,-146.044129,166.279685,0.949254,-0.042613,-0.298258,-0.090237,1346.054810,86715.164062,1.685392,-0.505452,42.987793,10.949463,10.768751,22.750000,28.341660,4,2.870000,3,0,0, 202
10833, 101,231262,231259,1432,1,1,-1.635378,9.671266,1.200033,-0.061728,0.186478,0.078744,9.899747,2.485415,-5.172924,0.765525,0.714740,-6.994532,170.738719,-145.993354,166.103794,0.949022,-0.041377,-0.298671,-0.091870,1346.316895,86705.132812,3.402547,0.426151,42.987793,11.211548,10.935309,22.750000,28.305347,4,2.870000,3,0,0, 202
10834, 101,231318,231303,1488,1,1,-1.449339,9.555608,1.837768,-0.291416,-0.451966,0.022361,9.419221,2.965941,-5.172924,2.336789,1.337559,-0.275737,170.782774,-146.030455,166.110979,0.949135,-0.041075,-0.298328,-0.091961,1346.027588,86714.773438,2.174238,0.431273,42.987793,10.922241,10.952083,22.750000,28.318964,4,2.870000,3,0,0, 202
10835, 101,231373,231367,1543,1,1,-1.649739,10.306126,1.642384,-0.195463,-0.169273,0.761596,8.938695,3.926993,-5.172924,-0.263674,0.273157,-3.771085,170.841158,-146.046165,166.122905,0.949203,-0.040642,-0.298148,-0.092030,1345.913818,86715.132812,-1.255139,0.638690,42.987793,10.808472,10.969551,22.750000,28.305347,4,2.870000,3,0,0, 202
10836, 101,231429,231412,1599,1,1,-1.602021,9.959972,1.032263,0.352650,0.371348,0.244896,9.419221,2.485415,-5.653450,-0.929999,2.386012,6.004568,170.882741,-146.125750,166.031927,0.949338,-0.040157,-0.297491,-0.092969,1345.888062,86710.406250,-2.636455,0.663296,42.987793,10.782715,10.995288,22.750000,28.332582,4,2.870000,3,0,0, 202
10837, 101,231484,231476,1654,1,1,-1.466455,10.069391,0.863256,0.333817,0.368791,0.399044,9.899747,2.965941,-5.172924,-0.521213,-1.402007,1.873460,170.820572,-146.160844,166.183666,0.949524,-0.041108,-0.297198,-0.091584,1346.049194,86708.773438,-0.822880,-0.288811,42.987793,10.943848,10.881948,22.750000,28.318964,4,2.870000,3,0,0, 202
10838, 101,231538,231536,1708,1,1,-1.261965,9.189154,1.170823,0.143598,-0.007268,-0.453099,9.899747,2.004889,-4.692398,-0.876453,-1.307839,12.796919,170.772925,-146.150434,166.250998,0.949535,-0.041665,-0.297297,-0.090892,1346.019653,86712.890625,1.446651,0.197461,42.987793,10.914307,10.899816,22.750000,28.314425,4,2.870000,3,0,0, 202
10839, 101,231592,231581,1762,1,1,-1.269650,8.839625,1.416972,-0.089706,-0.219416,-0.762051,10.860798,4.888044,-5.653450,2.676086,1.329848,-3.026872,170.902780,-146.161212,166.416425,0.949739,-0.041031,-0.297046,-0.089869,1345.949219,86712.132812,0.255861,0.166131,42.987793,10.843872,10.907425,22.750000,28.305347,4,2.870000,3,0,0, 202
10840, 101,231647,231642,1817,1,1,-1.707470,9.289109,1.269266,-0.294394,0.163142,-0.277306,10.380273,1.043838,-5.172924,1.113399,0.980320,2.505927,170.990945,-146.214720,166.580131,0.950028,-0.040787,-0.296478,-0.088791,1346.245117,86707.132812,2.450639,0.841226,42.987793,11.139771,10.980193,22.625000,28.305347,4,2.870000,3,0,0, 202
10841, 101,231701,231687,1871,1,1,-1.728755,9.189114,1.563635,-0.495363,-0.087460,-0.334199,9.419221,2.965941,-5.172924,0.970106,-1.036317,0.370801,171.106511,-146.209666,166.584871,0.950060,-0.039835,-0.296428,-0.089046,1346.105103,86709.132812,3.091055,0.819855,42.987793,10.999756,11.013445,22.625000,28.305347,4,2.870000,3,0,0, 202
10842, 101,231756,231750,1926,1,1,-1.518541,9.547274,0.978216,0.056183,0.289793,-0.088834,9.419221,4.407518,-5.172924,-0.175986,-1.944152,-3.777384,171.104285,-146.149970,166.669033,0.949979,-0.040002,-0.296893,-0.088286,1346.001953,86710.257812,-0.605687,0.427822,42.987793,10.896606,10.952190,22.625000,28.300808,4,2.870000,3,0,0, 202
10843, 101,231810,231795,1980,1,1,-1.626190,9.925814,1.262617,-0.435878,0.241480,0.484159,8.938695,4.407518,-5.172924,-0.288794,-1.994470,-4.113269,171.007788,-146.118046,166.619979,0.949829,-0.040638,-0.297248,-0.088413,1346.369019,86703.406250,2.174434,0.431657,42.987793,11.263672,10.969033,22.625000,28.332582,4,2.870000,3,0,0, 202
10844, 101,231865,231858,2035,1,1,-1.794460,10.168243,1.226917,-0.157196,0.252564,0.592752,9.419221,3.446467,-5.653450,0.220110,1.577387,-0.968357,171.020451,-146.081381,166.462474,0.949622,-0.040081,-0.297596,-0.089716,1346.328369,86708.015625,4.286424,1.530280,42.987793,11.223022,11.042874,22.625000,28.309885,4,2.870000,3,0,0, 202
10845, 101,232102,232095,2272,1,1,-1.839977,9.922596,0.775231,0.031688,0.661360,0.298802,9.419221,2.965941,-5.653450,-2.931102,1.635642,-1.173078,170.839697,-146.130477,166.322292,0.949567,-0.041273,-0.297383,-0.090455,1346.173462,86711.437500,1.482207,0.620853,42.987793,11.068115,11.022368,22.625000,28.368895,4,2.870000,3,0,0, 202
10846, 101,232156,232154,2326,1,1,-1.817731,9.985691,1.078404,-0.097135,0.401428,0.397556,8.938695,2.965941,-5.653450,-2.018383,1.418569,2.324063,170.809972,-146.214666,166.267882,0.949718,-0.041479,-0.296733,-0.090911,1346.509033,86705.679688,4.268209,0.626189,42.987793,11.403687,11.054440,22.625000,28.359816,4,2.870000,3,0,0, 202
10847, 101,232211,232199,2381,1,1,-1.830031,9.762552,0.580181,0.114047,0.825230,0.113587,9.899747,3.926993,-5.172924,-0.964393,-0.096213,2.251464,170.776094,-146.186675,166.348082,0.949701,-0.041934,-0.296961,-0.090131,1346.368530,86712.164062,4.272464,1.868954,42.987793,11.263184,11.195681,22.625000,28.341660,4,2.870000,3,0,0, 202
10848, 101,232264,232260,2434,1,1,-1.859787,9.567986,1.002470,-0.185299,0.509024,-0.017510,9.419221,4.888044,-6.133976,1.915085,-1.388114,3.687707,170.679502,-146.212480,166.366879,0.949743,-0.042814,-0.296817,-0.089750,1345.967896,86716.648438,-1.957266,1.884178,42.987793,10.862549,11.296846,22.625000,28.323503,4,2.870000,3,0,0, 202
10849, 101,232319,232306,2489,1,1,-2.021915,9.975748,0.737667,-0.108201,0.855789,0.367764,10.380273,3.446467,-5.653450,-1.828924,-1.076864,4.888185,170.606364,-146.183219,166.493456,0.949743,-0.043713,-0.297067,-0.088483,1346.054321,86709.890625,-4.325893,0.212873,42.987793,10.948975,11.073895,22.625000,28.314425,4,2.870000,3,0,0, 202
10850, 101,232375,232369,2545,1,1,-1.847365,10.028978,0.881256,-0.038657,0.653642,0.413746,9.899747,2.485415,-5.653450,-1.444809,1.905212,1.653365,170.537666,-146.206114,166.509002,0.949784,-0.044350,-0.296926,-0.088198,1345.947388,86712.132812,-2.939387,0.225188,42.987793,10.842041,11.086100,22.625000,28.305347,4,2.870000,3,0,0, 202
10851, 101,232429,232414,2599,1,1,-1.280666,9.867832,1.445783,0.078741,-0.142912,0.252750,8.458169,2.965941,-5.653450,0.787720,1.142202,-4.904818,170.548034,-146.224651,166.480438,0.949811,-0.044212,-0.296776,-0.088480,1346.225342,86706.648438,-0.175157,-0.264074,42.987793,11.119995,11.041065,22.625000,28.323503,4,2.870000,3,0,0, 202
10852, 101,232485,232477,2655,1,1,-1.687674,9.511055,1.673054,-0.439810,-0.105266,-0.007992,8.458169,2.965941,-5.172924,0.682324,2.160299,-3.019505,170.520249,-146.377197,166.469742,0.950161,-0.044596,-0.295544,-0.088647,1346.293457,86707.648438,2.895064,-0.252275,42.987793,11.188110,11.027683,22.625000,28.323503,4,2.870000,3,0,0, 202
10853, 101,232539,232521,2709,1,1,-1.434407,9.299552,1.172701,0.047359,0.668923,-0.488088,8.938695,3.446467,-5.653450,-2.146585,1.521093,-2.232520,170.520317,-146.400938,166.638693,0.950348,-0.045059,-0.295282,-0.087269,1346.135986,86712.648438,0.713763,0.559835,42.987793,11.030640,11.088716,22.625000,28.323503,4,2.870000,3,0,0, 202
10854, 101,232593,232583,2763,1,1,-2.018919,9.112702,1.012426,-0.433477,0.634955,-0.444114,9.899747,3.446467,-5.172924,-0.852881,0.386418,4.268204,170.443204,-146.455211,166.579995,0.950404,-0.045611,-0.294917,-0.087611,1346.262573,86706.132812,-0.262545,0.538905,42.987793,11.157227,11.118891,22.625000,28.305347,4,2.870000,3,0,0, 202
10855, 101,232648,232644,2818,1,1,-1.909921,9.439454,1.010730,-0.299258,0.597580,-0.140461,9.899747,2.485415,-6.614501,-0.001494,-1.339877,-0.150172,170.445417,-146.463653,166.711681,0.950525,-0.045942,-0.294793,-0.086532,1346.328125,86705.015625,0.589129,0.271992,42.987793,11.222778,11.096756,22.625000,28.309885,4,2.860000,3,0,0, 202
10856, 101,232702,232689,2872,1,1,-1.458841,9.295119,2.034513,-0.516404,-0.497462,-0.201388,8.938695,3.926993,-5.653450,-0.907633,-1.019542,-1.703753,170.354371,-146.441974,166.631207,0.950375,-0.046464,-0.295073,-0.086944,1346.408813,86704.132812,1.646599,0.265305,42.987793,11.303467,11.107430,22.625000,28.305347,4,2.870000,3,0,0, 202
10857, 101,232757,232752,2927,1,1,-1.720999,9.372105,1.833282,-0.600000,-0.162148,-0.117364,10.380273,4.407518,-5.172924,-0.938157,0.135002,-0.808403,170.236960,-146.447684,166.611728,0.950326,-0.047395,-0.295123,-0.086809,1346.491089,86708.132812,3.336299,0.921052,42.987793,11.385742,11.205914,22.625000,28.305347,4,2.870000,3,0,0, 202
10858, 101,232811,232796,2981,1,1,-1.962286,9.528102,0.867749,-0.236362,0.784655,-0.068748,9.419221,3.446467,-5.653450,-0.785139,1.514393,3.051363,170.196416,-146.539441,166.653501,0.950562,-0.047947,-0.294380,-0.086450,1346.673584,86703.015625,3.693593,0.916720,42.987793,11.568237,11.242185,22.625000,28.309885,4,2.870000,3,0,0, 202
10859, 101,232866,232860,3036,1,1,-1.792906,9.809283,1.465106,-0.367543,0.214997,0.268845,10.380273,5.368570,-5.653450,-0.960998,-1.293698,3.487813,170.127486,-146.406744,166.584202,0.950161,-0.048183,-0.295555,-0.086714,1346.775757,86701.382812,2.557525,1.459013,42.987793,11.670410,11.321369,22.625000,28.296268,4,2.870000,3,0,0, 202
10860, 101,233104,233097,3274,1,1,-2.011118,9.229629,1.112450,-0.473965,0.594712,-0.319974,9.899747,2.004889,-4.211873,1.262432,0.727061,-0.466766,170.242356,-146.387059,166.674210,0.950230,-0.047439,-0.295593,-0.086244,1347.366943,86699.187500,6.651358,2.886077,42.987793,12.261597,11.847901,22.625000,28.377974,4,2.860000,3,0,0, 202
10861, 101,233159,233155,3329,1,1,-1.969500,9.092424,0.973459,-0.363334,0.656676,-0.477079,9.899747,2.004889,-5.172924,1.725690,-1.392546,-0.773295,170.276589,-146.363058,166.476818,0.950036,-0.046618,-0.295846,-0.087945,1347.479736,86695.679688,5.331128,4.085862,42.987793,12.374390,12.008441,22.625000,28.359816,4,2.860000,3,0,0, 202
10862, 101,233211,233200,3381,1,1,-1.507118,8.837569,1.394868,-0.277926,0.022257,-0.732265,9.899747,3.926993,-5.653450,2.800901,-1.048209,-2.913433,170.394382,-146.295958,166.508264,0.949945,-0.045643,-0.296296,-0.087922,1347.554199,86694.164062,3.820518,4.066839,42.987793,12.448853,12.168799,22.625000,28.341660,4,2.870000,3,0,0, 202
10863, 101,233265,233261,3435,1,1,-1.670267,9.060272,1.149420,-0.269365,0.336986,-0.526661,9.419221,4.407518,-4.692398,1.299465,0.370929,0.436783,170.476139,-146.275318,166.796061,0.950146,-0.045685,-0.296289,-0.085727,1347.743774,86694.406250,4.538877,4.236669,42.987793,12.638428,12.254092,22.625000,28.332582,4,2.870000,3,0,0, 202
10864, 101,233321,233307,3491,1,1,-1.830922,9.551041,1.711721,-0.623656,0.005227,0.053728,9.899747,2.965941,-5.653450,-3.352392,-0.070868,2.399490,170.379233,-146.265455,166.831277,0.950109,-0.046568,-0.296429,-0.085175,1347.892944,86687.648438,4.712195,4.227909,42.987793,12.787598,12.421623,22.625000,28.323503,4,2.860000,3,0,0, 202
10865, 101,233377,233370,3547,1,1,-1.497886,9.601835,1.176385,-0.058266,0.274900,-0.016123,8.938695,4.407518,-5.172924,-1.392800,1.119215,1.262479,170.315179,-146.302174,166.917201,0.950235,-0.047364,-0.296138,-0.084333,1347.940552,86691.648438,3.207195,3.997964,42.987793,12.835205,12.471462,22.625000,28.323503,4,2.860000,3,0,0, 202
10866, 101,233432,233415,3602,1,1,-1.751242,9.779339,0.952140,-0.177083,0.177845,-0.434052,10.380273,2.965941,-5.653450,0.212426,0.428083,-1.158991,170.301095,-146.325588,166.776322,0.950182,-0.047144,-0.296014,-0.085488,1347.919922,86693.164062,1.653252,3.989792,42.987793,12.814575,12.631535,22.625000,28.341660,4,2.870000,3,0,0, 202
10867, 101,233487,233478,3657,1,1,-1.646067,9.441185,1.561556,-0.414199,0.033372,-0.099903,8.458169,3.446467,-5.172924,1.721319,0.749487,1.676507,170.309701,-146.363249,166.871166,0.950347,-0.047361,-0.295658,-0.084761,1347.881958,86695.289062,0.373201,3.223330,42.987793,12.776611,12.626019,22.625000,28.337120,4,2.870000,3,0,0, 202
10868, 101,233540,233539,3710,1,1,-1.594815,9.506410,1.568095,-0.359919,-0.016854,-0.041679,8.938695,3.926993,-5.653450,1.419857,1.018826,-1.647877,170.406567,-146.435308,166.857246,0.950550,-0.046606,-0.294997,-0.085197,1348.141479,86688.648438,1.580394,3.224045,42.987793,13.036133,12.797071,22.625000,28.323503,4,2.870000,3,0,0, 202
10869, 101,233595,233584,3765,1,1,-1.866866,10.068727,1.305321,-0.339012,0.370685,0.509964,9.899747,2.965941,-5.653450,-0.022608,-1.041397,1.020672,170.467752,-146.396376,166.919428,0.950527,-0.046213,-0.295248,-0.084801,1348.215698,86688.648438,2.961782,2.880671,42.987793,13.110352,12.801670,22.625000,28.323503,4,2.870000,3,0,0, 202
10870, 101,233649,233644,3819,1,1,-1.648003,9.982098,1.377389,-0.255490,0.203198,0.404333,8.938695,2.965941,-5.653450,-0.149809,-1.755099,2.953429,170.489568,-146.255196,167.152146,0.950364,-0.046471,-0.296302,-0.082790,1348.180420,86690.773438,2.417808,2.893451,42.987793,13.075073,12.953565,22.625000,28.318964,4,2.870000,3,0,0, 202
10871, 101,233703,233689,3873,1,1,-1.819118,9.499388,1.789070,-0.704120,-0.062547,0.009639,8.458169,3.926993,-5.653450,0.553917,0.407732,-0.246902,170.497737,-146.239637,167.091630,0.950285,-0.046229,-0.296449,-0.083297,1348.182861,86686.898438,0.839620,2.412999,42.987793,13.077515,12.876672,22.625000,28.314425,4,2.870000,3,0,0, 202
10872, 101,233759,233752,3929,1,1,-1.473957,9.611251,1.496654,-0.277562,0.009342,0.033202,9.419221,3.446467,-5.172924,1.636148,-0.257310,5.194957,170.493147,-146.213709,167.345235,0.950403,-0.046894,-0.296563,-0.081157,1348.267212,86689.015625,1.156815,2.427252,42.987793,13.161865,13.004008,22.625000,28.309885,4,2.870000,3,0,0, 202
10873, 101,233813,233798,3983,1,1,-1.838451,9.882282,1.250555,-0.376141,0.428316,0.312276,10.380273,3.446467,-4.692398,-0.813225,-1.034907,-3.066741,170.462452,-146.174149,167.265213,0.950237,-0.046896,-0.296944,-0.081703,1348.299194,86688.406250,2.020998,2.293114,42.987793,13.193848,13.004762,22.625000,28.332582,4,2.870000,3,0,0, 202
10874, 101,233868,233861,4038,1,1,-1.995438,10.099564,1.380418,-0.562695,0.425830,0.561942,10.380273,2.485415,-5.172924,-0.416574,0.680795,6.827345,170.530617,-146.123988,167.437580,0.950264,-0.046721,-0.297239,-0.080402,1348.618286,86680.656250,3.208158,2.305135,42.987793,13.512939,13.123141,22.625000,28.323503,4,2.870000,3,0,0, 202
10875, 101,234106,234098,4276,1,1,-2.016502,9.418176,1.061502,-0.511251,0.649097,-0.146343,9.419221,4.407518,-5.172924,-0.247976,0.023664,0.277118,170.603973,-145.883101,167.310511,0.949613,-0.045512,-0.299224,-0.081415,1348.955566,86681.312500,3.445600,3.080459,42.987793,13.850220,13.593569,22.625000,28.373434,4,2.860000,3,0,0, 202
10876, 101,234159,234156,4329,1,1,-1.829490,9.595070,1.410616,-0.520890,0.260206,0.051066,10.860798,3.446467,-5.653450,0.147460,-0.401326,4.872084,170.606992,-145.849892,167.283982,0.949514,-0.045380,-0.299506,-0.081610,1349.023438,86675.554688,-1.381444,3.078586,42.987793,13.918091,13.749120,22.625000,28.364355,4,2.870000,3,0,0, 202
10877, 101,234212,234201,4382,1,1,-1.450082,9.045509,1.927496,-0.608675,-0.397763,-0.467698,9.419221,2.965941,-5.653450,0.360206,1.291802,-2.222482,170.604383,-145.860739,167.315524,0.949562,-0.045497,-0.299406,-0.081353,1349.117920,86676.921875,-0.012454,2.196770,42.987793,14.012573,13.734011,22.625000,28.350739,4,2.860000,3,0,0, 202
10878, 101,234266,234262,4436,1,1,-1.618155,9.710617,1.684548,-0.536224,-0.066142,0.171979,8.938695,3.446467,-4.692398,2.630533,-0.736410,4.852448,170.719854,-145.684629,167.624740,0.949389,-0.045153,-0.300654,-0.078925,1348.995850,86680.531250,1.230563,2.186755,42.987793,13.890503,13.853190,22.625000,28.328043,4,2.870000,3,0,0, 202
10879, 101,234321,234308,4491,1,1,-1.444629,9.351662,1.224875,-0.238222,0.213529,-0.264832,8.458169,3.926993,-6.133976,1.426237,2.027293,8.206000,170.762721,-145.717414,167.906363,0.949678,-0.045572,-0.300243,-0.076735,1349.028198,86677.531250,0.017626,1.574158,42.987793,13.922852,13.797307,22.625000,28.328043,4,2.870000,3,0,0, 202
10880, 101,234377,234370,4547,1,1,-1.857796,9.300975,1.244736,-0.555128,0.397396,-0.259364,9.419221,4.407518,-5.172924,0.148912,2.119766,-3.913794,170.833468,-145.801111,167.648851,0.949738,-0.044403,-0.299606,-0.079132,1348.864746,86682.898438,-0.401860,1.559270,42.987793,13.759399,13.882163,22.625000,28.314425,4,2.860000,3,0,0, 202
10881, 101,234431,234415,4601,1,1,-1.523163,9.271262,1.101788,-0.385762,-0.257823,-0.237619,8.938695,2.965941,-5.653450,1.444738,2.307864,-0.999840,170.950742,-145.794226,167.658550,0.949773,-0.043449,-0.299578,-0.079352,1349.382202,86672.406250,2.727851,1.545249,42.987793,14.276855,13.906368,22.625000,28.332582,4,2.870000,3,0,0, 202
10882, 101,234486,234478,4656,1,1,-1.133421,9.301629,1.449812,-0.079236,-0.210789,-0.321749,9.899747,3.926993,-5.172924,-2.192554,0.609331,-5.205132,170.955113,-145.837024,167.613798,0.949849,-0.043343,-0.299239,-0.079774,1349.208008,86682.406250,4.664336,1.532746,42.987793,14.102661,13.985003,22.625000,28.332582,4,2.870000,3,0,0, 202
10883, 101,234540,234539,4710,1,1,-1.498492,9.629457,1.399616,-0.278331,0.063102,0.040209,8.938695,4.407518,-5.653450,-1.596819,-2.431743,-1.603303,170.853453,-145.879126,167.553474,0.949872,-0.044074,-0.298986,-0.080048,1349.419922,86674.531250,2.809527,2.191093,42.987793,14.314575,14.061025,22.625000,28.328043,4,2.870000,3,0,0, 202
10884, 101,234593,234583,4763,1,1,-1.685754,10.225238,0.864809,-0.029096,0.656587,0.577497,9.899747,2.965941,-5.653450,-2.922607,-0.952033,5.324620,170.724553,-145.888401,167.592570,0.949872,-0.045255,-0.298984,-0.079397,1349.496826,86676.015625,3.009099,2.192587,42.987793,14.391479,14.146787,22.625000,28.309885,4,2.860000,3,0,0, 202
10885, 101,234646,234643,4816,1,1,-1.907241,10.172556,0.880812,-0.229153,0.781197,0.554265,9.419221,4.888044,-5.653450,-0.647165,-1.520770,3.350088,170.661770,-145.771823,167.597679,0.949563,-0.045660,-0.299986,-0.079080,1349.290161,86680.656250,0.755379,2.223183,42.987793,14.184814,14.161824,22.625000,28.323503,4,2.870000,3,0,0, 202
10886, 101,234701,234687,4871,1,1,-1.320085,10.111180,1.577092,-0.158851,-0.126320,0.515231,8.938695,4.888044,-4.692398,-0.822184,0.654415,0.263909,170.659025,-145.789049,167.610110,0.949613,-0.045734,-0.299841,-0.078986,1349.351807,86676.015625,-1.247942,2.241289,42.987793,14.246460,14.249154,22.625000,28.309885,4,2.870000,3,0,0, 202
10887, 101,234755,234751,4925,1,1,-1.638998,9.521136,1.269302,-0.328576,0.271143,-0.066115,10.860798,4.888044,-5.172924,-1.155974,2.456293,-10.234618,170.669680,-145.866790,167.482823,0.949721,-0.045399,-0.299244,-0.080143,1349.610962,86675.015625,2.009925,1.805493,42.987793,14.505615,14.299475,22.625000,28.309885,4,2.870000,3,0,0, 202
10888, 101,234810,234795,4980,1,1,-1.975856,10.468960,0.972499,-0.268485,0.759031,0.866740,10.860798,2.004889,-5.172924,-2.546251,1.111474,1.753527,170.605271,-145.921541,167.516837,0.949853,-0.046083,-0.298824,-0.079745,1349.440186,86677.656250,2.257717,1.815977,42.987793,14.334839,14.370583,22.625000,28.323503,4,2.870000,3,0,0, 202
10889, 101,234865,234859,5035,1,1,-1.955152,10.194823,1.216394,-0.438727,0.559702,0.626411,10.860798,2.485415,-5.172924,-2.018418,-2.025107,-0.071091,170.480115,-145.792546,167.507534,0.949478,-0.046952,-0.299977,-0.079371,1349.444214,86679.140625,-0.580700,1.410374,42.987793,14.338867,14.364594,22.625000,28.305347,4,2.870000,3,0,0, 202
10890, 101,235108,235097,5278,1,1,-1.818197,9.532225,1.120428,-0.442668,0.584086,-0.059984,8.938695,2.485415,-6.133976,-0.226593,-1.391931,4.104290,170.367335,-145.741648,167.857500,0.949543,-0.048747,-0.300327,-0.076126,1349.935303,86673.312500,3.084750,3.740068,42.987793,14.829956,14.880552,22.625000,28.373434,4,2.870000,3,0,0, 202
10891, 101,235161,235157,5331,1,1,-1.621585,9.868188,0.950546,-0.084679,0.593126,0.226724,10.380273,2.965941,-4.692398,-0.753480,2.843512,-4.785061,170.377225,-145.823528,167.555387,0.949545,-0.047964,-0.299773,-0.078735,1349.920410,86675.554688,-1.212766,2.137541,42.987793,14.815063,14.762995,22.625000,28.364355,4,2.860000,3,0,0, 202
10892, 101,235217,235202,5387,1,1,-1.825441,9.438543,1.355115,-0.539332,0.361913,-0.114266,9.899747,3.926993,-5.172924,0.829431,1.676125,-4.422965,170.321067,-145.810947,167.453221,0.949420,-0.048148,-0.299959,-0.079422,1350.063965,86668.046875,-0.116133,2.146939,42.987793,14.958618,14.847830,22.625000,28.346199,4,2.870000,3,0,0, 202
10893, 101,235272,235265,5442,1,1,-1.672732,9.839104,0.819843,-0.039378,0.726542,0.186428,8.938695,2.485415,-6.133976,0.559716,-0.858312,1.325058,170.310357,-145.769351,167.421324,0.949291,-0.048106,-0.300322,-0.079618,1350.381836,86661.656250,2.948898,2.369357,42.987793,15.276489,14.934961,22.625000,28.323503,4,2.870000,3,0,0, 202
10894, 101,235326,235310,5496,1,1,-1.403180,10.040637,1.111148,-0.459221,0.291511,0.160917,10.380273,3.446467,-5.653450,1.271767,-4.694655,3.570919,170.269895,-145.729422,167.633988,0.949321,-0.048955,-0.300589,-0.077711,1350.564209,86661.921875,5.092579,2.378092,42.987793,15.458862,15.030168,22.625000,28.350739,4,2.860000,3,0,0, 202
10895, 101,235382,235374,5552,1,1,-1.545802,9.927702,1.079364,-0.121929,0.496362,0.291203,9.899747,2.004889,-5.172924,-0.635808,-1.283873,2.481605,170.222248,-145.590291,167.774540,0.949051,-0.049565,-0.301706,-0.076285,1350.696899,86660.164062,5.227559,3.185986,42.987793,15.591553,15.154834,22.625000,28.341660,4,2.870000,3,0,0, 202
10896, 101,235436,235419,5606,1,1,-1.353326,9.435391,0.815123,-0.100071,-0.074524,-0.204539,9.899747,2.965941,-5.172924,-3.528895,1.356149,-3.106506,170.183302,-145.590974,167.928110,0.949137,-0.050292,-0.301659,-0.074911,1350.594360,86664.046875,3.008232,3.188388,42.987793,15.489014,15.282215,22.750000,28.346199,4,2.870000,3,0,0, 202
10897, 101,235491,235483,5661,1,1,-1.323143,9.439248,1.225172,-0.107982,0.266429,-0.195350,8.938695,2.965941,-5.172924,-2.231722,2.205369,-3.415668,169.978997,-145.721198,167.782368,0.949273,-0.051745,-0.300786,-0.075710,1350.608398,86665.289062,1.045202,2.574334,42.987793,15.503052,15.271450,22.750000,28.337120,4,2.860000,3,0,0, 202
10898, 101,235544,235527,5714,1,1,-1.643208,9.512527,1.272015,-0.037809,0.525902,-0.366007,8.938695,2.965941,-5.653450,-3.088498,1.555465,-5.122259,170.054239,-145.801644,167.667033,0.949428,-0.050908,-0.300125,-0.076943,1350.726318,86661.164062,0.346125,2.563288,42.987793,15.620972,15.371185,22.750000,28.341660,4,2.870000,3,0,0, 202
10899, 101,235600,235590,5770,1,1,-1.439472,9.742280,1.214628,-0.089454,0.326848,0.115884,10.380273,3.926993,-4.211873,-0.334363,-1.269963,-3.176662,169.960105,-145.851149,167.426965,0.949345,-0.051115,-0.299888,-0.078735,1350.871948,86658.804688,1.518156,2.272569,42.987793,15.766602,15.437393,22.750000,28.355278,4,2.870000,3,0,0, 202
10900, 101,235653,235650,5823,1,1,-1.927925,9.582302,0.896147,-0.364787,0.881757,-0.032176,9.899747,3.446467,-5.172924,0.283217,-3.129354,5.352214,169.953562,-145.715174,167.630737,0.949145,-0.051551,-0.300921,-0.076893,1350.732422,86661.656250,0.770029,2.277096,42.987793,15.627075,15.558123,22.750000,28.323503,4,2.870000,3,0,0, 202
10901, 101,235706,235695,5876,1,1,-1.338648,10.190928,1.610733,-0.194538,0.011622,0.601089,9.899747,2.485415,-5.653450,-1.620313,0.015731,2.701738,169.882719,-145.770034,167.713806,0.949304,-0.052417,-0.300479,-0.076075,1350.888794,86659.531250,0.215295,1.684776,42.987793,15.783447,15.553398,22.750000,28.328043,4,2.870000,3,0,0, 202
10902, 101,235761,235757,5931,1,1,-1.694150,9.642576,1.420733,-0.487078,0.356195,0.073400,8.938695,4.407518,-6.614501,0.319764,0.423069,1.886577,169.865370,-145.783831,167.827747,0.949405,-0.052874,-0.300324,-0.075099,1350.969360,86657.656250,2.050882,1.699845,42.987793,15.864014,15.645248,22.750000,28.323503,4,2.860000,3,0,0, 202
10903, 101,235816,235802,5986,1,1,-1.365149,9.641256,1.080318,-0.024987,0.437465,-0.013633,9.419221,2.485415,-5.653450,-0.150670,1.629189,-0.433498,169.888033,-145.899821,167.810959,0.949690,-0.052771,-0.299361,-0.075414,1350.993652,86661.773438,2.269350,1.851797,42.987793,15.888306,15.665656,22.750000,28.318964,4,2.870000,3,0,0, 202
10904, 101,235872,235865,6042,1,1,-1.548588,9.413548,1.035209,-0.162527,0.546135,-0.221857,9.899747,2.965941,-5.172924,0.333467,-0.864194,1.588979,169.912376,-145.898920,167.625956,0.949576,-0.052085,-0.299437,-0.077009,1351.068970,86659.140625,1.467559,1.844954,42.987793,15.963623,15.763452,22.750000,28.305347,4,2.870000,3,0,0, 202
10905, 101,236109,236102,6279,1,1,-1.684777,10.009063,1.186245,-0.266037,0.583190,0.397828,9.419221,2.965941,-4.692398,-1.809449,0.183121,5.154927,169.679876,-145.811329,167.710828,0.949309,-0.054135,-0.300274,-0.075609,1351.354980,86658.187500,4.380021,1.586473,42.987793,16.249634,16.053459,22.750000,28.377974,4,2.870000,3,0,0, 202
10906, 101,236164,236160,6334,1,1,-1.753404,10.143807,1.408368,-0.399427,0.442028,0.572033,9.899747,3.446467,-5.653450,0.119656,-1.411676,0.283938,169.635739,-145.801658,167.553160,0.949160,-0.054077,-0.300458,-0.076790,1351.323486,86655.437500,-1.736307,1.636625,42.987793,16.218140,16.072659,22.750000,28.368895,4,2.870000,3,0,0, 202
10907, 101,236217,236205,6387,1,1,-1.467718,10.032091,1.858047,-0.432456,-0.090456,0.497261,9.899747,5.849096,-5.653450,-1.308607,-2.519702,-4.915270,169.572014,-145.779132,167.486962,0.949030,-0.054405,-0.300717,-0.077148,1351.501709,86652.921875,-1.216413,1.652789,42.987793,16.396362,16.138319,22.750000,28.350739,4,2.870000,3,0,0, 202
10908, 101,236272,236267,6442,1,1,-1.691099,10.049078,1.591514,-0.485132,0.281872,0.497636,8.458169,3.926993,-5.172924,1.249179,-2.700632,1.912150,169.524831,-145.737522,167.651269,0.949014,-0.055181,-0.301013,-0.075620,1351.575439,86652.531250,2.003676,1.307779,42.987793,16.470093,16.208181,22.750000,28.328043,4,2.860000,3,0,0, 202
10909, 101,236326,236312,6496,1,1,-1.645101,9.951275,1.522462,-0.463891,0.323742,0.383897,8.938695,2.485415,-6.133976,-0.791654,1.062647,7.560259,169.567929,-145.772261,167.915584,0.949293,-0.055556,-0.300571,-0.073580,1351.610229,86651.531250,1.917194,1.320650,42.987793,16.504883,16.260246,22.750000,28.328043,4,2.870000,3,0,0, 202
10910, 101,236379,236375,6549,1,1,-1.921168,9.924555,1.334437,-0.621688,0.663047,0.354898,9.899747,2.965941,-5.172924,-0.007702,-3.572761,6.199940,169.542562,-145.684411,168.148070,0.949211,-0.056280,-0.301197,-0.071497,1351.495972,86652.898438,0.079252,1.288519,42.987793,16.390625,16.303175,22.750000,28.314425,4,2.870000,3,0,0, 202
10911, 101,236435,236419,6605,1,1,-1.472121,9.404981,1.857272,-0.665819,-0.048130,-0.125018,'b'9.899747,2.485415,-5.172924,2.709839,-2.348466,2.661819,169.591944,-145.565156,168.297555,0.949032,-0.056135,-0.302075,-0.070268,1351.345337,86660.656250,-1.199282,1.294340,42.987793,16.239990,16.353004,22.750000,28.323503,4,2.870000,3,0,0, 202
10912, 101,236489,236482,6659,1,1,-1.553795,9.306499,1.498859,-0.536461,0.282817,-0.266641,10.380273,3.446467,-5.653450,0.289188,2.160219,-1.047721,169.559542,-145.550307,168.227559,0.948936,-0.056203,-0.302251,-0.070747,1351.169189,86658.898438,-2.842544,0.443428,42.987793,16.063843,16.274151,22.750000,28.314425,4,2.870000,3,0,0, 202
10913, 101,236544,236528,6714,1,1,-1.767200,9.692605,1.533359,-0.397322,0.966406,-0.196500,8.938695,3.446467,-6.133976,-1.930752,1.395818,-2.337880,169.589840,-145.620494,168.193244,0.949104,-0.055938,-0.301672,-0.071183,1351.643677,86646.289062,0.632256,0.436371,42.987793,16.538330,16.291597,22.750000,28.337120,4,2.870000,3,0,0, 202
10914, 101,236599,236591,6769,1,1,-1.977096,9.834590,1.235914,-0.605557,0.748915,0.260212,9.899747,3.926993,-4.692398,0.239819,-0.985250,-2.753456,169.579445,-145.604566,167.991986,0.948933,-0.055476,-0.301907,-0.072806,1351.716919,86652.531250,4.664674,0.505716,42.987793,16.611572,16.369768,22.750000,28.328043,4,2.870000,3,0,0, 202
10915, 101,236652,236651,6822,1,1,-2.023238,9.653966,1.072531,-0.623561,0.914242,0.058929,10.380273,2.965941,-5.172924,-1.020998,-1.780073,7.055928,169.645466,-145.505473,168.277379,0.948898,-0.055574,-0.302543,-0.070516,1351.363647,86658.656250,1.036497,0.519920,42.987793,16.258301,16.396620,22.750000,28.323503,4,2.870000,3,0,0, 202
10916, 101,236707,236696,6877,1,1,-1.735756,9.789934,1.510899,-0.618836,0.411640,0.228261,9.419221,2.965941,-5.653450,-0.020110,-2.193960,-0.677506,169.586521,-145.514353,168.291340,0.948899,-0.056109,-0.302500,-0.070254,1351.290283,86653.656250,-3.222333,-0.260090,42.987793,16.184937,16.248909,22.750000,28.323503,4,2.870000,3,0,0, 202
10917, 101,236761,236756,6931,1,1,-1.901581,9.977691,1.251487,-0.588606,0.737190,0.389517,9.899747,4.407518,-5.172924,-1.323166,0.561485,2.091513,169.602258,-145.473809,168.383247,0.948862,-0.056178,-0.302779,-0.069493,1351.131348,86662.656250,-3.788754,-0.238255,42.987793,16.026001,16.235405,22.750000,28.323503,4,2.870000,3,0,0, 202
10918, 101,236817,236802,6987,1,1,-1.680382,10.389261,0.949891,-0.153582,0.877136,0.728471,8.938695,3.926993,-5.172924,-1.785396,-1.552543,-4.675682,169.547985,-145.445258,168.265358,0.948693,-0.056285,-0.303105,-0.070297,1351.417114,86651.023438,-1.750980,-0.955756,42.987793,16.311768,16.206882,22.750000,28.309885,4,2.870000,3,0,0, 202
10919, 101,236872,236864,7042,1,1,-1.703101,9.819963,1.280863,-0.415965,0.565436,0.222975,10.380273,4.407518,-4.692398,-0.688069,-0.252814,-5.027077,169.514818,-145.517809,168.004034,0.948694,-0.055948,-0.302656,-0.072447,1351.327515,86656.140625,1.098674,-0.933576,42.987793,16.222168,16.158335,22.750000,28.305347,4,2.870000,3,0,0, 202
10920, 101,237112,237101,7282,1,1,-1.985860,9.513475,0.849700,-0.464892,1.079437,-0.116449,9.419221,2.485415,-5.172924,-2.783491,-0.287197,3.938785,169.452868,-145.541427,168.095764,0.948780,-0.056729,-0.302456,-0.071548,1350.675049,86662.820312,-0.309346,-1.548765,42.987793,15.569702,15.756637,22.750000,28.391590,4,2.870000,3,0,0, 202
10921, 101,237167,237160,7337,1,1,-1.907902,9.879957,1.044756,-0.439036,0.876852,0.267939,9.899747,1.524364,-5.653450,0.532921,0.856505,1.947834,169.539748,-145.551782,168.021042,0.948801,-0.055824,-0.302353,-0.072406,1350.701904,86662.437500,-0.308212,-1.553077,42.987793,15.596558,15.675909,22.750000,28.368895,4,2.870000,3,0,0, 202
10922, 101,237221,237205,7391,1,1,-1.655331,10.024930,1.035697,-0.208213,0.732601,0.383888,8.938695,3.446467,-3.731347,1.310941,1.005092,-3.085537,169.629305,-145.583652,168.044852,0.948939,-0.055180,-0.302022,-0.072478,1350.466431,86667.437500,-1.630734,-1.572185,42.987793,15.361084,15.624050,22.750000,28.368895,4,2.870000,3,0,0, 202
10923, 101,237277,237270,7447,1,1,-1.881865,10.014996,1.564038,-0.673597,0.424732,0.477796,9.899747,3.926993,-5.172924,0.759002,-1.063057,-3.577093,169.618609,-145.575018,167.922291,0.948834,-0.054936,-0.302159,-0.073456,1350.404175,86660.921875,-4.088213,-1.546059,42.987793,15.298828,15.542829,22.750000,28.350739,4,2.870000,3,0,0, 202
10924, 101,237332,237315,7502,1,1,-1.599624,9.937749,1.401952,-0.374288,0.904120,0.825505,9.899747,3.926993,-5.653450,0.157558,-1.317658,5.518971,169.544474,-145.560620,167.967329,0.948791,-0.055653,-0.302303,-0.072873,1350.314575,86668.437500,-1.671456,-1.840297,42.987793,15.209229,15.513425,22.750000,28.368895,4,2.870000,3,0,0, 202
10925, 101,237387,237379,7557,1,1,-1.945838,9.696618,1.016077,-0.506431,0.926390,0.084769,9.419221,2.965941,-5.172924,0.960986,-4.030574,3.434541,169.533396,-145.475284,168.164749,0.948698,-0.056172,-0.302916,-0.071122,1350.248291,86667.046875,-1.342107,-1.812424,42.987793,15.142944,15.419403,22.750000,28.346199,4,2.870000,3,0,0, 202
10926, 101,237441,237439,7611,1,1,-2.009128,9.848644,1.010231,-0.502116,0.988743,0.240077,10.380273,3.926993,-5.653450,-2.656044,0.771157,-0.783149,169.368037,-145.456651,167.980470,0.948455,-0.057033,-0.303264,-0.072191,1350.269287,86665.289062,-1.732956,-1.962280,42.987793,15.163940,15.343452,22.750000,28.337120,4,2.870000,3,0,0, 202
10927, 101,237496,237484,7666,1,1,-1.886677,9.853920,1.579245,-0.716932,0.455860,0.319845,9.419221,3.926993,-5.172924,0.001930,0.242017,-3.659460,169.343967,-145.513232,167.932823,0.948553,-0.057169,-0.302837,-0.072580,1350.190430,86671.289062,-0.996382,-1.945340,42.987793,15.085083,15.266388,22.750000,28.337120,4,2.870000,3,0,0, 202
10928, 101,237551,237545,7721,1,1,-2.090486,9.661087,1.027039,-0.597589,1.021936,0.066121,9.419221,5.368570,-5.653450,-0.687493,-4.166249,-2.742514,169.255653,-145.434248,167.895312,0.948289,-0.057713,-0.303562,-0.072574,1350.149658,86672.531250,-0.188536,-1.214128,42.987793,15.044312,15.305320,22.750000,28.328043,4,2.860000,3,0,0, 202
10929, 101,237606,237590,7776,1,1,-1.895170,9.474879,1.658945,-0.732489,0.861505,0.385953,9.899747,3.926993,-5.653450,0.301369,-0.448143,1.653104,169.197118,-145.397201,167.899724,0.948170,-0.058167,-0.303901,-0.072344,1350.170410,86667.921875,-1.501415,-1.207796,42.987793,15.065063,15.257442,22.750000,28.350739,4,2.870000,3,0,0, 202
10930, 101,237662,237654,7832,1,1,-2.074365,9.607415,1.321401,-0.780709,0.783732,0.054342,10.380273,2.485415,-5.172924,1.105525,0.216023,2.001375,169.259000,-145.383295,168.028937,0.948248,-0.057983,-0.303911,-0.071424,1350.278442,86665.414062,-0.693893,-1.365385,42.987793,15.173096,15.233648,22.750000,28.332582,4,2.860000,3,0,0, 202
10931, 101,237716,237699,7886,1,1,-2.107855,11.115121,1.100050,-1.118061,0.551517,0.847151,8.938695,4.407518,-5.653450,-3.464960,-1.761482,0.170764,169.183362,-145.389565,168.042953,0.948234,-0.058653,-0.303899,-0.071114,1350.355957,86662.921875,1.253611,-1.352728,42.987793,15.250610,15.180693,22.750000,28.350739,4,2.870000,3,0,0, 202
10932, 101,237771,237762,7941,1,1,-1.674853,9.593054,1.612727,-0.614755,0.328734,0.045152,9.899747,3.446467,-5.653450,0.170102,1.420616,-1.430476,169.123448,-145.410260,167.946347,0.948195,-0.058915,-0.303816,-0.071776,1350.311279,86668.164062,1.434439,-0.484840,42.987793,15.205933,15.255584,22.750000,28.341660,4,2.860000,3,0,0, 202
10933, 101,237825,237822,7995,1,1,-2.221418,9.443799,1.170727,-0.839567,0.987170,-0.115378,8.938695,4.888044,-5.653450,0.258897,-0.200567,-0.350351,169.210546,-145.474410,168.025167,0.948448,-0.058474,-0.303194,-0.071422,1349.938965,86673.406250,-2.047013,-0.492932,42.987793,14.833618,15.230446,22.750000,28.332582,4,2.860000,3,0,0, 202
10934, 101,237878,237867,8048,1,1,-1.195265,10.198501,1.418623,-0.022780,0.253007,0.561723,10.860798,2.485415,-4.211873,-1.407163,-1.863810,0.436744,169.124855,-145.452375,168.012149,0.948341,-0.059125,-0.303435,-0.071280,1349.849121,86671.414062,-4.848221,-1.456424,42.987793,14.743774,15.067010,22.750000,28.332582,4,2.870000,3,0,0, 202
10935, 101,238114,238102,8284,1,1,-2.087569,9.380054,1.362793,-0.867065,0.775907,-0.165300,9.899747,3.926993,-4.692398,-1.984715,1.179242,1.868414,169.113817,-145.556181,168.149135,0.948677,-0.059693,-0.302517,-0.070226,1349.832275,86670.187500,-3.014450,0.076005,42.987793,14.726929,15.026950,22.625000,28.377974,4,2.870000,3,0,0, 202
10936, 101,238169,238163,8339,1,1,-1.739870,9.956532,0.768843,-0.149380,1.087448,0.276000,8.458169,2.965941,-5.653450,-0.775826,2.153608,-0.522080,169.144621,-145.559391,168.125475,0.948687,-0.059379,-0.302484,-0.070507,1349.872314,86669.679688,-6.302471,-1.985757,42.987793,14.766968,14.926870,22.625000,28.359816,4,2.860000,3,0,0, 202
10937, 101,238223,238208,8393,1,1,-2.227133,10.137181,1.152454,-0.691463,1.057084,0.565058,9.899747,4.407518,-4.692398,-0.512465,-2.424419,-5.324492,169.094392,-145.511293,167.869507,0.948382,-0.059065,-0.303043,-0.072442,1349.938232,86669.554688,-3.176002,-1.964630,42.987793,14.832886,14.848330,22.625000,28.364355,4,2.870000,3,0,0, 202
10938, 101,238277,238272,8447,1,1,-1.838426,9.982710,1.387657,-0.555203,0.631700,0.409416,9.419221,3.446467,-4.211873,2.321391,1.159407,5.227911,169.146397,-145.497974,167.984145,0.948448,-0.058923,-0.303061,-0.071617,1350.030273,86666.921875,0.590533,-1.249674,42.987793,14.924927,14.926220,22.625000,28.350739,4,2.860000,3,0,0, 202
10939, 101,238334,238316,8504,1,1,-1.402161,9.918657,2.079274,-0.282855,1.355510,0.609003,9.419221,5.368570,-5.653450,1.197649,-4.452524,-1.292728,169.025503,-145.436707,167.942645,0.948207,-0.059745,-0.303662,-0.071576,1349.841431,86669.554688,-0.557205,-1.229137,42.987793,14.736084,14.877314,22.625000,28.364355,4,2.870000,3,0,0, 202
10940, 101,238388,238380,8558,1,1,-1.720261,9.741740,0.676540,-0.085910,1.141099,0.048316,9.899747,2.004889,-5.172924,-3.082983,1.797094,3.217985,168.978689,-145.368432,167.883495,0.947976,-0.059899,-0.304283,-0.071868,1349.705322,86673.921875,-1.818023,-1.412060,42.987793,14.599976,14.816867,22.625000,28.350739,4,2.870000,3,0,0, 202
10941, 101,238442,238439,8612,1,1,-1.670583,9.935602,1.396436,-0.379668,0.527225,0.349614,9.419221,4.407518,-5.172924,-2.544595,0.939271,-0.079233,168.916397,-145.455818,167.608648,0.947985,-0.059784,-0.303748,-0.074070,1349.598755,86675.046875,-2.198065,-1.415162,42.987793,14.493408,14.743321,22.625000,28.346199,4,2.870000,3,0,0, 202
10942, 101,238495,238484,8665,1,1,-2.278582,10.025954,1.551230,-0.929364,0.768781,0.526791,9.419221,4.407518,-4.692398,0.902369,-3.841123,0.833715,168.847276,-145.383254,167.521919,0.947713,-0.060043,-0.304435,-0.074526,1349.563354,86676.406250,-2.266190,-1.656097,42.987793,14.458008,14.696592,22.625000,28.332582,4,2.870000,3,0,0, 202
10943, 101,238549,238546,8719,1,1,-1.856397,9.981155,1.562862,-0.584270,0.520106,0.441086,10.380273,4.407518,-4.692398,-1.022250,0.219127,-0.339976,168.704921,-145.349390,167.375657,0.947458,-0.060792,-0.304883,-0.075320,1349.632080,86672.406250,-1.585894,-1.620718,42.987793,14.526733,14.607135,22.625000,28.332582,4,2.870000,3,0,0, 202
10944, 101,238604,238591,8774,1,1,-2.061661,9.421059,1.390674,-0.761046,0.744437,-0.115579,9.899747,3.926993,-5.172924,0.234423,-0.424628,0.432551,168.719401,-145.297043,167.434424,0.947375,-0.060768,-0.305272,-0.074815,1349.230957,86683.656250,-2.723963,-1.961202,42.987793,14.125610,14.505206,22.625000,28.323503,4,2.870000,3,0,0, 202
10945, 101,238658,238653,8828,1,1,-1.249252,9.231368,1.610420,-0.284294,0.083278,-0.351954,9.419221,2.004889,-5.653450,0.664309,0.097059,0.120715,168.744741,-145.260789,167.546999,0.947371,-0.060816,-0.305494,-0.073912,1349.663696,86670.656250,-0.839969,-1.981397,42.987793,14.558350,14.398222,22.625000,28.323503,4,2.870000,3,0,0, 202
10946, 101,238712,238698,8882,1,1,-1.813248,8.934501,0.955259,-0.407537,0.904942,-0.688334,10.860798,2.485415,-4.692398,0.765620,-1.071376,-2.937224,168.814887,-145.244574,167.479408,0.947324,-0.060037,-0.305617,-0.074640,1349.650269,86672.015625,2.071204,-0.809086,42.987793,14.544922,14.518517,22.625000,28.309885,4,2.870000,3,0,0, 202
10947, 101,238768,238761,8938,1,1,-2.071829,8.879804,0.897530,-0.553028,1.062336,-0.717248,9.419221,2.485415,-5.653450,-0.772834,4.155136,-7.161040,168.884419,-145.371766,167.195163,0.947487,-0.058854,-0.304674,-0.077314,1349.723022,86669.773438,2.155471,-0.835070,42.987793,14.617676,14.475947,22.625000,28.318964,4,2.860000,3,0,0, 202
10948, 101,238822,238806,8992,1,1,-1.785592,9.000536,1.162188,-0.430793,0.682252,-0.587010,8.938695,2.965941,-5.653450,-2.328901,-0.574553,-1.459704,168.835064,-145.385726,167.038300,0.947390,-0.058861,-0.304674,-0.078495,1349.759766,86673.289062,2.426713,0.115428,42.987793,14.654419,14.564071,22.625000,28.337120,4,2.870000,3,0,0, 202
10949, 101,238876,238870,9046,1,1,-1.754642,9.658266,1.633042,-0.529371,0.331093,0.130659,9.899747,4.888044,-5.653450,-0.857924,-0.255291,-5.203095,168.713691,-145.369293,166.874171,0.947174,-0.059408,-0.304977,-0.079511,1349.696167,86672.406250,0.491183,0.111098,42.987793,14.590820,14.569738,22.625000,28.332582,4,2.870000,3,0,0, 202
10950, 101,239116,239107,9286,1,1,-1.511981,9.752950,1.233495,-0.076080,0.516710,0.131515,8.938695,2.004889,-5.172924,1.382140,-0.768622,1.816235,168.655197,-145.325867,166.766705,0.946961,-0.059553,-0.305430,-0.080195,1349.416626,86674.945312,1.418117,-2.093962,42.987793,14.311279,14.280214,22.625000,28.387051,4,2.860000,3,0,0, 202
10951, 101,239170,239166,9340,1,1,-2.226845,10.042126,2.080374,-1.065991,0.266076,0.635664,10.380273,3.446467,-5.172924,-0.025233,-2.618830,9.050021,168.653763,-145.264245,166.687679,0.946752,-0.059280,-0.305977,-0.080775,1349.169434,86678.187500,-2.150737,-1.328628,42.987793,14.064087,14.326283,22.625000,28.377974,4,2.860000,3,0,0, 202
10952, 101,239223,239210,9393,1,1,-1.264495,9.924173,1.321415,0.079091,0.334053,0.284458,9.899747,2.485415,-5.172924,-1.461788,2.039033,6.948234,168.621593,-145.290418,166.935738,0.946973,-0.060239,-0.305655,-0.078669,1349.166748,86678.679688,-3.011521,-1.318153,42.987793,14.061401,14.274511,22.625000,28.359816,4,2.870000,3,0,0, 202
10953, 101,239277,239273,9447,1,1,-1.626824,9.258251,0.698488,0.020774,0.997849,-0.427979,9.899747,2.004889,-5.172924,0.086488,1.516109,4.122146,168.665675,-145.323353,166.933020,0.947075,-0.059907,-0.305356,-0.078845,1349.191650,86677.406250,-1.110086,-1.761962,42.987793,14.086304,14.223022,22.625000,28.332582,4,2.860000,3,0,0, 202
10954, 101,239331,239317,9501,1,1,-1.301340,8.994081,1.313524,-0.090890,0.284415,-0.623682,9.899747,2.004889,-5.653450,-0.031524,0.630361,-6.485661,168.605460,-145.326481,166.728715,0.946910,-0.059864,-0.305479,-0.080377,1349.203613,86677.164062,-0.211710,-1.771079,42.987793,14.098267,14.154539,22.625000,28.341660,4,2.870000,3,0,0, 202
10955, 101,239386,239380,9556,1,1,-1.226936,9.191388,0.989170,0.194736,0.518448,-0.491933,8.458169,3.446467,-5.653450,0.578170,0.371474,-0.414720,168.562799,-145.311359,166.693622,0.946826,-0.060104,-0.305652,-0.080536,1349.236084,86678.406250,0.751201,-1.192984,42.987793,14.130737,14.198214,22.625000,28.332582,4,2.870000,3,0,0, 202
10956, 101,239441,239425,9611,1,1,-1.357298,10.058392,1.817620,-0.022108,0.708576,-0.201757,9.899747,4.407518,-5.653450,-0.638267,-2.744424,-6.997910,168.542882,-145.276949,166.553972,0.946631,-0.059854,-0.306021,-0.081598,1349.142578,86679.921875,-0.315833,-1.198695,42.987793,14.037231,14.151112,22.625000,28.350739,4,2.860000,3,0,0, 202
10957, 101,239496,239488,9666,1,1,-1.834831,10.074730,1.710597,-0.483521,0.314822,0.565293,9.899747,3.926993,-5.172924,-0.159986,0.053792,0.340921,168.562689,-145.207691,166.320598,0.946302,-0.058981,-0.306696,-0.083500,1349.156494,86676.046875,-0.875614,-0.932113,42.987793,14.051147,14.138941,22.625000,28.346199,4,2.860000,3,0,0, 202
10958, 101,239549,239549,9719,1,1,-1.738319,9.597918,0.934932,-0.059879,0.868990,-0.041023,9.419221,4.407518,-5.172924,-1.422991,1.125315,2.756823,168.492748,-145.317370,166.359735,0.946565,-0.059800,-0.305827,-0.083114,1348.584229,86689.289062,-5.004847,-2.101122,42.987793,13.478882,13.939437,22.625000,28.337120,4,2.860000,3,0,0, 202
10959, 101,239603,239594,9773,1,1,-1.514879,9.862040,1.507562,-0.144877,0.306491,0.284261,9.419221,4.407518,-5.172924,-2.269492,0.936997,-5.783076,168.371731,-145.342437,166.287444,0.946511,-0.060638,-0.305748,-0.083417,1348.692017,86679.656250,-6.798527,-2.091700,42.987793,13.586670,13.856444,22.625000,28.323503,4,2.860000,3,0,0, 202
10960, 101,239659,239653,9829,1,1,-1.395063,9.843450,0.903760,0.287304,0.711234,0.152295,9.419221,3.446467,-4.692398,1.224603,0.491524,0.046036,168.449076,-145.396969,166.319409,0.946710,-0.060152,-0.305227,-0.083422,1348.617920,86684.656250,-3.528738,-2.509012,42.987793,13.512573,13.796494,22.625000,28.323503,4,2.870000,3,0,0, 202
10961, 101,239714,239699,9884,1,1,-1.499767,9.996608,1.634567,-0.158881,0.187863,0.435833,9.899747,4.407518,-5.653450,-1.186944,-0.295861,-5.514336,168.389967,-145.401887,166.163189,0.946576,-0.060230,-0.305312,-0.084560,1348.377930,86689.773438,-3.239193,-2.499673,42.987793,13.272583,13.695901,22.625000,28.318964,4,2.870000,3,0,0, 202
10962, 101,239769,239762,9939,1,1,-1.444280,9.871015,1.414126,-0.024471,0.343048,0.268972,10.380273,2.485415,-4.211873,-2.312757,1.548602,-0.629297,168.334288,-145.444480,166.244824,0.946711,-0.060961,-0.304961,-0.083787,1348.435547,86684.656250,-2.589064,-2.531884,42.987793,13.330200,13.640324,22.625000,28.323503,4,2.870000,3,0,0, 202
10963, 101,239822,239807,9992,1,1,-1.521944,9.615839,1.358534,-0.093120,0.407669,0.019969,9.899747,3.446467,-6.133976,0.381469,0.409402,-0.249758,168.344137,-145.474587,166.165334,0.946732,-0.060706,-0.304749,-0.084504,1348.364868,86689.164062,-1.123596,-2.529878,42.987793,13.259521,13.539960,22.625000,28.341660,4,2.870000,3,0,0, 202
10964, 101,239878,239871,10048,1,1,-1.390909,9.198495,0.787604,0.233239,0.772419,-0.499590,9.419221,2.965941,-5.172924,-2.543001,2.570849,2.682938,168.386266,-145.505624,166.318754,0.946943,-0.060805,-0.304382,-0.083384,1348.301758,86690.289062,-0.417518,-1.927780,42.987793,13.196411,13.491640,22.625000,28.337120,4,2.860000,3,0,0, 202
10965, 101,240118,240108,10288,1,1,-1.701713,9.805946,0.599341,0.205055,1.153943,0.100414,8.938695,3.446467,-6.133976,-2.868303,0.612230,-1.120162,168.362496,-145.578201,166.356716,0.947136,-0.061192,-0.303784,-0.083090,1348.314697,86687.703125,0.248798,-0.769944,42.987793,13.209351,13.346302,22.625000,28.396130,4,2.860000,3,0,0, 202
10966, 101,240172,240168,10342,1,1,-1.778615,9.417650,1.719634,-0.572330,0.275006,-0.084542,10.860798,1.524364,-5.653450,0.758446,-1.935360,6.429743,168.349560,-145.544556,166.399623,0.947078,-0.061371,-0.304047,-0.082663,1348.352539,86685.437500,-0.444388,-0.760946,42.987793,13.247192,13.306634,22.625000,28.368895,4,2.870000,3,0,0, 202
10967, 101,240226,240212,10396,1,1,-1.706266,10.781735,0.781640,0.290455,1.084821,1.085088,9.899747,3.446467,-5.653450,-3.237017,3.192620,-6.139546,168.297173,-145.620043,166.347782,0.947197,-0.061761,-0.303493,-0.083039,1348.276978,86689.679688,-0.390743,-0.604602,42.987793,13.171631,13.309681,22.625000,28.359816,4,2.870000,3,0,0, 202
10968, 101,240282,240275,10452,1,1,-1.791535,10.390845,0.894726,0.090240,1.018067,0.731578,9.419221,3.926993,-5.172924,-2.042537,-1.015444,6.708490,168.265330,-145.654426,166.298386,0.947228,-0.061936,-0.303261,-0.083402,1348.226562,86690.046875,-0.899226,-0.559629,42.987793,13.121216,13.278967,22.625000,28.346199,4,2.870000,3,0,0, 202
10969, 101,240337,240320,10507,1,1,-1.951609,10.368572,1.504789,0.265417,1.052105,0.007068,7.977643,4.407518,-5.653450,-1.248398,-0.487148,-8.628954,168.286354,-145.648443,166.309205,0.947233,-0.061783,-0.303289,-0.083362,1347.923462,86691.679688,-3.833162,-0.985923,42.987793,12.818115,13.189628,22.625000,28.359816,4,2.860000,3,0,0, 202
10970, 101,240391,240384,10561,1,1,-1.431519,10.080914,1.166781,0.218685,0.540697,0.431071,9.899747,3.926993,-4.692398,-1.259119,-1.378601,-4.302348,168.197944,-145.613868,165.922534,0.946814,-0.061446,-0.303846,-0.086283,1347.927246,86692.164062,-4.493197,-0.963534,42.987793,12.821899,13.139634,22.625000,28.341660,4,2.860000,3,0,0, 202
10971, 101,240446,240429,10616,1,1,-1.504367,10.258942,1.137857,-0.130629,0.773450,0.479040,8.938695,3.446467,-5.172924,0.549298,-1.330621,1.190566,168.134040,-145.604907,165.968215,0.946792,-0.062084,-0.303942,-0.085726,1348.115967,86686.679688,-0.397569,-1.657954,42.987793,13.010620,13.084358,22.625000,28.359816,4,2.870000,3,0,0, 202
10972, 101,240501,240493,10671,1,1,-1.864614,9.556192,1.573668,-0.464494,0.450394,0.040515,9.899747,3.446467,-4.692398,-2.486773,-0.167609,-2.943479,168.095723,-145.581261,165.925908,0.946682,-0.062258,-0.304188,-0.085946,1348.117188,86688.164062,1.454515,-1.630587,42.987793,13.011841,12.999539,22.625000,28.341660,4,2.870000,3,0,0, 202
10973, 101,240555,240554,10725,1,1,-1.575840,9.448050,0.783264,0.159773,0.927946,-0.236701,10.380273,2.965941,-5.653450,-1.452146,2.694385,1.654344,168.135188,-145.622502,166.163271,0.946980,-0.062614,-0.303691,-0.084138,1348.066284,86693.289062,1.098045,-0.796051,42.987793,12.960938,13.040222,22.750000,28.337120,4,2.870000,3,0,0, 202
10974, 101,240609,240599,10779,1,1,-1.524938,9.659277,0.895769,0.161314,0.835290,-0.018069,9.899747,3.446467,-5.172924,-1.485959,-2.127939,3.001273,168.124328,-145.616382,166.286460,0.947049,-0.063022,-0.303682,-0.083084,1348.238525,86687.406250,1.014101,-0.807299,42.987793,13.133179,13.008605,22.750000,28.332582,4,2.870000,3,0,0, 202
10975, 101,240664,240660,10834,1,1,-1.937674,9.200944,0.896300,-0.258215,1.043891,-0.417029,9.899747,3.926993,-5.172924,0.557187,-0.677835,0.876420,168.124109,-145.579280,166.272117,0.946948,-0.062939,-0.303994,-0.083158,1348.155762,86692.164062,1.056049,-0.167824,42.987793,13.050415,13.102283,22.750000,28.341660,4,2.860000,3,0,0, 202
10976, 101,240718,240705,10888,1,1,-1.151064,9.255367,1.488222,0.046276,0.114892,-0.357154,9.419221,3.926993,-5.653450,0.699581,-3.538895,-0.517576,168.081065,-145.483521,166.263443,0.946684,-0.063152,-0.304815,-0.083004,1348.344482,86686.531250,1.012162,-0.182916,42.987793,13.239136,13.095453,22.750000,28.328043,4,2.870000,3,0,0, 202
10977, 101,240771,240768,10941,1,1,-1.600841,9.333968,1.535232,-0.294487,0.340372,-0.217680,9.899747,4.407518,-5.653450,-0.830844,-1.647697,-5.991843,167.989554,-145.445532,166.030834,0.946370,-0.063240,-0.305322,-0.084637,1348.387451,86683.773438,1.360494,0.111487,42.987793,13.282104,13.163360,22.750000,28.318964,4,2.870000,3,0,0, 202
10978, 101,240826,240812,10996,1,1,-1.894100,9.711822,1.207821,-0.287779,0.812503,0.129909,9.899747,2.485415,-5.653450,1.101041,0.531904,4.242619,168.010742,-145.464984,166.172806,0.946533,-0.063468,-0.305068,-0.083544,1348.324097,86690.648438,1.306337,0.108868,42.987793,13.218750,13.167644,22.750000,28.323503,4,2.870000,3,0,0, 202
10979, 101,240880,240875,11050,1,1,-1.672476,9.864862,1.195099,-0.091834,0.700966,0.250923,9.899747,3.446467,-6.133976,0.737611,2.411285,1.190902,168.095190,-145.456187,166.301487,0.946652,-0.063102,-0.305008,-0.082696,1348.172241,86688.773438,-0.435491,0.363026,42.987793,13.066895,13.198213,22.750000,28.318964,4,2.860000,3,0,0, 202
10980, 101,241120,241113,11290,1,1,-1.776667,9.715389,0.733176,0.072830,1.159722,0.034274,7.977643,2.965941,-5.653450,-1.895699,-0.782598,-1.896315,167.820029,-145.359717,166.182532,0.946175,-0.064935,-0.306064,-0.082831,1348.410278,86685.187500,3.179467,-0.155614,42.987793,13.304932,13.050796,22.750000,28.377974,4,2.870000,3,0,0, 202
10981, 101,241173,241171,11343,1,1,-1.581258,9.998000,1.316844,-0.057660,0.619859,0.387568,7.977643,4.407518,-5.653450,-2.568595,1.311747,5.441130,167.728300,-145.408498,166.263292,0.946301,-0.065970,-0.305684,-0.081977,1348.209961,86694.070312,4.195685,2.049390,42.987793,13.104614,13.203704,22.750000,28.382511,4,2.860000,3,0,0, 202
10982, 101,241229,241216,11399,1,1,-1.835621,9.762027,0.614377,0.106032,1.307083,0.064314,9.419221,3.446467,-5.653450,0.599418,0.553862,0.698204,167.733764,-145.472238,166.168476,0.946392,-0.065753,-0.305212,-0.082851,1348.380005,86687.679688,1.784837,2.060314,42.987793,13.274658,13.284404,22.750000,28.359816,4,2.860000,3,0,0, 202
10983, 101,241284,241278,11454,1,1,-1.744994,9.057845,0.887967,-0.080325,0.977783,-0.586037,9.899747,2.485415,-5.653450,-0.538227,-1.271608,2.138911,167.613730,-145.560880,165.916852,0.946355,-0.066189,-0.304719,-0.084716,1348.623779,86681.164062,2.292004,1.647911,42.987793,13.518433,13.272367,22.750000,28.341660,4,2.870000,3,0,0, 202
10984, 101,241339,241324,11509,1,1,-1.821146,9.119545,1.529226,-0.502438,0.530813,-0.404884,7.977643,4.888044,-5.653450,-1.089244,0.051332,3.063683,167.536494,-145.576439,166.001628,0.946411,-0.067072,-0.304599,-0.083829,1348.567993,86686.289062,2.901584,1.630581,42.987793,13.462646,13.337484,22.750000,28.337120,4,2.860000,3,0,0, 202
10985, 101,241393,241387,11563,1,1,-1.625188,9.417646,0.724094,0.147001,1.124150,-0.284053,8.458169,4.407518,-5.653450,-4.758485,2.953917,6.993893,167.409385,-145.656380,166.172096,0.946654,-0.068677,-0.303935,-0.082181,1348.402588,86689.531250,0.153711,1.679074,42.987793,13.297241,13.330358,22.750000,28.328043,4,2.870000,3,0,0, 202
10986, 101,241449,241432,11619,1,1,-1.908861,9.137372,1.355217,-0.673516,0.814968,0.708861,9.899747,2.965941,-5.653450,2.358169,0.035663,2.768967,167.293394,-145.695161,165.927998,0.946501,-0.069038,-0.303848,-0.083937,1348.330200,86691.164062,-2.000030,1.670127,42.987793,13.224854,13.396910,22.750000,28.341660,4,2.870000,3,0,0, 202
10987, 101,241503,241496,11673,1,1,-1.823669,9.260135,0.861886,-0.138522,1.132269,-0.392627,10.380273,2.965941,-6.133976,0.424156,1.334549,12.790117,167.391312,-145.702757,166.307101,0.946852,-0.069243,-0.303487,-0.081074,1348.143677,86690.164062,-3.254395,0.359083,42.987793,13.038330,13.230731,22.750000,28.341660,4,2.870000,3,0,0, 202
10988, 101,241558,241542,11728,1,1,-1.820934,9.666428,1.418625,-0.376582,0.737562,0.102651,9.419221,3.446467,-4.211873,-2.157938,-1.993969,4.201741,167.285184,-145.706390,166.350077,0.946826,-0.070239,-0.303506,-0.080442,1348.034790,86691.921875,-4.503480,0.337665,42.987793,12.929443,13.244819,22.750000,28.350739,4,2.860000,3,0,0, 202
10989, 101,241612,241606,11782,1,1,-1.405826,10.059827,1.420559,0.084907,0.505966,0.442595,8.938695,2.965941,-6.133976,-0.908168,0.851952,-9.193795,167.193728,-145.715652,165.990877,0.946536,-0.070054,-0.303715,-0.083179,1348.244263,86690.921875,-0.682429,-0.174939,42.987793,13.138916,13.228805,22.750000,28.350739,4,2.860000,3,0,0, 202
10990, 101,241668,241651,11838,1,1,-1.991885,9.463017,1.338552,-0.400906,1.048611,0.396831,9.419221,3.926993,-5.653450,-0.700274,1.876111,-7.458657,167.142488,-145.719559,165.817158,0.946387,-0.070022,-0.303827,-0.084482,1347.893921,86691.796875,-2.890326,-0.172849,42.987793,12.788574,13.222005,22.750000,28.355278,4,2.860000,3,0,0, 202
10991, 101,241721,241715,11891,1,1,-1.292770,9.792861,0.984863,0.435181,0.733371,0.089102,7.977643,3.926993,-5.172924,2.396279,-1.711090,-5.853078,167.125986,-145.715310,165.512901,0.946139,-0.069346,-0.304059,-0.086946,1347.842163,86691.164062,-4.964685,-1.443277,42.987793,12.736816,13.023103,22.750000,28.341660,4,2.870000,3,0,0, 202
10992, 101,241775,241760,11945,1,1,-2.457278,9.924293,1.071839,-0.489850,1.336275,0.380014,9.419221,2.965941,-5.653450,-0.112470,0.693684,-6.689563,167.138007,-145.610112,165.308405,0.945735,-0.068562,-0.305033,-0.088534,1347.769165,86694.679688,-3.222108,-1.435688,42.987793,12.663818,12.965313,22.750000,28.359816,4,2.870000,3,0,0, 202
10993, 101,241831,241824,12001,1,1,-1.772788,9.495866,1.551226,-0.346018,0.506225,-0.036546,9.899747,4.888044,-6.614501,2.288781,1.646758,5.659672,167.351929,-145.525923,165.594453,0.945877,-0.067446,-0.305389,-0.086638,1347.699097,86694.921875,-3.061869,-1.884117,42.987793,12.593750,12.875816,22.625000,28.350739,4,2.870000,3,0,0, 202
10994, 101,241884,241869,12054,1,1,-1.801206,9.483954,1.257444,-0.238613,0.778243,-0.100057,10.380273,2.485415,-5.172924,-0.424644,2.060620,6.118428,167.376354,-145.592681,165.849356,0.946244,-0.068011,-0.304673,-0.084681,1347.699097,86694.679688,-2.679432,-1.891931,42.987793,12.593750,12.802185,22.625000,28.359816,4,2.870000,3,0,0, 202
10995, 101,242122,242108,12292,1,1,-1.998431,10.096285,1.386752,-0.332106,0.809453,0.547249,8.458169,3.446467,-5.653450,-0.994911,-0.261968,-0.055336,167.471293,-145.481868,165.736767,0.945946,-0.066782,-0.305576,-0.085728,1347.689941,86697.945312,1.352157,-1.948154,42.987793,12.584595,12.559317,22.625000,28.387051,4,2.870000,3,0,0, 202
10996, 101,242177,242171,12347,1,1,-1.669068,10.035625,1.223647,0.029233,0.713276,0.420900,10.380273,4.888044,-5.172924,1.651240,-1.503506,-1.055799,167.554007,-145.412282,165.599248,0.945720,-0.065641,-0.306163,-0.086999,1347.690552,86694.437500,0.097924,-0.584110,42.987793,12.585205,12.643684,22.625000,28.368895,4,2.870000,3,0,0, 202
10997, 101,242232,242215,12402,1,1,-2.199680,10.052117,1.118388,-0.122444,0.468085,0.423947,9.419221,2.965941,-5.172924,-0.589298,-1.969242,2.336971,167.529487,-145.341480,165.740879,0.945640,-0.066129,-0.306679,-0.085678,1347.428467,86700.187500,-2.232325,-0.572201,42.987793,12.323120,12.620931,22.625000,28.377974,4,2.860000,3,0,0, 202
10998, 101,242287,242279,12457,1,1,-1.580678,9.974149,1.952051,-0.358781,0.115948,0.477644,9.419221,4.407518,-5.653450,-2.225222,-1.563260,0.059932,167.426679,-145.379019,165.815082,0.945727,-0.067225,-0.306405,-0.084836,1347.760010,86692.554688,-1.519765,-1.048699,42.987793,12.654663,12.512281,22.625000,28.364355,4,2.870000,3,0,0, 202
10999, 101,242340,242340,12510,1,1,-1.904882,9.391025,1.454632,-0.434360,0.650824,-0.140584,9.419221,3.446467,-6.133976,-0.666618,-0.809395,-7.763731,167.426241,-145.371902,165.682317,0.945610,-0.066865,-0.306541,-0.085922,1347.510010,86700.039062,-0.887225,-1.014634,42.987793,12.404663,12.501444,22.625000,28.346199,4,2.870000,3,0,0, 202
11000, 101,242394,242384,12564,1,1,-2.042910,9.346734,1.233970,-0.410603,0.899913,-0.205211,9.419221,1.043838,-5.172924,-1.162324,-1.094849,-1.729285,167.392842,-145.352149,165.552324,0.945444,-0.066766,-0.306804,-0.086881,1347.709229,86693.406250,-1.370871,-1.020245,42.987793,12.603882,12.461097,22.625000,28.332582,4,2.870000,3,0,0, 202
11001, 101,242449,242445,12619,1,1,-1.812437,9.384427,1.269050,-0.246457,0.735984,-0.190564,10.380273,2.965941,-5.172924,1.627237,0.541428,4.214963,167.439478,-145.407160,165.614875,0.945653,-0.066621,-0.306282,-0.086557,1347.734619,86688.531250,-0.739075,-0.935903,42.987793,12.629272,12.544255,22.625000,28.328043,4,2.860000,3,0,0, 202
11002, 101,242502,242489,12672,1,1,-1.523255,9.390196,0.967411,0.126775,0.828591,-0.275805,9.899747,2.965941,-5.172924,-0.333788,-1.342427,4.913420,167.440708,-145.414003,165.834821,0.945835,-0.067208,-0.306097,-0.084754,1347.783813,86694.406250,0.388049,-0.949850,42.987793,12.678467,12.507518,22.625000,28.332582,4,2.870000,3,0,0, 202
11003, 101,242558,242553,12728,1,1,-1.471605,9.683514,1.451208,0.000074,0.434525,0.091080,8.938695,2.965941,-5.172924,-0.737404,0.525344,-4.973768,167.248752,-145.566317,165.528350,0.945864,-0.068175,-0.305176,-0.086959,1347.741211,86694.648438,1.549301,-0.225844,42.987793,12.635864,12.574947,22.625000,28.323503,4,2.870000,3,0,0, 202
11004, 101,242613,242598,12783,1,1,-2.465125,10.600019,1.918387,-0.840858,0.715106,1.194410,9.419221,2.965941,-6.133976,-2.248806,-1.646374,-3.511942,167.147447,-145.695161,165.376133,0.945999,-0.068779,-0.304290,-0.088107,1347.939941,86689.531250,1.453193,-0.211633,42.987793,12.834595,12.565955,22.625000,28.328043,4,2.870000,3,0,0, 202
11005, 101,242668,242661,12838,1,1,-2.219954,10.306875,1.558611,-0.524962,0.865247,0.808661,10.380273,2.965941,-6.133976,-0.613420,-2.539304,0.273304,167.074487,-145.559049,165.495060,0.945716,-0.069515,-0.305387,-0.086760,1348.159912,86683.773438,2.808836,0.641207,42.987793,13.054565,12.735600,22.625000,28.318964,4,2.870000,3,0,0, 202
11006, 101,242722,242706,12892,1,1,-1.756562,9.840024,1.737664,-0.164684,1.028269,0.623277,7.977643,4.407518,-6.133976,-1.205026,-2.887788,6.265871,167.000297,-145.455039,165.711891,0.945580,-0.070568,-0.306161,-0.084642,1348.082275,86685.921875,2.326107,0.669761,42.987793,12.976929,12.761477,22.625000,28.350739,4,2.860000,3,0,0, 202
11007, 101,242777,242770,12947,1,1,-1.767472,9.597248,1.198334,-0.182561,0.894389,-0.011522,9.419221,2.965941,-4.692398,1.050274,-1.172527,7.777772,167.001868,-145.361411,166.004920,0.945565,-0.071216,-0.306744,-0.082111,1348.195068,86688.164062,2.174479,1.079285,42.987793,13.089722,12.854183,22.625000,28.341660,4,2.870000,3,0,0, 202
11008, 101,242832,242814,13002,1,1,-1.418564,9.171949,1.639574,-0.166837,0.694361,0.008939,9.899747,3.446467,-5.172924,1.369951,1.865201,-3.251824,167.005693,-145.326714,166.010084,0.945487,-0.071153,-0.307022,-0.082036,1348.283936,86684.796875,2.540073,1.087139,42.987793,13.178589,12.895668,22.625000,28.355278,4,2.870000,3,0,0, 202
11009, 101,242887,242877,13057,1,1,-1.632002,9.109999,1.136417,-0.120859,0.798388,-0.511494,8.938695,3.446467,-5.172924,0.355725,-1.665928,-3.415074,167.082683,-145.310075,165.880693,0.945400,-0.070150,-0.307182,-0.083289,1348.109131,86692.679688,1.187883,1.110313,42.987793,13.003784,12.904326,22.625000,28.359816,4,2.860000,3,0,0, 202
11010, 101,243123,243112,13293,1,1,-1.676796,9.745164,1.026585,0.028598,0.948819,0.095094,8.458169,1.524364,-4.211873,2.444587,-0.807823,2.676133,167.186160,-145.228400,165.901361,0.945278,-0.069245,-0.307762,-0.083294,1348.303589,86688.703125,1.515584,2.117669,42.987793,13.198242,13.196353,22.750000,28.396130,4,2.870000,3,0,0, 202
11011, 101,243179,243173,13349,1,1,-2.054585,9.801831,1.466012,-0.510932,0.808211,0.275316,8.458169,5.368570,-5.653450,2.966410,-2.570497,-0.728770,167.277617,-145.140823,165.881102,0.945102,-0.068322,-0.308424,-0.083599,1348.362793,86684.312500,-0.889284,2.117314,42.987793,13.257446,13.309267,22.750000,28.373434,4,2.870000,3,0,0, 202
11012, 101,243234,243218,13404,1,1,-1.681836,9.558440,1.635464,-0.361344,0.423063,0.025370,9.419221,3.446467,-5.653450,0.907866,0.788950,-0.287764,167.333365,-145.105375,165.883903,0.945050,-0.067823,-0.308672,-0.083682,1348.364014,86686.070312,0.353531,1.300117,42.987793,13.258667,13.192993,22.750000,28.382511,4,2.870000,3,0,0, 202
11013, 101,243288,243281,13458,1,1,-1.503421,8.974277,1.522033,-0.328663,0.398664,-0.589727,8.458169,3.926993,-5.653450,-1.805524,3.648903,8.765911,167.366518,-145.163978,166.337673,0.945539,-0.068846,-0.307898,-0.080100,1348.249756,86689.437500,0.067805,1.294912,42.987793,13.144409,13.260014,22.750000,28.368895,4,2.870000,3,0,0, 202
11014, 101,243344,243342,13514,1,1,-1.503909,9.842415,1.078069,0.106046,0.835238,0.178391,8.458169,2.485415,-5.653450,-1.540909,0.256264,-3.587461,167.250856,-145.143733,166.241409,0.945351,-0.069515,-0.308203,-0.080558,1348.182617,86685.921875,-2.846903,0.471400,42.987793,13.077271,13.107494,22.750000,28.350739,4,2.870000,3,0,0, 202
11015, 101,243397,243387,13567,1,1,-1.652268,9.410970,1.200060,-0.159779,0.775300,-0.203612,9.419221,2.485415,-5.172924,1.117460,-1.128827,-3.382047,167.313735,-145.130837,166.192709,0.945323,-0.068849,-0.308293,-0.081114,1348.476074,86681.289062,-0.927519,0.478161,42.987793,13.370728,13.126238,22.750000,28.337120,4,2.870000,3,0,0, 202
11016, 101,243453,243447,13623,1,1,-1.893856,9.392639,1.111935,-0.289295,0.983645,-0.209675,9.899747,3.446467,-5.172924,-0.617895,-0.680083,-1.266449,167.272685,-145.139006,166.075899,0.945235,-0.068884,-0.308326,-0.081977,1348.720093,86683.289062,5.657441,0.925202,42.987793,13.614746,13.259055,22.750000,28.337120,4,2.870000,3,0,0, 202
11017, 101,243508,243493,13678,1,1,-1.613109,9.085119,1.745361,-0.480762,0.270496,-0.426380,9.899747,3.446467,-4.692398,1.188568,0.400232,-0.402808,167.336288,-145.207991,166.033716,0.945413,-0.068335,-0.307741,-0.082580,1349.064819,86673.289062,7.152823,0.914667,42.987793,13.959473,13.295825,22.750000,28.337120,4,2.870000,3,0,0, 202
11018, 101,243562,243556,13732,1,1,-1.536466,9.537978,1.176139,-0.014002,0.727523,-0.095972,9.899747,4.407518,-5.653450,-0.994014,0.340650,-0.276118,167.308147,-145.203306,166.097210,0.945430,-0.068732,-0.307762,-0.081975,1348.832275,86680.531250,2.922746,2.236531,42.987793,13.726929,13.459546,22.750000,28.328043,4,2.870000,3,0,0, 202
11019, 101,243617,243601,13787,1,1,-1.323409,9.269985,1.075521,0.179244,0.645790,-0.399319,9.419221,2.965941,-5.172924,-0.957652,1.532902,-2.921668,167.321343,-145.243331,165.963365,0.945440,-0.068315,-0.307505,-0.083164,1348.976440,86676.164062,0.731393,2.230207,42.987793,13.871094,13.547854,22.750000,28.341660,4,2.870000,3,0,0, 202
11020, 101,243673,243665,13843,1,1,-1.498893,9.397240,1.411994,-0.088750,0.480304,-0.193193,9.419221,2.485415,-5.172924,-2.673496,1.876552,-1.625392,167.230324,-145.342792,165.702425,0.945438,-0.068497,-0.306914,-0.085196,1349.164185,86677.164062,3.361149,2.081541,42.987793,14.058838,13.633862,22.750000,28.341660,4,2.860000,3,0,0, 202
11021, 101,243726,243725,13896,1,1,-1.596935,9.955324,1.093959,0.119899,0.844557,0.304829,9.419221,4.407518,-5.653450,-1.020016,0.093393,1.508603,167.218699,-145.381219,165.760509,0.945568,-0.068799,-0.306574,-0.084733,1348.748413,86687.289062,-0.086470,2.075793,42.987793,13.643066,13.742524,22.750000,28.337120,4,2.870000,3,0,0, 202
11022, 101,243782,243769,13952,1,1,-2.104686,9.877946,1.702598,-0.645159,0.657325,0.399689,9.899747,4.407518,-6.133976,-2.173408,1.430324,0.448528,167.178005,-145.464260,165.767093,0.945752,-0.069261,-0.305920,-0.084673,1348.623291,86686.406250,-4.122053,0.748561,42.987793,13.517944,13.590231,22.750000,28.332582,4,2.860000,3,0,0, 202
11023, 101,243836,243831,14006,1,1,-1.443240,9.578141,1.242304,0.040758,0.628729,-0.055740,9.899747,3.446467,-5.172924,0.189299,-0.017438,4.083377,167.241826,-145.319282,166.045368,0.945638,-0.069290,-0.306892,-0.082368,1348.432983,86687.406250,-5.846061,0.760594,42.987793,13.327637,13.631310,22.750000,28.332582,4,2.870000,3,0,0, 202
11024, 101,243890,243877,14060,1,1,-1.563118,9.502827,1.087440,0.060032,0.809530,-0.143328,10.380273,5.368570,-5.172924,-3.078028,0.661537,-7.271890,167.117462,-145.311496,165.740838,0.945322,-0.069490,-0.307230,-0.084538,1348.578857,86684.531250,-3.919299,-0.893480,42.987793,13.473511,13.524773,22.750000,28.328043,4,2.860000,3,0,0, 202
11025, 101,244126,244115,14296,1,1,-1.717067,9.599010,1.520857,-0.239744,0.560256,0.049430,9.899747,3.446467,-6.133976,-1.011059,0.992075,-1.673514,166.925425,-145.376711,165.395585,0.945106,-0.070235,-0.307052,-0.086953,1348.980713,86680.945312,2.471139,1.583186,42.987793,13.875366,13.718801,22.750000,28.387051,4,2.870000,3,0,0, 202
11026, 101,244181,244175,14351,1,1,-1.835999,10.175770,1.231858,-0.034700,0.895683,0.573546,9.899747,3.446467,-4.211873,2.778085,0.724586,-4.647962,166.930097,-145.341057,165.282177,0.944936,-0.069844,-0.307409,-0.087855,1348.657959,86687.187500,-1.915252,0.441207,42.987793,13.552612,13.616529,22.750000,28.377974,4,2.870000,3,0,0, 202
11027, 101,244235,244220,14405,1,1,-1.860428,9.897908,1.533627,-0.269457,0.624773,0.363588,9.419221,3.446467,-5.172924,0.978077,0.702683,-5.817163,166.998672,-145.352108,165.184847,0.944929,-0.069033,-0.307324,-0.088856,1348.781372,86683.187500,-3.266296,0.462556,42.987793,13.676025,13.634264,22.750000,28.377974,4,2.870000,3,0,0, 202
11028, 101,244291,244284,14461,1,1,-1.930114,9.951303,1.521303,-0.308806,0.675035,0.422361,10.860798,3.926993,-5.172924,0.749331,-1.300233,-0.155696,167.026716,-145.249806,165.179628,0.944692,-0.068648,-0.308141,-0.088844,1348.967773,86678.679688,0.318884,0.406258,42.987793,13.862427,13.698879,22.750000,28.359816,4,2.870000,3,0,0, 202
11029, 101,244346,244329,14516,1,1,-1.743700,9.466128,1.582168,-0.409639,0.324086,0.123896,9.419221,3.446467,-6.614501,3.326534,-2.743075,2.877745,167.006649,-145.215054,165.196840,0.944608,-0.068813,-0.308431,-0.088605,1348.880005,86683.187500,1.032914,0.423551,42.987793,13.774658,13.715392,22.750000,28.377974,4,2.860000,3,0,0, 202
11030, 101,244401,244393,14571,1,1,-1.573715,9.346449,1.447909,-0.122671,0.464874,-0.225094,10.380273,4.888044,-5.172924,0.947113,0.062459,-4.444272,167.135863,-145.158295,165.246045,0.944584,-0.067803,-0.308765,-0.088475,1348.997803,86679.554688,0.624568,0.468632,42.987793,13.892456,13.763707,22.750000,28.364355,4,2.870000,3,0,0, 202
11031, 101,244456,244438,14626,1,1,-1.459176,9.475261,1.284478,-0.117904,0.419231,-0.313056,8.938695,3.446467,-5.172924,0.622709,1.752082,-4.447276,167.179357,-145.252879,165.330289,0.944907,-0.067799,-0.307909,-0.088016,1349.078125,86677.312500,1.683344,0.457438,42.987793,13.972778,13.781988,22.750000,28.373434,4,2.870000,3,0,0, 202
11032, 101,244511,244501,14681,1,1,-1.484129,9.257173,1.723341,-0.211734,0.157468,-0.272193,9.419221,3.926993,-5.653450,0.996014,0.318337,-2.545096,167.252973,-145.331700,165.171541,0.945020,-0.066872,-0.307301,-0.089622,1349.260498,86672.921875,2.732129,1.115346,42.987793,14.155151,13.894911,22.750000,28.350739,4,2.870000,3,0,0, 202
11033, 101,244565,244561,14735,1,1,-1.367557,9.916831,1.648229,0.022396,0.207770,0.342310,8.938695,2.965941,-5.653450,2.425013,-1.187389,0.476636,167.346192,-145.341808,165.455295,0.945318,-0.066877,-0.306981,-0.087544,1348.561401,86690.046875,-2.885342,1.104539,42.987793,13.456055,13.953196,22.750000,28.346199,4,2.870000,3,0,0, 202
11034, 101,244617,244605,14787,1,1,-1.449842,9.574411,1.430444,-0.011361,0.419973,-0.021375,9.899747,2.485415,-6.614501,-0.260279,1.607299,4.988849,167.359511,-145.383076,165.618728,0.945551,-0.067260,-0.306538,-0.086282,1348.382080,86687.046875,-8.007010,-1.491041,42.987793,13.276733,13.687716,22.750000,28.346199,4,2.870000,3,0,0, 202
11035, 101,244672,244667,14842,1,1,-1.606171,9.356227,1.466886,-0.218735,0.461826,-0.208847,8.938695,3.926993,-6.133976,1.844543,-0.243550,2.334058,167.459723,-145.354485,165.741138,0.945631,-0.066723,-0.306625,-0.085505,1348.503540,86684.289062,-4.917971,-1.501753,42.987793,13.398193,13.606192,22.750000,28.337120,4,2.860000,3,0,0, 202
11036, 101,244727,244712,14897,1,1,-1.051075,9.264925,1.304902,0.285291,0.246377,-0.393329,9.419221,2.965941,-5.653450,2.881668,0.742020,-0.213776,167.572011,-145.326222,165.826174,0.945690,-0.065987,-0.306723,-0.085069,1348.859619,86677.406250,0.613118,-0.889853,42.987793,13.754272,13.710024,22.750000,28.332582,4,2.870000,3,0,0, 202
11037, 101,244781,244775,14951,1,1,-1.287595,9.812717,1.541753,0.092511,0.225555,0.212236,9.419221,3.926993,-5.653450,-0.636914,0.021231,-4.975992,167.550769,-145.339787,165.685909,0.945606,-0.065804,-0.306709,-0.086186,1349.059570,86678.406250,4.814611,-0.893157,42.987793,13.954224,13.662426,22.750000,28.332582,4,2.870000,3,0,0, 202
11038, 101,244836,244820,15006,1,1,-1.674194,10.275156,1.581493,-0.038401,1.248660,0.488291,8.938695,3.446467,-5.653450,-1.647276,-1.829463,5.002841,167.506797,-145.343489,165.776355,0.945658,-0.066414,-0.306659,-0.085327,1349.344971,86675.679688,6.005912,0.934357,42.987793,14.239624,13.874871,22.750000,28.359816,4,2.860000,3,0,0, 202
11039, 101,244892,244884,15062,1,1,-1.489331,10.521915,1.259251,0.185203,0.680436,0.876885,9.419221,2.965941,-6.133976,-1.838492,2.499736,6.199455,167.434574,-145.344049,166.025616,0.945800,-0.067678,-0.306562,-0.083077,1349.440430,86677.921875,5.952033,0.965491,42.987793,14.335083,13.923361,22.750000,28.350739,4,2.860000,3,0,0, 202
11040, 101,245128,245120,15298,1,1,-1.454623,9.220172,1.534049,-0.217637,0.355938,-0.350775,9.419221,2.485415,-6.133976,0.785676,-1.007982,-2.500299,167.398620,-145.350414,166.144638,0.945880,-0.068301,-0.306465,-0.082006,1349.266479,86678.703125,-2.529190,0.896693,42.987793,14.161133,14.224253,22.750000,28.396130,4,2.860000,3,0,0, 202
11041, 101,245182,245178,15352,1,1,-1.478601,9.522141,0.972564,0.161032,0.847239,-0.154261,9.899747,1.524364,-4.692398,-1.407370,0.815169,-5.159582,167.311043,-145.410015,166.015821,0.945881,-0.068757,-0.306117,-0.082908,1349.233887,86676.945312,-2.849313,-0.593262,42.987793,14.128540,14.149101,22.750000,28.387051,4,2.870000,3,0,0, 202
11042, 101,245236,245223,15406,1,1,-1.807422,10.090688,1.110463,-0.054911,0.987864,0.462673,9.419221,2.965941,-5.653450,-2.098892,-0.514543,3.261337,167.200845,-145.450477,165.941058,0.945859,-0.069519,-0.305911,-0.083281,1349.312500,86675.437500,-1.283781,-0.594663,42.987793,14.207153,14.125762,22.750000,28.368895,4,2.870000,3,0,0, 202
11043, 101,245289,245285,15459,1,1,-1.548272,9.911657,1.000988,0.154376,0.939112,0.235648,8.938695,3.926993,-6.133976,-2.177243,-1.535106,3.491261,167.121383,-145.454807,166.109053,0.945942,-0.070629,-0.305830,-0.081688,1349.023315,86685.679688,-1.015093,-0.537693,42.987793,13.917969,14.185183,22.750000,28.359816,4,2.860000,3,0,0, 202
11044, 101,245345,245330,15515,1,1,-1.359576,9.325554,1.434128,-0.032157,0.413525,-0.277393,9.419221,3.926993,-5.653450,-0.040430,0.524947,-3.684932,167.131601,-145.509599,165.942465,0.945962,-0.070171,-0.305477,-0.083158,1348.880493,86683.046875,-3.512985,-0.533795,42.987793,13.775146,14.163681,22.750000,28.346199,4,2.860000,3,0,0, 202
11045, 101,245401,245393,15571,1,1,-1.676476,9.462316,1.694835,-0.408955,0.405965,-0.060035,10.380273,3.446467,-5.172924,1.433132,0.873477,1.603391,167.127366,-145.576658,165.980536,0.946151,-0.070395,-0.304907,-0.082916,1348.789673,86684.164062,-4.837957,-1.799767,42.987793,13.684326,13.990898,22.750000,28.341660,4,2.870000,3,0,0, 202
11046, 101,245456,245455,15626,1,1,-1.594268,9.396722,1.557601,-0.264702,0.459661,-0.158135,8.938695,4.888044,-5.172924,-0.312512,-0.922881,-2.251432,167.095879,-145.670040,165.898601,0.946299,-0.070558,-0.304216,-0.083625,1348.845459,86682.554688,-2.177196,-1.902885,42.987793,13.740112,13.948687,22.750000,28.364355,4,2.860000,3,0,0, 202
11047, 101,245510,245500,15680,1,1,-1.943941,9.993491,0.937205,-0.052086,1.205960,0.351343,10.380273,2.965941,-4.211873,-2.384888,-1.457125,-2.364560,167.053163,-145.672676,165.743802,0.946165,-0.070504,-0.304321,-0.084793,1349.095825,86673.921875,0.311239,-1.905825,42.987793,13.990479,13.873703,22.750000,28.350739,4,2.870000,3,0,0, 202
11048, 101,245563,245560,15733,1,1,-2.022076,10.105321,1.071808,-0.145866,1.138974,0.496404,9.899747,4.407518,-5.653450,-0.534206,1.682170,1.972816,167.049898,-145.722578,165.603045,0.946179,-0.070223,-0.304002,-0.086009,1349.031494,86679.046875,1.664011,-0.883772,42.987793,13.926147,13.941138,22.750000,28.346199,4,2.860000,3,0,0, 202
11049, 101,245617,245605,15787,1,1,-1.918530,9.951216,1.567259,-0.358643,0.676528,0.425311,8.938695,4.888044,-3.731347,-1.567412,-0.417714,-3.283245,166.936162,-145.702442,165.495921,0.945979,-0.070851,-0.304318,-0.086566,1349.099854,86678.921875,1.354956,-0.862067,42.987793,13.994507,13.906283,22.750000,28.350739,4,2.870000,3,0,0, 202
11050, 101,245672,245667,15842,1,1,-1.724094,9.473874,1.111921,-0.059700,0.880144,-0.147765,8.938695,3.926993,-5.653450,1.456847,0.901176,-4.467541,167.049802,-145.678946,165.595915,0.946068,-0.070147,-0.304363,-0.086013,1348.964600,86684.164062,0.507460,-0.486277,42.987793,13.859253,13.913709,22.625000,28.341660,4,2.870000,3,0,0, 202
11051, 101,245727,245711,15897,1,1,-1.773135,9.554335,1.985517,-0.557031,0.190450,0.099760,9.419221,3.926993,-5.172924,1.284716,-0.376916,-5.385629,167.103064,-145.652937,165.461046,0.945935,-0.069314,-0.304618,-0.087235,1348.922363,86683.164062,-1.095656,-0.487309,42.987793,13.817017,13.894400,22.625000,28.341660,4,2.870000,3,0,0, 202
11052, 101,245783,245776,15953,1,1,-1.786639,9.552351,1.612536,-0.337247,0.474923,0.032640,9.899747,2.004889,-4.692398,0.407428,-1.870121,-6.118666,167.149455,-145.555429,165.292927,0.945598,-0.068353,-0.305481,-0.088624,1348.754150,86682.406250,-3.926541,-1.469210,42.987793,13.648804,13.824987,22.625000,28.332582,4,2.870000,3,0,0, 202
11053, 101,245837,245820,16007,1,1,-1.577075,9.576138,1.178678,-0.166604,0.843903,-0.167367,9.419221,3.926993,-5.172924,0.076798,2.079479,-0.697569,167.172992,-145.516688,165.315563,0.945535,-0.068167,-0.305766,-0.088451,1348.875854,86680.796875,-0.992710,-1.464053,42.987793,13.770508,13.767619,22.625000,28.355278,4,2.870000,3,0,0, 202
11054, 101,245892,245883,16062,1,1,-1.482253,9.465699,1.393726,0.001177,0.459647,-0.130026,9.419221,2.004889,-5.172924,0.495696,1.995314,1.162598,167.220612,-145.550757,165.364726,0.945684,-0.067951,-0.305422,-0.088215,1348.822388,86681.921875,0.448546,-0.921280,42.987793,13.717041,13.788841,22.625000,28.350739,4,2.860000,3,0,0, 202
11055, 101,246129,246118,16299,1,1,-1.979807,9.756117,1.129632,-0.195508,0.972198,0.168660,10.380273,1.524364,-4.692398,-0.108549,0.446176,1.391833,167.337722,-145.456064,165.417551,0.945563,-0.066999,-0.306075,-0.087974,1348.863159,86680.828125,1.168399,-1.152049,42.987793,13.757812,13.694192,22.625000,28.391590,4,2.860000,3,0,0, 202
11056, 101,246184,246178,16354,1,1,-1.174450,9.145546,1.402718,0.130277,0.254629,-0.478653,8.938695,2.485415,-5.172924,-0.221687,2.538857,4.320938,167.363131,-145.525445,165.698149,0.945960,-0.067630,-0.305323,-0.085812,1348.890015,86685.187500,2.954010,-1.163977,42.987793,13.784668,13.634250,22.625000,28.377974,4,2.860000,3,0,0, 202
11057, 101,246240,246223,16410,1,1,-1.647478,9.132522,0.898412,-0.696398,0.015967,-0.542141,10.860798,1.043838,-5.653450,0.990554,0.403691,18.649628,167.450571,-145.536359,165.777816,0.946098,-0.067134,-0.305122,-0.085400,1348.758911,86682.187500,-0.588794,-0.284714,42.987793,13.653564,13.667767,22.625000,28.377974,4,2.870000,3,0,0, 202
11058, 101,246295,246287,16465,1,1,-2.062703,10.118392,1.715384,-0.646292,0.659117,0.626225,7.977643,2.485415,-4.692398,-3.887778,-0.910474,6.744051,167.369933,-145.556727,166.297963,0.946477,-0.069210,-0.304704,-0.080915,1348.815430,86682.679688,-1.422029,-0.303636,42.987793,13.710083,13.652868,22.625000,28.359816,4,2.860000,3,0,0, 202
11059, 101,246349,246347,16519,1,1,-1.349061,9.521248,1.498533,-0.059834,0.362781,-0.075542,9.899747,3.446467,-5.653450,-0.434985,-1.540840,5.700910,167.338296,-145.470489,166.215536,0.946189,-0.069142,-0.305482,-0.081406,1348.537720,86688.679688,-1.725747,-0.354091,42.987793,13.432373,13.669939,22.625000,28.359816,4,2.870000,3,0,0, 202
11060, 101,246402,246392,16572,1,1,-1.517544,9.009630,0.786854,0.104681,1.013634,-0.687433,9.899747,3.446467,-5.653450,-1.968651,-1.170934,2.640832,167.217593,-145.419727,166.236477,0.946006,-0.070130,-0.305971,-0.080849,1348.421875,86690.921875,-3.723842,-0.353812,42.987793,13.316528,13.655823,22.625000,28.350739,4,2.870000,3,0,0, 202
11061, 101,246457,246453,16627,1,1,-1.233957,10.087626,2.212393,-0.247933,-0.169156,0.595511,10.380273,2.965941,-4.692398,-2.280028,-1.442596,3.625073,166.932897,-145.453127,166.118848,0.945828,-0.072209,-0.305972,-0.081102,1348.770386,86674.289062,-1.753934,-1.492095,42.987793,13.665039,13.521406,22.625000,28.337120,4,2.860000,3,0,0, 202
11062, 101,246510,246497,16680,1,1,-2.100392,9.971784,0.950421,-0.217314,1.341076,0.343245,9.419221,5.849096,-5.172924,-1.859550,-1.332995,-6.566288,166.838968,-145.501498,165.915089,0.945741,-0.072503,-0.305772,-0.082593,1348.767822,86683.164062,1.812878,-1.477479,42.987793,13.662476,13.463705,22.625000,28.341660,4,2.860000,3,0,0, 202
11063, 101,246564,246560,16734,1,1,-1.494423,9.781683,1.436237,-0.044644,0.573444,0.181313,9.419221,2.485415,-5.653450,-0.170524,0.127564,-3.415230,166.851508,-145.486567,165.900883,0.945702,-0.072342,-0.305894,-0.082725,1348.772949,86680.406250,2.065205,-0.349158,42.987793,13.667603,13.555921,22.625000,28.332582,4,2.870000,3,0,0, 202
11064, 101,246616,246605,16786,1,1,-1.800273,10.513895,1.263698,-0.027731,0.952124,0.898187,10.380273,3.446467,-4.692398,-0.748524,-1.162627,-0.541509,166.804558,-145.441611,165.784524,0.945478,-0.072360,-0.306369,-0.083503,1348.740601,86681.289062,0.663309,-0.335829,42.987793,13.635254,13.542228,22.625000,28.337120,4,2.870000,3,0,0, 202
11065, 101,246671,246667,16841,1,1,-1.707033,9.611417,1.265122,-0.140361,0.793544,0.009424,8.938695,3.926993,-5.653450,3.832813,-1.655488,-0.653117,166.955286,-145.323982,165.790138,0.945290,-0.070976,-0.307217,-0.083712,1348.904663,86682.531250,3.186917,0.391388,42.987793,13.799316,13.683267,22.625000,28.328043,4,2.870000,3,0,0, 202
11066, 101,246724,246711,16894,1,1,-1.629345,9.555294,1.419995,-0.174423,0.605515,-0.024614,8.938695,4.407518,-5.653450,1.537861,0.078308,-0.728723,167.019394,-145.328585,165.766219,0.945323,-0.070389,-0.307147,-0.084087,1348.948120,86680.531250,3.637187,0.398588,42.987793,13.842773,13.698604,22.625000,28.328043,4,2.870000,3,0,0, 202
11067, 101,246778,246774,16948,1,1,-1.634739,9.450198,0.980917,0.045523,0.937534,-0.206222,9.899747,3.446467,-5.172924,0.083052,-1.361526,-0.553749,167.127298,-145.366493,165.803293,0.945509,-0.069648,-0.306735,-0.084117,1349.132080,86678.531250,2.844838,1.035764,42.987793,14.026733,13.785515,22.625000,28.328043,4,2.870000,3,0,0, 202
11068, 101,246832,246819,17002,1,1,-1.156608,9.115721,1.278475,0.190258,0.398082,-0.534181,9.899747,2.965941,-5.172924,-0.975221,-1.915317,3.086244,167.073435,-145.375140,165.805642,0.945499,-0.070110,-0.306703,-0.083964,1349.155762,86677.656250,2.996262,1.022440,42.987793,14.050415,13.826406,22.625000,28.323503,4,2.870000,3,0,0, 202
11069, 101,246886,246881,17056,1,1,-1.361001,9.664073,1.033251,0.269273,0.782024,-0.021932,9.419221,4.407518,-4.692398,-1.188476,1.860186,-2.620880,166.973209,-145.338994,165.855885,0.945385,-0.071024,-0.307041,-0.083236,1349.370850,86673.531250,3.216794,1.602714,42.987793,14.265503,13.923703,22.750000,28.328043,4,2.870000,3,0,0, 202
11070, 101,247131,247119,17301,1,1,-1.326517,9.604803,1.304069,0.156264,0.545183,-0.034176,9.899747,2.485415,-6.614501,0.179933,2.198760,-1.608750,166.838777,-145.361261,165.676893,0.945225,-0.071683,-0.307068,-0.084381,1348.694214,86683.828125,-9.363764,1.185393,42.987793,13.588867,14.119745,22.750000,28.391590,4,2.870000,3,0,0, 202
11071, 101,247187,247181,17357,1,1,-1.954548,10.180779,0.939993,-0.001093,1.238999,0.534231,10.380273,2.485415,-4.692398,0.596185,0.336230,-1.329828,166.859937,-145.271990,165.536219,0.944916,-0.071012,-0.307870,-0.085484,1349.080566,86676.437500,-4.865436,-2.169803,42.987793,13.975220,13.928998,22.750000,28.368895,4,2.870000,3,0,0, 202
11072, 101,247241,247226,17411,1,1,-1.540583,9.611176,1.288448,0.014467,0.634018,-0.002734,9.419221,4.407518,-6.133976,7.896425,-0.540557,-6.174801,167.043942,-145.210505,165.512860,0.944860,-0.069350,-0.308249,-0.086094,1349.279053,86675.187500,2.592965,-2.154512,42.987793,14.173706,13.842651,22.750000,28.377974,4,2.870000,3,0,0, 202
11073, 101,247297,247289,17467,1,1,3.272806,9.582865,1.041607,3.903177,-1.894714,-0.592158,9.419221,6.329622,-9.017131,-11.379191,35.330332,46.795897,167.073052,-145.845289,166.473813,0.947117,-0.072495,-0.302438,-0.079029,1349.410400,86671.554688,3.757507,-0.587983,42.987793,14.305054,14.009818,22.750000,28.364355,4,2.860000,3,0,0, 202
11074, 101,247351,247335,17521,1,1,-3.429940,9.791917,2.558928,-1.981272,0.798002,0.293078,8.458169,3.926993,-4.211873,-28.686473,-23.166569,38.136122,165.893328,-146.385639,168.505712,0.948819,-0.088221,-0.297292,-0.059808,1349.500854,86674.187500,4.150271,-0.587088,42.987793,14.395508,13.986228,22.750000,28.377974,4,2.860000,3,0,0, 202
11075, 101,247406,247398,17576,1,1,-2.824446,11.429113,1.311830,-0.981195,2.663573,1.699681,7.497117,5.368570,-6.133976,-72.706974,-33.647479,16.383331,162.504202,-145.457116,167.521304,0.943117,-0.112477,-0.307491,-0.057687,1349.663696,86672.554688,4.401731,0.959174,42.987793,14.558350,14.206214,22.750000,28.364355,4,2.860000,3,0,0, 202
11076, 101,247462,247460,17632,1,1,-3.789623,9.873478,3.271184,-3.050199,2.785031,0.469703,7.016591,2.004889,-3.731347,-122.681918,-58.463195,28.227184,154.913267,-144.167986,166.610539,0.930253,-0.170232,-0.322323,-0.041925,1349.398193,86680.187500,1.175658,1.040911,42.987793,14.292847,14.260174,22.750000,28.377974,4,2.860000,3,0,0, 202
11077, 101,247515,247505,17685,1,1,-3.161242,8.982704,3.647775,-2.374559,2.754384,-0.274011,8.938695,3.446467,-3.731347,-141.428902,-72.312319,-20.041054,147.608898,-142.914100,161.931067,0.913094,-0.213200,-0.343130,-0.055369,1349.552246,86672.437500,-0.832712,0.611640,42.987793,14.446899,14.260015,22.750000,28.368895,4,2.870000,3,0,0, 202
11078, 101,247570,247566,17740,1,1,-1.099584,8.107150,5.677910,-1.856042,1.170851,-0.087203,10.860798,0.563312,0.112860,-141.913354,-65.571660,84.772633,137.071856,-141.928585,157.476527,0.886123,-0.279969,-0.365246,-0.054760,1349.486938,86673.921875,-1.310724,0.579751,42.987793,14.381592,14.292075,22.750000,28.350739,4,2.870000,3,0,0, 202
11079, 101,247624,247611,17794,1,1,-0.342488,7.668478,5.892292,-1.158912,1.406419,-0.297271,10.860798,0.082786,-2.289769,-172.726058,-38.294528,10.707513,128.823638,-142.729821,154.213322,0.863884,-0.334630,-0.372254,-0.056171,1349.214844,86682.046875,-2.431711,0.071646,42.987793,14.109497,14.259065,22.750000,28.346199,4,2.870000,3,0,0, 202
11080, 101,247678,247673,17848,1,1,-2.501796,6.331958,4.850802,-1.260054,3.593913,-2.359293,7.977643,-0.878266,-1.328717,-176.219427,-7.182383,-42.031260,117.320493,-147.102754,144.527199,0.825073,-0.401441,-0.382309,-0.109270,1349.012451,86683.164062,-4.546262,0.015745,42.987793,13.907104,14.262469,22.750000,28.341660,4,2.870000,3,0,0, 202
11081, 101,247732,247718,17902,1,1,-1.205421,3.866731,7.524919,-2.358552,0.881113,-1.634610,11.341324,-2.800369,2.034964,-163.985370,8.719106,1.229791,111.249028,-151.151649,141.671483,0.801211,-0.449020,-0.373708,-0.129555,1349.037476,86681.164062,-4.329091,-1.341963,42.987793,13.932129,14.143623,22.750000,28.341660,4,2.860000,3,0,0, 202
11082, 101,247787,247781,17957,1,1,-2.435660,1.737724,8.711453,-4.033524,0.840444,-1.562925,8.458169,-5.683524,1.073912,-139.554302,15.865580,18.168646,104.752917,-157.062946,138.904546,0.769445,-0.504946,-0.357451,-0.158788,1349.163208,86677.531250,-0.873926,-1.435251,42.987793,14.057861,14.067539,22.750000,28.328043,4,2.870000,3,0,0, 202
11083, 101,247842,247826,18012,1,1,-2.791402,1.037174,9.670079,-4.587286,0.876110,-0.825070,9.419221,-7.125102,3.476542,-110.914943,8.657127,47.649278,101.227276,-160.482248,139.284742,0.751541,-0.540730,-0.340374,-0.164141,1349.114380,86679.656250,0.343800,-1.014812,42.987793,14.009033,14.104865,22.750000,28.323503,4,2.870000,3,0,0, 202
11084, 101,247896,247890,18066,1,1,-3.054190,0.260906,9.509890,-4.774474,1.067180,-1.088958,7.977643,-6.164050,2.515490,-70.126174,-8.213854,-17.636093,97.671015,-163.180569,138.462578,0.730471,-0.569792,-0.333840,-0.174068,1349.241211,86673.656250,0.834582,-1.053539,42.987793,14.135864,14.052127,22.750000,28.323503,4,2.870000,3,0,0, 202
11085, 101,248133,248125,18303,1,1,-1.359785,1.193066,10.354448,-2.941561,1.249582,0.212630,8.938695,-6.164050,2.996016,1.630046,-5.619545,-27.612578,93.191354,-164.151412,135.013032,0.701084,-0.590485,-0.352917,-0.187772,1349.747559,86673.703125,-1.803813,1.465150,42.987793,14.642212,14.544156,22.750000,28.396130,4,2.870000,3,0,0, 202
11086, 101,248187,248184,18357,1,1,-2.151598,0.537069,9.330396,-3.574539,1.533165,-1.034805,8.938695,-6.164050,2.996016,-7.377993,-7.097081,-40.050645,92.704300,-164.139705,132.721572,0.694722,-0.586230,-0.365571,-0.200133,1349.780273,86668.945312,-2.677679,1.448477,42.987793,14.674927,14.618919,22.625000,28.387051,4,2.870000,3,0,0, 202
11087, 101,248241,248228,18411,1,1,-1.636406,0.098947,10.188063,-3.762568,0.914898,-0.235945,9.419221,-6.644576,3.476542,-6.700337,-5.581271,-15.969438,92.245215,-164.117165,131.626911,0.690476,-0.585407,-0.372100,-0.205141,1349.676392,86673.437500,-1.538125,0.607071,42.987793,14.571045,14.553168,22.625000,28.368895,4,2.870000,3,0,0, 202
11088, 101,248294,248290,18464,1,1,-1.915025,0.357257,9.440741,-3.534020,1.371465,-0.938025,9.419221,-6.164050,1.554438,0.513301,-2.802094,-1.565292,91.984910,-164.130539,131.118691,0.688209,-0.585360,-0.375094,-0.207427,1349.261597,86679.796875,-4.291758,0.587889,42.987793,14.156250,14.585841,22.625000,28.355278,4,2.860000,3,0,0, 202
11089, 101,248350,248335,18520,1,1,-1.827543,0.193996,9.734544,-3.730247,1.239712,-0.707746,8.938695,-6.644576,2.996016,2.573862,-10.930248,6.650835,91.665729,-163.803277,131.164207,0.687213,-0.586333,-0.377169,-0.204197,1349.209229,86679.046875,-5.861567,-1.241111,42.987793,14.103882,14.402560,22.625000,28.346199,4,2.870000,3,0,0, 202
11090, 101,248405,248398,18575,1,1,-1.328845,0.197844,10.147768,-3.619644,0.825252,-0.261645,8.458169,-6.164050,3.476542,11.473212,-4.556599,8.539154,91.790502,-163.317541,131.767668,0.689714,-0.585945,-0.376435,-0.198139,1349.436768,86669.164062,-2.636465,-1.268797,42.987793,14.331421,14.333323,22.625000,28.341660,4,2.870000,3,0,0, 202
11091, 101,248460,248444,18630,1,1,-1.631910,0.650338,9.715899,-3.480484,1.549107,-0.660537,9.899747,-6.644576,3.476542,7.147120,-1.516064,5.813638,92.040979,-162.821478,131.787721,0.691824,-0.582840,-0.378530,-0.195939,1349.658569,86672.679688,3.614334,-0.420122,42.987793,14.553223,14.444758,22.625000,28.359816,4,2.860000,3,0,0, 202
11092, 101,248514,248507,18684,1,1,-1.601360,-0.280878,9.645013,-4.139095,0.626593,-0.961046,9.419221,-4.722473,1.554438,14.859007,0.805233,16.461702,92.367571,-162.436583,132.484442,0.695258,-0.581866,-0.376483,-0.190546,1350.219604,86662.921875,7.481826,-0.453840,42.987793,15.114258,14.422633,22.625000,28.350739,4,2.870000,3,0,0, 202
11093, 101,248568,248552,18738,1,1,-1.619084,0.299238,8.816889,-3.883843,0.564207,-1.295165,9.419221,-6.164050,1.554438,61.919503,-13.095797,14.745854,93.093402,-161.265930,133.239246,0.701865,-0.575987,-0.377739,-0.181486,1350.146240,86669.437500,7.353486,1.977678,42.987793,15.040894,14.662469,22.625000,28.368895,4,2.870000,3,0,0, 202
11094, 101,248624,248616,18794,1,1,-1.399903,-0.177294,9.403718,-4.563027,0.012838,-1.458357,9.899747,-7.605628,2.996016,92.414030,-5.957088,66.302989,95.657448,-158.098170,136.491249,0.723091,-0.560000,-0.375056,-0.151234,1350.172363,86671.796875,3.870952,1.897692,42.987793,15.067017,14.762611,22.625000,28.355278,4,2.870000,3,0,0, 202
11095, 101,248677,248660,18847,1,1,-2.012030,0.396404,8.534029,-4.868957,-0.357059,-2.092830,8.458169,-5.683524,0.112860,185.995122,-3.101068,44.453887,99.846048,-154.767019,141.000240,0.750816,-0.536444,-0.367267,-0.116694,1350.102905,86671.437500,0.784490,1.935224,42.987793,14.997559,14.813445,22.625000,28.368895,4,2.870000,3,0,0, 202
11096, 101,248733,248723,18903,1,1,-1.931968,3.842165,7.161474,-3.432444,1.824560,-2.407033,9.419221,-1.358791,-0.367666,230.346900,-9.765958,8.719500,110.287386,-147.693128,147.066008,0.800934,-0.461727,-0.374541,-0.070942,1349.717896,86676.679688,-2.777413,1.792744,42.987793,14.612549,14.917648,22.625000,28.359816,4,2.860000,3,0,0, 202
11097, 101,248787,248783,18957,1,1,-2.461606,6.574450,6.445509,-3.833711,2.822279,-1.544798,7.497117,1.524364,-4.211873,264.674584,0.395153,17.868753,124.659408,-141.573839,157.678728,0.850070,-0.373812,-0.370814,-0.011946,1349.714600,86673.046875,-5.169988,-0.120455,42.987793,14.609253,14.748163,22.625000,28.346199,4,2.860000,3,0,0, 202
11098, 101,248841,248828,19011,1,1,-1.996164,9.882151,4.224449,-2.342667,4.239008,-0.001496,9.419221,4.407518,-3.731347,246.955953,-20.676250,-75.806043,137.039932,-137.947172,164.850577,0.878324,-0.294801,-0.376020,0.015741,1349.402832,86677.164062,-4.905551,-0.182891,42.987793,14.297485,14.742841,22.625000,28.341660,4,2.870000,3,0,0, 202
11099, 101,248895,248890,19065,1,1,-1.064623,10.979147,3.811430,-2.532351,2.772019,1.249122,8.938695,3.926993,-3.250821,168.148015,-31.854821,-15.036808,151.360994,-134.150352,172.951946,0.896637,-0.204164,-0.390709,0.041305,1349.484375,86672.406250,-4.119718,-1.430642,42.987793,14.379028,14.564871,22.625000,28.332582,4,2.870000,3,0,0, 202
11100, 101,249135,249127,19305,1,1,0.022950,9.954163,0.923996,-0.955602,1.684114,0.006662,9.899747,3.446467,-6.614501,-0.045525,-0.440397,9.557016,168.409693,-132.106732,-177.548691,0.908168,-0.100897,-0.401745,0.060423,1349.520996,86678.828125,6.904994,0.122285,42.987793,14.415649,14.411069,22.625000,28.391590,4,2.860000,3,0,0, 202
11101, 101,249188,249185,19358,1,1,-1.778217,9.806717,2.025950,-2.987186,2.177115,-0.326027,10.380273,5.849096,-5.172924,6.036455,7.770036,-13.463986,168.622262,-132.430251,-177.459653,0.909449,-0.099581,-0.399208,0.060153,1349.335205,86677.187500,0.089518,0.098497,42.987793,14.229858,14.340075,22.625000,28.377974,4,2.860000,3,0,0, 202
11102, 101,249242,249230,19412,1,1,0.324225,10.515545,2.595391,-1.970802,0.163976,0.852962,10.860798,2.485415,-5.653450,30.492437,-5.665149,-36.448676,169.988573,-132.378888,-177.801067,0.910552,-0.087531,-0.400568,0.052708,1349.571411,86673.554688,-1.467967,0.105441,42.987793,14.466064,14.343829,22.625000,28.364355,4,2.860000,3,0,0, 202
11103, 101,249296,249291,19466,1,1,-0.610023,9.354794,-0.219406,-0.599914,1.893961,-0.636643,11.341324,5.849096,-5.653450,46.835516,-13.395942,-46.314089,174.484818,-131.658030,-176.689754,0.910322,-0.055687,-0.407549,0.046012,1348.950928,86688.921875,-3.447047,-0.914515,42.987793,13.845581,14.174435,22.625000,28.350739,4,2.860000,3,0,0, 202
11104, 101,249349,249336,19519,1,1,0.593347,11.746402,2.089816,-1.457801,-0.595031,2.040372,11.341324,3.926993,-4.692398,8.448480,-12.119542,-36.489568,175.577403,-131.442141,-177.908929,0.910435,-0.042664,-0.410163,0.032483,1349.238770,86671.921875,-5.682927,-0.903445,42.987793,14.133423,14.138096,22.625000,28.350739,4,2.860000,3,0,0, 202
11105, 101,249404,249399,19574,1,1,0.509662,9.611971,-0.620829,0.488954,1.038247,-0.224041,10.380273,4.407518,-5.172924,9.559107,4.341860,9.873145,176.097754,-131.303980,-177.168400,0.909905,-0.041190,-0.411147,0.036530,1349.456177,86679.164062,0.916399,-0.391397,42.987793,14.350830,14.233533,22.625000,28.341660,4,2.870000,3,0,0, 202
11106, 101,249459,249445,19629,1,1,0.347765,9.733813,0.889578,-0.767333,0.185842,-0.052355,11.821850,4.888044,-5.172924,-1.335792,1.233322,-5.680953,176.119583,-131.278162,-177.072804,0.909789,-0.041362,-0.411324,0.037215,1348.960449,86683.164062,-0.194601,-0.408473,42.987793,13.855103,14.217783,22.625000,28.341660,4,2.860000,3,0,0, 202
11107, 101,249515,249508,19685,1,1,1.086768,9.355871,0.462777,0.068986,-0.135187,-0.372081,11.341324,2.485415,-5.653450,3.736632,0.407408,9.169750,176.077018,-131.284787,-177.219312,0.909845,-0.041173,-0.411311,0.036203,1349.039551,86675.531250,-4.935273,-1.689647,42.987793,13.934204,14.133297,22.625000,28.328043,4,2.860000,3,0,0, 202
11108, 101,249568,249553,19738,1,1,-0.025325,9.367807,0.316793,-0.593936,0.813470,-0.482077,11.821850,3.446467,-4.211873,0.577271,0.549378,-5.739132,176.217310,-131.241839,-176.852708,0.909621,-0.041379,-0.411566,0.038618,1348.863892,86682.164062,-3.480692,-1.720278,42.987793,13.758545,14.066100,22.625000,28.341660,4,2.860000,3,0,0, 202
11109, 101,249624,249617,19794,1,1,0.510875,10.213126,1.034692,-0.772591,-0.014315,0.448021,11.341324,5.368570,-5.653450,0.746541,-1.288991,-9.503215,176.229181,-131.176447,-177.189191,0.909498,-0.040081,-0.412209,0.035915,1348.882568,86682.921875,-1.794526,-1.719613,42.987793,13.777222,14.014031,22.625000,28.350739,4,2.870000,3,0,0, 202
11110, 101,249679,249662,19849,1,1,0.028284,9.756170,0.805789,-0.768457,0.539762,0.168794,11.821850,3.446467,-6.133976,1.182814,-0.875991,2.917436,176.284833,-131.140520,-177.126626,0.909368,-0.039868,-0.412490,0.036218,1348.825928,86684.679688,-0.876060,-1.692716,42.987793,13.720581,13.945436,22.625000,28.359816,4,2.860000,3,0,0, 202
11111, 101,249734,249726,19904,1,1,0.446396,10.261513,0.361380,-0.330723,0.497387,0.459202,11.821850,2.485415,-4.692398,-0.472910,0.033957,0.840224,176.272634,-131.122502,-177.012945,0.909263,-0.040375,-0.412589,0.037167,1348.868286,86680.921875,-1.011056,-1.517168,42.987793,13.762939,13.929945,22.625000,28.350739,4,2.870000,3,0,0, 202
11112, 101,249787,249786,19957,1,1,0.849611,9.712126,1.103945,-0.626182,-0.330060,-0.015047,10.380273,3.926993,-5.653450,0.897977,-3.313247,0.631103,176.293453,-131.042479,-176.848542,0.908926,-0.040810,-0.413173,0.038409,1348.874634,86685.164062,-0.287215,-1.505974,42.987793,13.769287,13.849738,22.625000,28.341660,4,2.870000,3,0,0, 202
11113, 101,249842,249831,20012,1,1,0.391463,9.576411,-0.011212,-0.113130,0.742367,-0.246048,10.380273,2.965941,-5.653450,3.808227,-2.161042,6.920290,176.438594,-130.966350,-176.550377,0.908600,-0.040744,-0.413721,0.040261,1349.211060,86675.531250,1.643685,-0.614067,42.987793,14.105713,13.988859,22.625000,28.328043,4,2.870000,3,0,0, 202
11114, 101,249896,249891,20066,1,1,1.486076,9.550218,0.428521,0.297088,-0.388761,-0.138738,11.341324,2.965941,-5.653450,0.672786,1.981900,0.571381,176.388570,-130.933497,-176.781565,0.908543,-0.040309,-0.414046,0.038613,1349.211914,86678.406250,3.240396,-0.627334,42.987793,14.106567,13.955832,22.625000,28.332582,4,2.870000,3,0,0, 202
11115, 101,250137,250128,20307,1,1,0.462605,10.190017,0.645587,-0.519494,0.299792,0.402307,11.341324,4.888044,-6.133976,7.105699,1.559493,4.269635,176.148161,-130.908007,-177.129768,0.908479,-0.040959,-0.414293,0.036726,1348.932617,86682.187500,-2.481555,-1.196246,42.987793,13.827271,13.896662,22.625000,28.377974,4,2.870000,3,0,0, 202
11116, 101,250191,250187,20361,1,1,0.929976,9.501841,1.279844,-0.699350,-0.546777,-0.209349,11.341324,4.407518,-5.653450,5.015439,-4.034459,1.572405,176.396179,-130.789011,-176.887952,0.908056,-0.039879,-0.415232,0.037764,1348.702881,86683.312500,-3.818580,-1.628237,42.987793,13.597534,13.815288,22.625000,28.373434,4,2.860000,3,0,0, 202
11117, 101,250245,250232,20415,1,1,0.701647,10.199703,1.661899,-1.178791,-0.552603,0.474857,11.821850,4.888044,-5.653450,-2.320668,-2.723281,5.340405,176.503536,-130.641411,-176.772577,0.907517,-0.039463,-0.416398,0.038310,1348.726807,86682.554688,-4.442939,-1.618994,42.987793,13.621460,13.750459,22.625000,28.364355,4,2.870000,3,0,0, 202
11118, 101,250299,250295,20469,1,1,-0.018525,8.243443,0.411561,-0.675785,0.628030,-1.598990,11.341324,2.485415,-5.653450,3.618265,-2.317493,9.911848,176.700013,-130.679277,-176.247950,0.907540,-0.039807,-0.415985,0.041746,1348.905518,86681.921875,0.648179,-1.901868,42.987793,13.800171,13.772630,22.625000,28.350739,4,2.870000,3,0,0, 202
11119, 101,250354,250340,20524,1,1,0.776545,9.744890,0.820049,-0.500474,-0.130666,-0.004529,10.380273,3.446467,-5.653450,1.593749,-1.799687,-0.651194,176.806974,-130.614227,-176.542673,0.907443,-0.037899,-0.416638,0.039031,1348.881592,86678.164062,1.590789,-1.945838,42.987793,13.776245,13.695746,22.625000,28.341660,4,2.870000,3,0,0, 202
11120, 101,250410,250404,20580,1,1,1.024162,9.122531,0.760445,-0.291052,-0.363651,-0.601500,10.860798,2.485415,-5.653450,1.506138,-0.560448,5.893633,177.094115,-130.548643,-176.348750,0.907230,-0.036341,-0.417194,0.039528,1348.953613,86679.406250,0.977266,-1.022877,42.987793,13.848267,13.785629,22.625000,28.332582,4,2.870000,3,0,0, 202
11121, 101,250464,250448,20634,1,1,0.443613,8.761073,1.031578,-0.379682,0.097472,-0.381973,10.860798,3.926993,-5.653450,-0.512549,-1.806373,3.283418,177.067422,-130.479617,-176.172121,0.906907,-0.037207,-0.417675,0.041029,1348.846680,86680.796875,0.261470,-1.051224,42.987793,13.741333,13.745088,22.625000,28.355278,4,2.870000,3,0,0, 202
11122, 101,250519,250511,20689,1,1,0.523970,9.611052,0.769552,-0.655789,0.078994,-0.167581,11.821850,4.407518,-5.653450,-0.500733,0.127963,4.164766,177.048557,-130.510517,-176.231503,0.907035,-0.037134,-0.417442,0.040625,1348.966431,86679.046875,0.200235,-0.655749,42.987793,13.861084,13.772070,22.625000,28.346199,4,2.860000,3,0,0, 202
11123, 101,250573,250570,20743,1,1,0.704023,9.989696,0.678676,-0.488936,0.019956,0.224508,11.341324,4.407518,-6.133976,0.048518,0.203754,-2.150999,177.184341,-130.486816,-176.208745,0.906984,-0.036147,-0.417671,0.040313,1349.051270,86679.164062,2.021309,-0.653340,42.987793,13.945923,13.737818,22.625000,28.341660,4,2.870000,3,0,0, 202
11124, 101,250628,250615,20798,1,1,0.461482,10.328368,0.070383,-0.224410,0.633287,0.516059,11.341324,2.965941,-5.172924,1.807400,2.880974,2.816023,177.340971,-130.557031,-175.984578,0.907210,-0.035710,-0.417100,0.041512,1348.910522,86682.289062,1.148087,0.164268,42.987793,13.805176,13.817338,22.625000,28.337120,4,2.870000,3,0,0, 202
11125, 101,250682,250677,20852,1,1,0.485666,10.211825,0.899996,-0.807993,0.043749,0.429957,11.821850,3.446467,-5.653450,-1.539408,0.803785,-3.295042,177.291534,-130.501337,-176.210097,0.907071,-0.035291,-0.417594,0.039910,1348.744995,86686.406250,-1.664787,0.185618,42.987793,13.639648,13.826846,22.625000,28.332582,4,2.860000,3,0,0, 202
11126, 101,250737,250723,20907,1,1,0.913898,9.653826,1.097399,-0.660532,-0.445020,-0.074670,10.860798,5.368570,-6.133976,-1.167387,-1.033406,4.504130,177.218834,-130.489630,-176.176274,0.906993,-0.035992,-0.417650,0.040444,1348.661011,86683.531250,-3.034072,-0.632662,42.987793,13.555664,13.712127,22.750000,28.328043,4,2.860000,3,0,0, 202
11127, 101,250792,250787,20962,1,1,0.735468,9.827683,1.092158,-0.752949,-0.325755,0.080500,10.860798,4.888044,-5.653450,-2.243867,-0.650504,-4.636175,177.247152,-130.535707,-176.409798,0.907251,-0.034909,-0.417367,0.038489,1348.592773,86686.656250,-3.345041,-0.631567,42.987793,13.487427,13.676570,22.750000,28.323503,4,2.870000,3,0,0, 202
11128, 101,250847,250831,21017,1,1,0.325440,9.515390,0.608370,-0.649259,0.259435,-0.286283,11.821850,5.368570,-6.614501,2.247101,1.811141,0.891866,177.370177,-130.608462,-176.308274,0.907520,-0.034292,-0.416802,0.038840,1348.836182,86679.531250,-1.028391,-1.085562,42.987793,13.730835,13.673526,22.750000,28.328043,4,2.870000,3,0,0, 202
11129, 101,250902,250894,21072,1,1,0.984736,9.555036,0.820546,-0.380689,-0.403272,-0.176336,11.821850,2.965941,-5.172924,3.815254,-0.924054,-4.332083,177.533009,-130.553861,-176.343614,0.907380,-0.032883,-0.417299,0.037970,1348.899048,86679.773438,1.785929,-1.088155,42.987793,13.793701,13.617545,22.750000,28.318964,4,2.870000,3,0,0, 202
11130, 101,251138,251130,21308,1,1,0.549271,9.825411,0.499092,-0.468082,0.181846,0.039596,11.821850,3.926993,-5.172924,2.087497,0.009071,5.098964,177.659286,-130.440248,-176.008333,0.906887,-0.033127,-0.418146,0.040169,1348.543457,86686.578125,2.196774,-0.543715,42.987793,13.438110,13.482848,22.750000,28.400667,4,2.860000,3,0,0, 202
11131, 101,251192,251188,21362,1,1,0.497220,9.592698,0.835864,-0.757733,0.001270,-0.188946,11.821850,3.926993,-6.133976,-0.032507,-4.907424,8.909302,177.613796,-130.318138,-175.922669,0.906395,-0.033825,-0.419071,0.041017,1348.661865,86684.070312,2.668432,-0.537520,42.987793,13.556519,13.455324,22.750000,28.382511,4,2.870000,3,0,0, 202
11132, 101,251248,251233,21418,1,1,0.482042,9.681454,0.380199,-0.430397,0.306500,-0.114500,11.821850,2.004889,-5.172924,1.972721,-1.554251,1.817005,177.714036,-130.264494,-175.866579,0.906208,-0.033249,-0.419515,0.041096,1348.437744,86689.437500,1.356322,-0.000847,42.987793,13.332397,13.432422,22.750000,28.368895,4,2.860000,3,0,0, 202
11133, 101,251302,251296,21472,1,1,0.248529,9.839657,0.588942,-0.755418,0.383238,0.022947,11.821850,3.446467,-6.133976,1.190798,1.871643,-1.236478,177.651608,-130.286241,-175.795873,0.906244,-0.033996,-0.419300,0.041883,1348.512939,86684.921875,-1.120191,-0.010160,42.987793,13.407593,13.432315,22.750000,28.350739,4,2.860000,3,0,0, 202
11134, 101,251356,251341,21526,1,1,1.050843,9.219597,0.892895,-0.443720,-0.470428,-0.501306,11.341324,4.888044,-5.653450,-0.532008,-1.285942,3.062398,177.609261,-130.233389,-175.772678,0.906028,-0.034428,-0.419696,0.042223,1348.371704,86688.679688,-1.200785,-0.343687,42.987793,13.266357,13.376753,22.750000,28.359816,4,2.870000,3,0,0, 202
11135, 101,251412,251405,21582,1,1,0.367656,9.734248,0.231667,-0.419925,0.514620,-0.079721,13.263428,2.485415,-5.172924,-0.482640,0.565664,-0.660063,177.779073,-130.247910,-175.623343,0.906077,-0.033629,-0.419600,0.042781,1348.287109,86688.796875,-2.948860,-0.343955,42.987793,13.181763,13.358605,22.750000,28.355278,4,2.870000,3,0,0, 202
11136, 101,251467,251451,21637,1,1,0.461185,9.827263,0.117077,-0.599103,-0.425722,-0.245167,11.341324,4.407518,-5.653450,-3.128947,-1.762296,3.352569,177.663671,-130.244426,-175.668313,0.906047,-0.034377,-0.419597,0.042848,1348.219360,86687.679688,-2.486919,-1.211510,42.987793,13.114014,13.276965,22.750000,28.359816,4,2.860000,3,0,0, 202
11137, 101,251522,251514,21692,1,1,0.927479,10.202098,0.433843,-0.223223,0.034068,0.449866,11.821850,2.965941,-5.172924,0.053366,0.118257,-4.543387,177.528119,-130.183542,-175.743636,0.905810,-0.035186,-0.420051,0.042751,1348.303833,86684.679688,-1.424841,-1.213016,42.987793,13.198486,13.214828,22.750000,28.359816,4,2.860000,3,0,0, 202
11138, 101,251575,251559,21745,1,1,0.846665,9.120290,0.919847,-0.347794,-0.187615,-0.014140,11.821850,2.965941,-5.172924,-1.245301,0.545299,-0.707504,177.342365,-130.154760,-175.713788,0.905634,-0.036770,-0.420199,0.043669,1348.387085,86687.554688,1.888486,-0.480802,42.987793,13.281738,13.289326,22.750000,28.364355,4,2.860000,3,0,0, 202
11139, 101,251630,251622,21800,1,1,0.391894,9.843162,0.622863,-0.696878,0.316932,0.039899,11.821850,3.926993,-6.133976,-0.006117,-2.765706,2.101674,177.344605,-130.089258,-175.729388,0.905400,-0.036709,-0.420723,0.043541,1348.581665,86682.921875,3.172548,-0.489694,42.987793,13.476318,13.264286,22.750000,28.350739,4,2.860000,3,0,0, 202
11140, 101,251684,251667,21854,1,1,0.766552,9.921415,0.506871,-0.605941,-0.214352,-0.041181,11.341324,3.446467,-5.653450,1.889175,-1.732439,3.894728,177.415926,-130.085952,-175.735071,0.905412,-0.036125,-0.420778,0.043234,1348.915283,86677.437500,5.271050,0.786019,42.987793,13.809937,13.413250,22.750000,28.368895,4,2.860000,3,0,0, 202
11141, 101,251739,251730,21909,1,1,1.206972,9.583373,0.801636,-0.318421,-0.446822,-0.124255,12.302376,3.926993,-5.172924,2.902775,-0.786554,-3.954537,177.507136,-130.028538,-175.547254,0.905158,-0.036107,-0.421208,0.044385,1348.810059,86679.796875,5.073425,0.779601,42.987793,13.704712,13.453883,22.750000,28.355278,4,2.870000,3,0,0, 202
11142, 101,251792,251789,21962,1,1,0.709187,9.373736,0.359655,-0.313694,0.234105,-0.401744,11.821850,2.965941,-5.653450,-0.544569,0.715529,-2.511558,177.441034,-130.065284,-175.309359,0.905177,-0.037495,-0.420815,0.046506,1348.755127,86680.796875,1.121915,1.225307,42.987793,13.649780,13.484535,22.750000,28.355278,4,2.870000,3,0,0, 202
11143, 101,251846,251834,22016,1,1,0.892494,9.461228,0.994443,-0.682359,-0.281139,-0.274424,10.860798,3.446467,-5.653450,-1.559800,1.334212,4.894233,177.276863,-130.135553,-175.339917,0.905394,-0.038663,-0.420202,0.046865,1348.903564,86680.289062,1.208414,1.220356,42.987793,13.798218,13.532782,22.750000,28.337120,4,2.870000,3,0,0, 202
11144, 101,251901,251896,22071,1,1,0.489603,9.878613,0.875025,-0.854330,0.124871,0.090759,11.821850,2.965941,-5.653450,-1.387639,3.554417,-4.167450,177.276945,-130.264972,-175.489676,0.905931,-0.038084,-0.419229,0.045676,1348.910156,86680.289062,2.350637,1.559956,42.987793,13.804810,13.591601,22.750000,28.337120,4,2.870000,3,0,0, 202
11145, 101,252141,252134,22311,1,1,0.838443,9.897538,0.201240,-0.109357,0.280591,0.129461,11.341324,4.407518,-7.095027,-0.195284,-1.269923,-3.410665,177.331300,-130.357179,-175.549782,0.906311,-0.037414,-0.418540,0.044998,1348.417725,86686.703125,-1.229105,-1.275988,42.987793,13.312378,13.416786,22.750000,28.396130,4,2.870000,3,0,0, 202
11146, 101,252195,252193,22365,1,1,0.965001,9.855282,0.129373,0.024330,0.222014,0.099740,10.860798,3.446467,-5.653450,1.514232,2.444328,2.292873,177.394138,-130.369665,-175.505481,0.906360,-0.037076,-0.418452,0.045118,1348.369385,86684.312500,-1.840897,-1.462988,42.987793,13.264038,13.391137,22.750000,28.373434,4,2.870000,3,0,0, 202
11147, 101,252250,252237,22420,1,1,0.485646,10.189356,0.560565,-0.636148,0.335213,0.389977,11.821850,3.446467,-5.653450,2.763070,-2.100882,-1.716308,177.459011,-130.341183,-175.458517,0.906258,-0.036741,-0.418688,0.045254,1348.251343,86689.554688,-1.966409,-1.459408,42.987793,13.145996,13.333501,22.750000,28.364355,4,2.870000,3,0,0, 202
11148, 101,252305,252299,22475,1,1,0.818068,9.935080,0.131357,-0.106291,0.331086,0.162502,10.860798,3.446467,-5.653450,2.813163,-0.460398,6.133023,177.649778,-130.361633,-175.237779,0.906305,-0.036034,-0.418532,0.046302,1348.268799,86687.921875,-0.945737,-1.315202,42.987793,13.163452,13.314871,22.750000,28.350739,4,2.870000,3,0,0, 202
11149, 101,252360,252344,22530,1,1,0.817422,10.333858,0.449608,-0.101151,0.299126,0.351749,11.341324,2.004889,-5.653450,0.247372,-0.629564,-3.881749,177.696701,-130.324271,-175.376336,0.906238,-0.035165,-0.418889,0.045035,1348.166260,86691.437500,-0.980557,-1.304271,42.987793,13.060913,13.262600,22.750000,28.368895,4,2.870000,3,0,0, 202
11150, 101,252415,252408,22585,1,1,0.709292,10.009166,0.823399,-0.691932,-0.052399,0.243051,10.860798,2.485415,-7.095027,-0.941633,-0.097678,5.603217,177.690172,-130.302702,-175.381773,0.906159,-0.035202,-0.419059,0.045016,1348.505005,86678.921875,0.393263,-0.827069,42.987793,13.399658,13.343266,22.750000,28.350739,4,2.870000,3,0,0, 202
11151, 101,252469,252452,22639,1,1,0.948402,10.285529,0.496725,0.026394,0.518786,0.357341,11.341324,2.485415,-6.133976,-2.397225,-0.756664,1.911936,177.859765,-130.349789,-175.449993,0.906409,-0.033600,-0.418773,0.043856,1348.473511,86689.187500,3.414505,-0.814945,42.987793,13.368164,13.311407,22.750000,28.377974,4,2.870000,3,0,0, 202
11152, 101,252524,252515,22694,1,1,0.788801,10.192022,0.427961,-0.330788,0.125353,0.424338,11.341324,3.446467,-6.133976,0.872906,-0.679935,-0.996907,177.775576,-130.338984,-175.534782,0.906377,-0.033959,-0.418851,0.043493,1348.735596,86679.679688,3.641181,0.449573,42.987793,13.630249,13.439393,22.750000,28.359816,4,2.860000,3,0,0, 202
11153, 101,252577,252576,22747,1,1,0.829191,9.131035,0.069809,0.022657,0.223158,-0.634871,11.341324,2.965941,-7.095027,0.923205,3.798604,1.710832,177.764880,-130.348956,-175.543416,0.906413,-0.034010,-0.418771,0.043464,1348.880981,86682.921875,4.145690,0.465402,42.987793,13.775635,13.463882,22.750000,28.350739,4,2.870000,3,0,0, 202
11154, 101,252631,252621,22801,1,1,0.889816,9.617995,0.186479,-0.049313,0.128153,-0.141107,11.341324,3.926993,-6.133976,1.120474,0.875094,0.034342,177.876772,-130.389008,-175.563128,0.906600,-0.033043,-0.418502,0.042899,1348.982300,86678.289062,4.016283,1.468633,42.987793,13.876953,13.586064,22.750000,28.337120,4,2.860000,3,0,0, 202
11155, 101,252684,252681,22854,1,1,0.881235,9.163758,0.602038,-0.348188,-0.180636,-0.583645,11.821850,3.926993,-5.653450,-0.932618,-1.466311,-1.377069,177.892536,-130.467350,-175.560286,0.906891,-0.032910,-0.417886,0.042864,1348.719849,86687.164062,0.751678,1.459718,42.987793,13.614502,13.662746,22.750000,28.341660,4,2.870000,3,0,0, 202
11156, 101,252738,252726,22908,1,1,0.719580,9.979971,0.259489,-0.226516,0.228954,0.203060,11.821850,2.965941,-5.653450,-0.266803,1.747972,-0.616139,177.919284,-130.566607,-175.617155,0.907282,-0.032467,-0.417126,0.042316,1348.541260,86687.406250,-2.520646,0.328839,42.987793,13.435913,13.535731,22.750000,28.332582,4,2.870000,3,0,0, 202
11157, 101,252793,252789,22963,1,1,0.885357,9.965248,0.550297,-0.347465,-0.074915,0.212317,11.821850,3.446467,-5.172924,-0.895561,0.056253,1.395541,177.907781,-130.523945,-175.547268,0.907097,-0.032823,-0.417440,0.042911,1348.200317,86694.406250,-5.535293,0.328736,42.987793,13.094971,13.553843,22.750000,28.332582,4,2.870000,3,0,0, 202
11158, 101,252848,252833,23018,1,1,1.023366,9.790710,0.365858,-0.110391,-0.063104,0.049024,11.341324,4.407518,-5.653450,-0.025911,0.136659,2.947218,177.842225,-130.522962,-175.535397,0.907070,-0.033385,-0.417420,0.043244,1348.048462,86693.648438,-6.543516,-1.634691,42.987793,12.943115,13.337111,22.750000,28.323503,4,2.870000,3,0,0, 202
