index," checksum",uptime mp,uptime nav,"  errorflag mp",errorflag NAV,"  accel x"," accel y"," accel z"," accelworld x"," accelworld y"," accelworld z"," accelhighg x"," accelhighg y"," accelhighg z"," gyro x"," gyro y"," gyro z"," euler x"," euler y"," euler z"," quat w"," quat x"," quat y"," quat z"," altitude"," presusre"," verticalvel",filtered vvel," maxalt"," altitudeagl"," filtered alt"," imutemp"," barotemp",state,battstate,pyros fired," checksum2\r"
1506," 101",0,4903,1,1,0.604244,8.325612,4.687630,-1.343446,-1.501359,-0.441733,-0.191296,3.926993,5.398644,18.185664,22.453166,30.348269,141.085699,141.591584,-135.261651,0.864001,-0.207666,0.432524,0.152647,1306.548096,87044.625000,-1.100749,0.323913,0.548218,0.090820,0.198481,12.000000,16.719513,0,0.000000,0," 202"
1507," 101",5042,5440,1,1,-4.669805,8.056540,0.333902,-1.456378,-2.122285,-0.845483,-6.918659,3.926993,-2.289769,61.632820,15.713851,71.662434,167.369155,114.342517,177.204450,0.833492,-0.105551,0.536425,-0.079991,1306.689209,87040.382812,0.814898,-0.026359,0.548218,0.231934,0.114831,12.000000,16.742144,0,0.000000,0," 202"
1508," 101",7542,7540,1,1,-4.814459,8.438365,1.334623,0.121062,0.074642,0.004407,-6.438133,3.926993,0.593386,-1.823379,-3.101617,-2.248065,168.188176,129.946016,158.608754,0.877562,-0.169711,0.396186,-0.210047,1306.840576,87036.906250,0.002356,-0.048607,0.548218,0.383301,0.220153,12.000000,16.778353,0,0.000000,0," 202"
1509," 101",9719,9702,1,1,-5.633052,8.204472,0.612633,-0.893617,-0.275091,0.126020,-5.477081,3.926993,0.593386,8.662822,13.453279,16.603927,169.254492,128.281676,158.408520,0.872409,-0.164105,0.410776,-0.207929,1306.576538,87044.562500,-1.313461,-0.045847,0.604492,0.119263,0.307724,12.000000,16.850769,0,0.000000,0," 202"
1510," 101",11813,11806,1,1,-6.299992,6.730600,2.369624,0.830857,0.136254,-0.319592,-6.918659,3.446467,3.957067,14.039156,7.210297,25.254102,162.035310,127.806664,147.511117,0.845755,-0.265447,0.369576,-0.278658,1306.569458,87042.750000,0.243776,-0.216397,0.604492,0.112183,0.125078,12.125000,16.905081,0,0.000000,0," 202"
1511," 101",13910,13910,1,1,-6.913384,7.211186,0.617241,-0.422237,0.077039,0.198642,-6.438133,2.965941,0.112860,-0.775520,7.387215,-1.596583,164.249671,112.433247,151.302842,0.778744,-0.246829,0.505407,-0.277844,1306.594360,87044.835938,0.174599,0.027899,0.604492,0.137085,0.197136,12.250000,16.959391,0,0.000000,0," 202"
1512," 101",16015,15980,1,1,-7.079241,7.050823,-0.330241,-0.094806,0.192101,0.193645,-7.879711,2.965941,0.112860,-1.872584,3.108996,-4.214666,3.905165,74.094630,-49.782302,0.732218,-0.228763,0.557639,-0.317117,1306.897217,87036.406250,-0.608765,-0.043623,0.604492,0.439941,0.329152,12.250000,17.000124,0,0.000000,0," 202"
1513," 101",18129,18094,1,1,-7.204204,6.535764,-1.613733,0.104518,-0.068874,0.058272,-7.399185,2.004889,-2.289769,4.164230,-5.408961,1.330429,35.367037,72.349059,-81.620822,0.699277,-0.181946,0.585888,-0.366936,1306.515015,87047.187500,-0.394417,-0.002258,0.604492,0.057739,0.201738,12.250000,17.058960,0,0.000000,0," 202"
1514," 101",20404,20380,1,1,-7.155660,6.363224,-2.436806,-0.153446,-0.052927,0.078563,-7.879711,3.446467,-3.250821,-2.086306,4.633861,-0.864977,45.773455,71.009918,-92.002887,0.680355,-0.162426,0.599631,-0.388816,1306.742188,87042.437500,-0.297167,0.156793,0.604492,0.284912,0.274134,12.250000,17.113268,0,0.000000,0," 202"
1515," 101",22525,22488,1,1,-6.825554,6.926639,-1.823856,-0.234722,0.242204,0.087337,-6.918659,2.004889,-1.809243,-17.166885,-35.146296,-7.948213,30.095770,71.957231,-74.435600,0.714586,-0.175842,0.578873,-0.351217,1306.728149,87043.750000,-0.420378,-0.148432,0.694214,0.270874,0.407542,12.375000,17.153999,0,0.000000,0," 202"
1516," 101",24651,24610,1,1,-5.975283,7.611125,-0.699682,0.257325,0.496545,0.128022,-5.957607,2.485415,-0.367666,-13.793163,-11.614108,-21.422216,17.169692,72.936161,-60.094190,0.732743,-0.190364,0.568842,-0.321354,1306.870605,87039.210938,-0.198050,-0.124549,0.696777,0.413330,0.326816,12.375000,17.194731,0,0.000000,0," 202"
1517," 101",26840,26821,1,1,-6.517168,7.428012,-1.015523,0.023702,-0.013220,0.132750,-6.918659,1.043838,-0.848191,-1.190716,-0.806681,-1.115989,34.949053,79.461178,-75.700633,0.697007,-0.191751,0.623115,-0.298563,1306.932373,87039.617188,0.515925,-0.122393,0.696777,0.475098,0.377296,12.500000,17.230936,0,0.000000,0," 202"
1518," 101",28972,28944,1,1,-6.173901,7.629849,-1.250050,0.061074,-0.017576,0.092950,-6.438133,2.485415,-1.328717,0.342214,2.314644,1.136370,34.791679,76.553150,-72.996089,0.713051,-0.165204,0.614099,-0.295209,1306.797485,87040.992188,-0.050032,0.120529,0.696777,0.340210,0.355872,12.500000,17.267141,0,0.000000,0," 202"
1519," 101",31109,31068,1,1,-6.620528,7.482045,-0.915938,0.153598,-0.014330,-0.081933,-6.438133,2.965941,-2.289769,-4.649662,5.179973,-3.497236,26.412557,78.911429,-67.780461,0.704942,-0.198548,0.611926,-0.298633,1306.853882,87041.039062,0.008549,0.019020,0.696777,0.396606,0.374113,12.500000,17.325974,0,0.000000,0," 202"
1520," 101",33247,33243,1,1,-6.047177,7.837405,-1.387227,0.005456,0.355311,0.188564,-5.477081,3.926993,-2.289769,-3.804864,-11.676029,-6.685580,50.873745,79.941750,-90.139379,0.684120,-0.178234,0.642751,-0.295100,1306.765381,87042.890625,0.101826,0.078293,0.696777,0.308105,0.398941,12.625000,17.393854,0,0.000000,0," 202"
1521," 101",35389,35375,1,1,-5.476768,8.101298,-0.097263,-0.013998,-0.112274,-0.022315,-5.957607,3.926993,0.112860,1.520491,2.798629,1.876748,3.165696,78.742772,-36.503806,0.739365,-0.178319,0.608888,-0.225383,1306.618042,87043.070312,0.375233,0.039693,0.696777,0.160767,0.146170,12.625000,17.443634,0,0.000000,0," 202"
1522," 101",37534,37502,1,1,-5.233128,8.593991,-0.467182,-0.511794,-0.108167,0.258172,-5.957607,2.965941,-0.367666,3.775317,11.725372,7.063722,178.868516,97.529357,150.775784,0.720488,-0.162381,0.638775,-0.215627,1306.527954,87045.273438,-0.306331,-0.092817,0.696777,0.070679,0.145287,12.625000,17.488888,0,0.000000,0," 202"
1523," 101",39693,39684,1,1,-5.558162,7.998674,0.014257,0.094986,0.091754,-0.061662,-6.438133,3.926993,-0.367666,4.047470,0.232423,1.096897,2.204048,80.201919,-37.593703,0.727973,-0.193584,0.614410,-0.234691,1306.370239,87048.382812,-0.721969,-0.276884,0.696777,-0.087036,-0.006668,12.625000,17.538668,0,0.000000,0," 202"
1524," 101",41900,41867,1,1,-6.390296,7.398453,-0.806044,-0.505784,-0.582166,-0.022045,-6.438133,3.446467,-1.328717,7.486747,13.168081,8.108903,18.957031,83.360341,-55.938723,0.701986,-0.198987,0.636967,-0.248783,1306.406982,87042.554688,-0.600817,0.189045,0.696777,-0.050293,0.012149,12.750000,17.597496,0,0.000000,0," 202"
1525," 101",44061,44060,1,1,-6.478786,6.698925,-1.357572,0.289202,0.165471,-0.389185,-6.438133,2.004889,-0.367666,-0.357623,-16.287979,-0.342745,74.560572,79.623053,-119.462085,0.643031,-0.205463,0.658642,-0.332397,1306.684082,87045.656250,0.326589,0.378047,0.696777,0.226807,0.107033,12.750000,17.647272,0,0.000000,0," 202"
1526," 101",46144,46114,1,1,-7.145072,6.351892,2.385019,2.318144,0.066680,-0.224537,-8.360237,1.524364,4.918118,-3.314333,-17.460042,-20.398845,167.192772,91.897743,143.589100,0.654255,-0.292021,0.631330,-0.296811,1306.716064,87042.828125,-0.356224,-0.027145,0.696777,0.258789,0.335126,12.750000,17.701574,0,0.000000,0," 202"
1527," 101",48229,48207,1,1,-0.764844,3.044016,8.001977,-0.478967,0.246828,-1.222403,0.769756,-0.878266,6.359696,38.763591,37.148958,25.852853,104.865896,169.468236,-155.112790,0.792857,-0.561764,0.214766,0.098359,1306.872925,87042.921875,0.332330,-0.001199,0.696777,0.415649,0.417569,12.750000,17.755875,0,0.000000,0," 202"
1528," 101",50324,50303,1,1,0.853482,-0.178347,9.898726,0.898920,-0.230315,0.092630,3.172385,-5.683524,10.203903,1.146428,-5.303124,-14.848751,90.455146,179.766672,-178.217640,0.709845,-0.704184,0.012399,0.009608,1307.054565,87043.921875,1.834646,0.304544,0.793091,0.597290,0.421434,12.875000,17.814701,0,0.000000,0," 202"
1529," 101",52419,52403,1,1,0.231042,-0.094300,9.941237,0.016173,-0.017556,0.143340,-0.191296,-5.202998,10.203903,-0.237820,0.350973,0.181348,89.574113,-178.755299,-179.300361,0.703799,-0.710278,-0.003829,0.012528,1307.047119,87036.125000,0.093287,0.008283,0.812134,0.589844,0.524006,12.875000,17.873526,0,0.000000,0," 202"
1530," 101",54516,54504,1,1,0.210288,-0.071356,9.946531,0.008609,-0.001249,0.148006,-0.671822,-4.722473,8.762325,0.310451,0.239538,0.003505,89.606167,-178.835103,-179.531563,0.704601,-0.709520,-0.004263,0.010093,1307.158691,87040.945312,0.606692,0.374732,0.983887,0.701416,0.753926,13.000000,17.936874,0,0.000000,0," 202"
1531," 101",56624,56614,1,1,0.201643,-0.096740,9.945500,-0.019763,0.001624,0.146995,-0.191296,-4.722473,9.242851,-0.649704,0.438046,-0.074338,89.432086,-178.725328,179.931935,0.703555,-0.710554,-0.008248,0.007486,1307.352539,87035.843750,0.703460,-0.113683,0.983887,0.895264,0.723981,13.125000,18.009272,0,0.000000,0," 202"
1532," 101",58735,58728,1,1,0.195331,-0.099412,9.932465,-0.001724,-0.030169,0.133837,0.769756,-6.164050,9.242851,0.498619,0.961660,0.546636,89.593565,-178.867068,179.638961,0.704579,-0.709550,-0.009202,0.004796,1307.322998,87034.726562,-0.391998,-0.157440,1.142334,0.865723,0.827636,13.125000,18.077143,0,0.000000,0," 202"
1533," 101",60913,60896,1,1,0.207816,-0.068290,9.935272,-0.013087,0.012458,0.136664,0.289230,-5.202998,8.762325,0.248146,-1.261543,0.224211,89.521520,-178.730587,179.380958,0.704137,-0.709957,-0.011636,0.004062,1307.170288,87035.554688,-0.125825,-0.072197,1.142334,0.713013,0.663174,13.250000,18.145014,0,0.000000,0," 202"
1534," 101",63026,63008,1,1,0.232618,-0.086149,9.932361,0.036556,-0.001050,0.134390,-1.152348,-5.202998,8.762325,-0.193946,0.674915,0.211573,89.489043,-178.876835,179.134921,0.703908,-0.710158,-0.013437,0.002813,1307.156860,87038.257812,-0.321752,-0.052425,1.142334,0.699585,0.673703,13.375000,18.217409,0,0.000000,0," 202"
1535," 101",65158,65129,1,1,0.204248,-0.100774,9.948304,0.006340,-0.028421,0.149868,-1.152348,-5.683524,9.723377,0.329354,0.436530,-0.786647,89.561593,-178.871344,178.932802,0.703484,-0.710578,-0.013750,0.000650,1306.949463,87038.328125,-0.637966,-0.217892,1.142334,0.492188,0.612465,13.250000,18.271704,0,0.000000,0," 202"
1536," 101",67303,67288,1,1,0.206644,-0.084883,9.947414,-0.008545,-0.000596,0.148919,0.769756,-4.722473,10.203903,0.413728,0.074652,0.526634,89.482199,-178.774560,178.429225,0.703902,-0.710084,-0.017262,-0.002053,1307.116089,87037.109375,0.195355,0.118225,1.142334,0.658813,0.609955,13.375000,18.344095,0,0.000000,0," 202"
1537," 101",69448,69416,1,1,0.204742,-0.111427,9.939597,-0.029164,-0.013234,0.141278,0.289230,-5.683524,9.723377,-0.668993,-0.184887,-0.563155,89.402272,-178.669771,178.441971,0.702981,-0.711005,-0.016891,-0.002230,1307.017334,87039.726562,0.270422,-0.116250,1.142334,0.560059,0.528221,13.375000,18.421011,0,0.000000,0," 202"
1538," 101",71593,71582,1,1,0.211282,-0.097692,9.949210,-0.017051,-0.010835,0.150912,-0.191296,-4.241947,8.762325,0.164310,-0.993564,-0.035349,89.459181,-178.704960,178.065176,0.703401,-0.710515,-0.019401,-0.004387,1306.772461,87042.492188,-0.233281,-0.178827,1.142334,0.315186,0.414246,13.500000,18.488876,0,0.000000,0," 202"
1539," 101",73738,73711,1,1,0.203782,-0.100673,9.955261,-0.003756,-0.007097,0.156852,0.289230,-5.683524,9.242851,-0.061738,-0.408665,-0.545057,89.415010,-178.829884,177.701387,0.703226,-0.710612,-0.021318,-0.006967,1306.943604,87040.437500,0.296745,0.154222,1.142334,0.486328,0.434481,13.500000,18.552216,0,0.000000,0," 202"
1540," 101",75883,75874,1,1,0.206601,-0.070884,9.953249,-0.006638,0.016846,0.154629,-0.191296,-4.722473,9.242851,-0.227710,-0.291965,-1.118428,89.434982,-178.795023,177.076424,0.703534,-0.710125,-0.025522,-0.010479,1306.658081,87043.945312,0.209971,0.055323,1.142334,0.200806,0.296250,13.625000,18.633652,0,0.000000,0," 202"
1541," 101",78110,78068,1,1,0.211814,-0.092702,9.950588,-0.002858,0.014431,0.149007,-1.152348,-5.202998,9.242851,0.942835,-2.767944,0.318163,89.378305,-178.816757,176.610182,0.703132,-0.710369,-0.028285,-0.013462,1306.623291,87041.578125,-0.268419,-0.092279,1.142334,0.166016,0.157527,13.625000,18.715086,0,0.000000,0," 202"
1542," 101",80253,80247,1,1,0.203123,-0.105672,9.941020,0.025106,-0.018797,0.142607,-1.152348,-5.202998,8.762325,-0.258410,1.043505,0.121449,89.424894,-179.015993,176.287182,0.703352,-0.710052,-0.029059,-0.016691,1306.600708,87044.554688,-0.429595,0.022944,1.142334,0.143433,0.179649,13.750000,18.769375,0,0.000000,0," 202"
1543," 101",82453,82434,1,1,0.208046,-0.081281,9.940017,-0.007151,0.028145,0.141484,-0.191296,-6.164050,10.203903,-0.086298,-0.577539,0.108610,89.276016,-178.800569,175.462369,0.703229,-0.709788,-0.035260,-0.020645,1306.681641,87045.265625,0.549318,0.264842,1.142334,0.224365,0.188345,13.875000,18.841759,0,0.000000,0," 202"
1544," 101",84534,84531,1,1,0.205436,-0.086906,9.933348,-0.005077,0.000464,0.134851,0.289230,-6.164050,9.723377,-0.109960,-0.151402,-0.300738,89.394786,-178.834133,174.998176,0.702972,-0.709805,-0.038165,-0.023465,1306.452026,87044.328125,-0.464694,-0.162014,1.142334,-0.005249,0.060226,13.875000,18.896046,0,0.000000,0," 202"
1545," 101",86613,86585,1,1,0.203104,-0.104959,9.947994,0.006180,-0.013936,0.149609,-0.671822,-5.202998,9.723377,0.041987,1.973673,0.006888,89.366817,-178.929113,174.512959,0.702670,-0.709843,-0.040595,-0.027020,1306.897827,87038.492188,0.027465,0.181927,1.142334,0.440552,0.373158,13.875000,18.950331,0,0.000000,0," 202"
1546," 101",88702,88682,1,1,0.211913,-0.081715,9.940721,0.004324,0.010628,0.142308,0.769756,-5.202998,9.242851,0.138579,-1.068698,-0.056700,89.347139,-178.857396,174.211679,0.702840,-0.709481,-0.043030,-0.028299,1306.687012,87046.281250,-0.415184,-0.101918,1.142334,0.229736,0.345218,14.000000,19.009142,0,0.000000,0," 202"
1547," 101",90798,90784,1,1,0.210284,-0.084459,9.949162,0.008547,0.015549,0.150727,0.769756,-5.202998,10.684429,-0.273541,1.309206,-0.437239,89.302251,-178.894839,174.095621,0.702176,-0.710073,-0.043406,-0.029342,1306.713501,87043.140625,-0.569339,0.039886,1.142334,0.256226,0.430128,14.000000,19.076998,0,0.000000,0," 202"
1548," 101",92895,92886,1,1,0.210564,-0.107497,9.931704,-0.001863,-0.005451,0.133515,-0.191296,-3.761421,10.203903,-0.148357,-0.449458,0.125173,89.291746,-178.843654,174.192200,0.701971,-0.710332,-0.043071,-0.028477,1306.754517,87041.953125,-0.915524,-0.209137,1.142334,0.297241,0.420172,14.125000,19.144852,0,0.000000,0," 202"
1549," 101",95069,95051,1,1,0.209988,-0.090599,9.925716,-0.012236,-0.002137,0.127343,-1.632874,-5.202998,8.281800,-0.089283,-1.523398,-0.303857,89.368668,-178.777019,174.149333,0.702631,-0.709642,-0.043778,-0.028307,1307.072754,87039.039062,0.502855,0.201146,1.142334,0.615479,0.557729,14.125000,19.199135,0,0.000000,0," 202"
1550," 101",97170,97155,1,1,0.215279,-0.100495,9.950410,0.015651,-0.017154,0.152219,0.289230,-5.202998,9.723377,0.986536,0.996502,-0.061873,89.381379,-178.925534,173.387876,0.702462,-0.709319,-0.047580,-0.033901,1307.442871,87033.843750,0.921924,0.157253,1.142334,0.985596,0.728437,14.250000,19.271513,0,0.000000,0," 202"
1551," 101",99269,99257,1,1,0.196568,-0.094803,9.946184,-0.005753,-0.002054,0.147576,-0.671822,-5.683524,9.723377,-0.540848,-0.806174,-0.332367,89.333308,-178.908746,173.074931,0.702075,-0.709474,-0.049634,-0.035695,1307.196533,87034.843750,0.262484,-0.133988,1.142334,0.739258,0.680752,14.250000,19.325794,0,0.000000,0," 202"
1552," 101",101379,101367,1,1,0.229246,-0.100171,9.927572,0.010927,0.002042,0.129718,-0.191296,-5.202998,9.242851,0.702524,-0.831710,0.954439,89.259050,-178.817153,173.261176,0.701700,-0.709970,-0.049064,-0.033954,1306.902222,87041.718750,-0.720110,-0.278249,1.142334,0.444946,0.599375,14.375000,19.380075,0,0.000000,0," 202"
1553," 101",103490,103478,1,1,0.218697,-0.096517,9.935761,-0.003329,0.001011,0.137636,-1.152348,-5.202998,9.242851,-0.229046,0.708998,-0.463039,89.282887,-178.800269,172.741085,0.701719,-0.709562,-0.052272,-0.037153,1306.932983,87041.570312,0.581804,0.026198,1.142334,0.475708,0.468464,14.375000,19.443403,0,0.000000,0," 202"
1554," 101",105608,105593,1,1,0.207282,-0.097501,9.932690,-0.003507,-0.018713,0.134312,-0.671822,-4.722473,8.762325,0.725423,-0.008609,-0.010395,89.399444,-178.864650,172.759130,0.702398,-0.708909,-0.051838,-0.037386,1306.940552,87039.546875,-0.217201,-0.181347,1.142334,0.483276,0.471622,14.500000,19.502205,0,0.000000,0," 202"
1555," 101",107741,107717,1,1,0.213755,-0.088223,9.943666,-0.019174,-0.010569,0.145331,-0.191296,-3.761421,9.723377,-0.394766,-0.892177,-0.471322,89.404239,-178.730382,172.893904,0.702514,-0.708881,-0.051824,-0.035730,1306.869629,87044.289062,-0.173390,-0.172319,1.142334,0.412354,0.548170,14.500000,19.565531,0,0.000000,0," 202"
1556," 101",109874,109839,1,1,0.198987,-0.111462,9.942636,-0.021791,-0.012220,0.144220,-0.191296,-4.241947,9.242851,-0.016789,-0.897310,0.711645,89.284868,-178.820937,172.542695,0.701201,-0.709932,-0.052804,-0.039051,1307.175293,87036.531250,0.166585,0.152487,1.142334,0.718018,0.609118,14.500000,19.615286,0,0.000000,0," 202"
1557," 101",112240,112234,1,1,0.197845,-0.094158,9.932880,-0.011424,-0.035695,0.134226,0.289230,-3.761421,9.242851,0.190512,-0.389104,-0.070254,89.511617,-178.878201,172.124114,0.702868,-0.707930,-0.055642,-0.041416,1307.095215,87040.054688,0.210285,0.158499,1.142334,0.637939,0.651626,14.625000,19.692179,0,0.000000,0," 202"
1558," 101",114372,114361,1,1,0.208507,-0.105524,9.944095,-0.007864,0.002735,0.145837,-0.191296,-4.241947,8.762325,-0.335916,-1.699997,0.232015,89.208267,-178.854596,171.642490,0.700821,-0.709536,-0.058878,-0.044068,1307.154541,87042.007812,0.058738,0.225391,1.142334,0.697266,0.754101,14.750000,19.746454,0,0.000000,0," 202"
1559," 101",116512,116488,1,1,0.184617,-0.068612,9.945548,-0.028585,0.019261,0.146438,-0.191296,-6.164050,10.684429,0.687534,-1.328560,-0.430243,89.334483,-178.845621,171.122221,0.701398,-0.708484,-0.062102,-0.047263,1307.115356,87036.203125,0.443137,-0.216766,1.142334,0.658081,0.517142,14.750000,19.796207,0,0.000000,0," 202"
1560," 101",118659,118621,1,1,0.206242,-0.057086,9.948412,0.039710,0.048210,0.149517,-1.632874,-5.683524,8.762325,-0.653097,1.831693,-0.436973,89.204094,-179.110673,170.596856,0.701884,-0.707493,-0.064949,-0.050927,1307.003296,87039.960938,0.106899,0.104256,1.142334,0.546021,0.559507,14.875000,19.859529,0,0.000000,0," 202"
1561," 101",120808,120801,1,1,0.218157,-0.079116,9.946285,0.044644,0.038140,0.147819,-0.671822,-4.722473,9.242851,-0.625825,2.736048,-0.273248,89.116982,-179.096794,170.173999,0.699518,-0.709421,-0.066532,-0.054493,1307.150635,87040.765625,0.602316,0.084264,1.142334,0.693359,0.546243,14.750000,19.922850,0,0.000000,0," 202"
1562," 101",122958,122940,1,1,0.216386,-0.070671,9.931845,0.002396,0.014961,0.133441,-1.152348,-4.722473,8.281800,0.218734,0.615852,-0.978585,89.289895,-178.858489,169.717702,0.700970,-0.707468,-0.070763,-0.055880,1306.919800,87039.859375,-0.018995,-0.263631,1.142334,0.462524,0.494591,14.875000,19.972601,0,0.000000,0," 202"
1563," 101",125037,125031,1,1,0.202838,-0.093706,9.945320,-0.025542,0.003383,0.146796,-0.671822,-5.683524,9.242851,0.309482,-0.266495,0.039357,89.230561,-178.806908,169.152599,0.699861,-0.707922,-0.074559,-0.059004,1307.097900,87040.906250,0.259495,0.166669,1.142334,0.640625,0.677151,14.875000,20.022350,0,0.000000,0," 202"
1564," 101",127121,127084,1,1,0.222977,-0.136834,9.942710,0.010931,-0.053312,0.145002,-1.152348,-4.722473,9.242851,0.617727,0.648249,-0.642920,89.283038,-178.957008,168.733157,0.699882,-0.707424,-0.076207,-0.062529,1307.022705,87039.992188,-0.020318,0.150047,1.142334,0.565430,0.633964,15.000000,20.072100,0,0.000000,0," 202"
1565," 101",129276,129235,1,1,0.198469,-0.102633,9.946126,0.013331,-0.011172,0.147930,-0.191296,-2.800369,9.723377,-0.223562,0.120236,-0.800129,89.218007,-178.936695,168.485372,0.699355,-0.707640,-0.077896,-0.063872,1307.218506,87034.984375,0.396740,0.258277,1.142334,0.761230,0.611954,15.000000,20.130896,0,0.000000,0," 202"
1566," 101",131363,131334,1,1,0.185891,-0.090596,9.950617,-0.008933,0.036313,0.151695,0.289230,-3.761421,9.723377,-0.113532,0.571787,-1.021151,89.061466,-179.007674,168.193135,0.698181,-0.708443,-0.079359,-0.065986,1307.231567,87037.007812,-0.395454,0.136733,1.142334,0.774292,0.799617,15.125000,20.180643,0,0.000000,0," 202"
1567," 101",133460,133433,1,1,0.212924,-0.092142,9.950637,0.017498,-0.016885,0.152311,-0.191296,-5.683524,9.723377,0.390883,0.716898,-0.335284,89.319483,-179.014832,167.787463,0.699532,-0.706589,-0.081668,-0.068686,1307.053955,87042.703125,-0.255758,0.088118,1.142334,0.596680,0.798584,15.125000,20.243959,0,0.000000,0," 202"
1568," 101",135565,135538,1,1,0.198476,-0.073184,9.955314,0.018351,0.068381,0.156309,-0.191296,-6.164050,8.762325,-0.507295,-0.205553,-0.192774,88.951323,-179.079664,167.673658,0.699394,-0.706571,-0.082571,-0.069193,1307.120483,87039.898438,-0.082336,-0.095122,1.142334,0.663208,0.726642,15.250000,20.289185,0,0.000000,0," 202"
1569," 101",137670,137644,1,1,0.182410,-0.124264,9.946888,-0.057623,-0.044089,0.148072,-0.191296,-5.202998,10.203903,-0.178048,1.011950,-0.161224,89.327762,-178.797386,167.494694,0.697947,-0.707781,-0.083089,-0.070790,1307.154541,87037.906250,0.175247,0.031452,1.142334,0.697266,0.708061,15.250000,20.343452,0,0.000000,0," 202"
1570," 101",139778,139757,1,1,0.199543,-0.128153,9.945066,-0.028173,-0.038949,0.146777,0.289230,-3.761421,9.723377,-0.092671,0.705455,-0.651055,89.250963,-178.879239,167.264147,0.697537,-0.707866,-0.084987,-0.071731,1307.115479,87039.835938,0.141379,0.050781,1.142334,0.658203,0.641659,15.375000,20.397722,0,0.000000,0," 202"
1571," 101",141919,141911,1,1,0.215100,-0.079850,9.950886,-0.001923,0.001738,0.152530,0.289230,-5.202998,10.684429,-0.097133,-0.868128,-0.430918,89.262684,-178.886315,166.953374,0.698747,-0.706225,-0.087628,-0.072939,1306.919312,87041.937500,-0.202564,-0.311520,1.142334,0.462036,0.478033,15.375000,20.442945,0,0.000000,0," 202"
1572," 101",144064,144063,1,1,0.204820,-0.084014,9.951887,0.003322,0.032813,0.153295,-0.671822,-4.241947,9.242851,-0.165019,-0.213593,-0.230905,89.074601,-178.979151,166.992483,0.697551,-0.707471,-0.086942,-0.073131,1307.078247,87043.867188,0.188238,0.037494,1.142334,0.620972,0.666318,15.375000,20.497211,0,0.000000,0," 202"
1573," 101",146266,146248,1,1,0.200558,-0.108853,9.940242,0.000621,-0.015448,0.141849,-1.152348,-4.241947,8.762325,-0.698345,0.322161,0.060152,89.216177,-179.019887,166.904360,0.698342,-0.706572,-0.087147,-0.074027,1307.177246,87038.828125,0.371292,0.163773,1.142334,0.719971,0.785931,15.375000,20.556002,0,0.000000,0," 202"
1574," 101",148386,148364,1,1,0.193799,-0.128950,9.932222,-0.017815,-0.004154,0.133933,-0.191296,-5.683524,9.242851,0.366174,0.608542,0.326188,89.042506,-178.981077,166.664552,0.697140,-0.707416,-0.088975,-0.075114,1307.186523,87036.007812,0.138761,0.069602,1.142334,0.729248,0.661389,15.500000,20.601223,0,0.000000,0," 202"
1575," 101",150512,150487,1,1,0.196414,-0.083665,9.935580,-0.009838,0.017636,0.136853,-0.191296,-5.202998,9.723377,0.284644,-0.514533,0.616587,89.160101,-178.958210,166.221164,0.698114,-0.705816,-0.091394,-0.078148,1307.126465,87039.000000,-0.167041,0.058574,1.142334,0.669189,0.746196,15.500000,20.650967,0,0.000000,0," 202"
1576," 101",152647,152613,1,1,0.198555,-0.089116,9.932265,-0.002048,-0.025577,0.148310,-0.191296,-3.761421,9.723377,0.436867,0.172388,-0.067062,89.245362,-178.949481,165.987927,0.697957,-0.705619,-0.093202,-0.079199,1306.887695,87040.914062,-0.794725,-0.075739,1.142334,0.430420,0.571789,15.625000,20.705231,0,0.000000,0," 202"
1577," 101",154788,154778,1,1,0.218193,-0.095234,9.949703,0.020516,-0.027972,0.151491,0.289230,-5.202998,9.723377,-0.181835,0.263924,0.051701,89.323342,-179.033164,165.904448,0.697501,-0.705939,-0.093909,-0.079522,1307.269531,87038.093750,0.413308,0.332031,1.142334,0.812256,0.808072,15.625000,20.750450,0,0.000000,0," 202"
1578," 101",156933,156912,1,1,0.217704,-0.104785,9.948256,-0.000631,-0.011518,0.150182,-0.671822,-4.241947,9.723377,-0.603812,-0.573196,-0.385313,89.169629,-178.932597,165.569673,0.696839,-0.706086,-0.095956,-0.081548,1307.046631,87039.023438,0.227358,-0.124397,1.142334,0.589355,0.593397,15.625000,20.804714,0,0.000000,0," 202"
1579," 101",159085,159084,1,1,0.211983,-0.065263,9.938142,-0.000068,0.018068,0.139600,-0.671822,-4.722473,8.762325,-0.692774,-0.669649,-0.280896,89.214551,-178.917707,164.909003,0.697015,-0.704870,-0.100058,-0.085544,1307.267822,87034.226562,0.598318,-0.063673,1.142334,0.810547,0.625490,15.625000,20.849934,0,0.000000,0," 202"
1580," 101",161230,161219,1,1,0.205305,-0.090616,9.950013,0.013728,0.004673,0.151533,-0.191296,-3.761421,9.723377,0.526504,0.528270,0.152734,89.161173,-179.073954,164.879961,0.696545,-0.705303,-0.099329,-0.086638,1307.012207,87040.875000,-0.437192,-0.083929,1.142334,0.554932,0.670785,15.750000,20.913239,0,0.000000,0," 202"
1581," 101",163522,163514,1,1,0.186809,-0.098983,9.935188,0.005403,-0.026639,0.136400,-0.191296,-5.683524,8.762325,-0.074516,0.933587,-0.719222,89.316096,-179.145343,164.520228,0.696338,-0.704924,-0.101269,-0.089108,1306.916138,87040.906250,-1.219737,-0.239401,1.142334,0.458862,0.569487,15.875000,20.962978,0,0.000000,0," 202"
1582," 101",165728,165704,1,1,0.208584,-0.120915,9.949122,0.002948,-0.022903,0.151016,-0.191296,-5.202998,10.203903,0.238892,-0.605182,-0.257324,89.134365,-179.051497,164.161780,0.695123,-0.705516,-0.104092,-0.090639,1306.930664,87040.929688,0.307548,-0.074780,1.142334,0.473389,0.421153,15.875000,21.012718,0,0.000000,0," 202"
1583," 101",167812,167795,1,1,0.217477,-0.092604,9.932865,0.002089,0.014010,0.134667,0.289230,-3.761421,9.723377,0.070095,-1.852475,-0.385806,89.053024,-178.959357,163.612332,0.694975,-0.704711,-0.107907,-0.093530,1306.848389,87041.125000,0.736145,-0.039022,1.142334,0.391113,0.374454,16.000000,21.053413,0,0.000000,0," 202"
1584," 101",169895,169888,1,1,0.216749,-0.100393,9.931189,-0.000414,-0.034283,0.133002,0.289230,-4.241947,9.723377,1.057404,-0.232702,-0.075077,89.284431,-178.965901,163.332281,0.696160,-0.703047,-0.109397,-0.095490,1307.001587,87040.164062,0.492832,0.137303,1.142334,0.544312,0.378637,16.000000,21.103151,0,0.000000,0," 202"
1585," 101",171983,171944,1,1,0.211657,-0.088799,9.958840,-0.013968,0.010777,0.160469,-0.191296,-5.683524,10.684429,0.021652,-1.751031,-0.308425,89.097625,-178.901301,163.225593,0.694979,-0.704018,-0.110598,-0.095560,1306.906982,87037.492188,-0.436683,-0.026361,1.142334,0.449707,0.433061,16.125000,21.139324,0,0.000000,0," 202"
1586," 101",174090,174090,1,1,0.213020,-0.056698,9.943847,0.016071,0.049914,0.145151,-0.671822,-4.722473,8.281800,-0.202579,-1.391602,-0.173340,89.043202,-179.013289,163.098866,0.696101,-0.702681,-0.111039,-0.096711,1306.824097,87038.500000,-0.485574,-0.251993,1.142334,0.366821,0.378614,16.125000,21.189062,0,0.000000,0," 202"
1587," 101",176189,176159,1,1,0.204536,-0.114503,9.934256,-0.007677,-0.043889,0.135921,1.250281,-4.241947,9.723377,0.786098,-0.051803,0.005640,89.271194,-179.026717,162.652417,0.695446,-0.702526,-0.113209,-0.099979,1307.063843,87038.687500,0.536707,-0.026344,1.142334,0.606567,0.516284,16.125000,21.229755,0,0.000000,0," 202"
1588," 101",178295,178264,1,1,0.206561,-0.103589,9.941513,0.001643,-0.012709,0.143190,-0.191296,-5.202998,9.242851,0.257778,1.084878,0.265578,89.142015,-179.057657,162.256389,0.693880,-0.703335,-0.115676,-0.102324,1306.903931,87043.531250,-0.630023,-0.054137,1.142334,0.446655,0.526925,16.250000,21.284014,0,0.000000,0," 202"
1589," 101",180470,180469,1,1,0.205769,-0.101818,9.938026,-0.004629,-0.011378,0.139670,0.289230,-4.722473,10.203903,-0.729850,0.535157,-0.350986,89.143326,-179.024190,162.145754,0.694216,-0.702791,-0.116444,-0.102907,1307.092407,87036.742188,0.978108,0.056911,1.142334,0.635132,0.513640,16.250000,21.329227,0,0.000000,0," 202"
1590," 101",182577,182541,1,1,0.208583,-0.084474,9.938718,-0.004307,0.010322,0.140259,0.289230,-4.241947,11.164955,-0.818578,-0.411422,-1.117025,89.096553,-178.990134,161.454361,0.693328,-0.702323,-0.120932,-0.106836,1307.047729,87037.828125,0.267654,-0.019457,1.142334,0.590454,0.530396,16.250000,21.374441,0,0.000000,0," 202"
1591," 101",184697,184661,1,1,0.218899,-0.077836,9.947040,0.008977,0.013720,0.148739,0.289230,-5.202998,10.203903,0.332692,-0.567403,0.875085,89.092803,-179.000830,161.329259,0.693178,-0.702225,-0.121637,-0.107654,1307.106079,87041.765625,0.055552,-0.006156,1.142334,0.648804,0.660142,16.250000,21.424175,0,0.000000,0," 202"
1592," 101",186809,186774,1,1,0.218249,-0.085056,9.943168,0.038247,0.012178,0.144845,-0.191296,-4.722473,9.242851,0.014538,0.100241,0.093234,89.062088,-179.186789,161.272309,0.693331,-0.701952,-0.122049,-0.107976,1306.899902,87042.757812,-0.572421,-0.353480,1.142334,0.442627,0.578842,16.250000,21.473909,0,0.000000,0," 202"
1593," 101",188930,188891,1,1,0.235956,-0.098577,9.945768,0.007324,0.028505,0.148012,-0.191296,-4.722473,10.203903,-0.120832,-0.039466,0.035720,88.851738,-178.946325,160.744991,0.691196,-0.702992,-0.125778,-0.110588,1307.212036,87033.367188,0.254839,-0.104315,1.142334,0.754761,0.537784,16.375000,21.501036,0,0.000000,0," 202"
1594," 101",191058,191016,1,1,0.256824,-0.116073,9.962770,-0.128302,0.062048,0.139899,0.289230,-4.722473,10.684429,-0.539655,0.250299,0.690663,88.744744,-178.650646,160.747163,0.690831,-0.703319,-0.127643,-0.108636,1307.085327,87039.359375,-0.434571,0.140414,1.142334,0.628052,0.762716,16.375000,21.546247,0,0.000000,0," 202"
1595," 101",193190,193188,1,1,0.477650,0.355149,9.969166,0.480061,0.559117,0.158693,-1.152348,-8.086153,10.684429,1.660175,-2.338963,-30.875983,87.919575,-179.531468,162.714996,0.686708,-0.711221,-0.110973,-0.101399,1307.092163,87044.101562,-0.424957,0.033830,1.142334,0.634888,0.746800,16.375000,21.605022,0,0.000000,0," 202"
1596," 101",195325,195318,1,1,0.216535,-0.211980,9.951911,-0.067113,-0.146705,0.154216,-1.152348,-4.722473,9.242851,-0.193348,0.308319,0.090585,89.286856,-178.828546,161.137946,0.689358,-0.705624,-0.122253,-0.109246,1307.146118,87041.593750,0.195569,0.080962,1.142334,0.688843,0.722431,16.500000,21.632151,0,0.000000,0," 202"
1597," 101",197538,197508,1,1,0.209945,-0.083748,9.945639,0.013970,0.009121,0.147193,0.769756,-3.761421,9.242851,0.692089,-1.087665,-0.159733,89.095426,-179.096043,160.866787,0.692660,-0.701814,-0.123894,-0.111038,1306.998291,87041.593750,-0.413181,-0.115783,1.142334,0.541016,0.662560,16.625000,21.681881,0,0.000000,0," 202"
1598," 101",199679,199637,1,1,0.203495,-0.074972,9.947401,0.000206,-0.006879,0.141726,-0.191296,-5.202998,9.723377,-0.351734,0.289528,-0.800866,89.233888,-179.070853,160.507492,0.692964,-0.700772,-0.126151,-0.113162,1306.906372,87045.796875,-0.415530,-0.254093,1.142334,0.449097,0.668160,16.625000,21.718050,0,0.000000,0," 202"
1599," 101",201820,201814,1,1,0.155851,-0.099691,9.942185,-0.020303,-0.021378,0.142863,0.289230,-4.722473,9.242851,-0.055994,-0.531805,-0.188017,89.278892,-179.232087,160.233629,0.693019,-0.700159,-0.126765,-0.115901,1307.207397,87038.273438,-0.779568,-0.086856,1.142334,0.750122,0.879583,16.625000,21.749697,0,0.000000,0," 202"
1600," 101",204057,204041,1,1,0.307511,0.280422,9.849250,0.105400,0.367991,0.049604,0.769756,-2.319843,9.723377,4.561231,-2.443811,-21.525947,88.819131,-178.390990,160.981685,0.691756,-0.702847,-0.127694,-0.105704,1307.434082,87036.023438,-0.385586,0.135121,1.142334,0.976807,1.019794,16.625000,21.812988,0,0.000000,0," 202"
1601," 101",206263,206229,1,1,0.159314,-0.069867,9.935004,0.024445,0.025952,0.135463,-0.191296,-4.241947,10.203903,-0.094029,0.401101,0.007120,89.183167,-179.391845,161.988796,0.693976,-0.702758,-0.115149,-0.106158,1307.696045,87030.640625,0.538715,0.210146,1.238770,1.238770,1.080682,16.625000,21.835594,0,0.000000,0," 202"
1602," 101",208351,208325,1,1,0.201075,-0.066643,9.945939,0.015252,0.008739,0.147179,-0.191296,-5.683524,10.684429,-0.036745,1.023904,0.004075,89.222276,-179.108242,161.739180,0.694251,-0.701981,-0.118357,-0.105968,1307.604370,87031.703125,0.306719,-0.045710,1.238770,1.147095,1.107440,16.750000,21.880802,0,0.000000,0," 202"
1603," 101",210445,210424,1,1,0.104726,-0.032095,9.948628,-0.097703,0.156959,0.146513,-1.152348,-5.202998,10.203903,1.210286,1.080508,0.482012,88.736131,-178.919251,162.252851,0.691905,-0.705258,-0.116782,-0.101199,1307.650391,87031.960938,0.094788,-0.123804,1.331787,1.193115,1.136840,16.750000,21.916969,0,0.000000,0," 202"
1604," 101",212538,212522,1,1,0.156473,-0.092841,9.951728,-0.015583,-0.024158,0.152349,0.289230,-4.241947,9.723377,0.586282,1.525388,0.097474,89.354263,-179.216637,162.152024,0.695338,-0.701711,-0.115051,-0.104265,1307.622192,87031.851562,0.402825,-0.014762,1.331787,1.164917,1.049822,16.750000,21.971218,0,0.000000,0," 202"
1605," 101",214704,214677,1,1,0.144154,-0.136158,9.936490,-0.091229,-0.063578,0.136846,0.289230,-5.683524,11.164955,-0.005323,1.066294,-0.216317,89.361421,-178.929154,161.823929,0.692889,-0.703525,-0.116196,-0.107028,1307.403442,87036.851562,-0.237084,0.145476,1.331787,0.946167,0.959348,16.875000,22.016424,0,0.000000,0," 202"
1606," 101",216802,216775,1,1,-0.115700,0.239003,9.980456,0.114098,-0.014136,0.182326,-0.671822,-3.761421,10.203903,-0.350715,-0.685822,-1.727378,91.593895,179.159250,161.167070,0.706539,-0.688532,-0.112495,-0.118627,1307.118896,87036.023438,-0.835215,-0.486168,1.331787,0.661621,0.793924,17.000000,22.057110,0,0.000000,0," 202"
1607," 101",218903,218879,1,1,0.215680,-0.094686,9.942163,0.028688,-0.019227,0.143892,-0.191296,-4.722473,10.203903,-0.292267,0.372162,0.212280,89.185516,-179.172350,160.719515,0.692527,-0.701632,-0.125256,-0.111487,1307.164551,87038.960938,-1.064219,-0.193056,1.331787,0.707275,0.855714,17.000000,22.106838,0,0.000000,0," 202"
1608," 101",221014,220987,1,1,0.204011,-0.099694,9.938059,0.008071,-0.019568,0.139630,-0.671822,-3.280895,9.242851,0.487944,1.048318,0.946425,89.176767,-179.131587,160.387636,0.692072,-0.701404,-0.126890,-0.113876,1307.324341,87037.515625,-0.548783,-0.061535,1.331787,0.867065,0.961486,17.000000,22.129440,0,0.000000,0," 202"
1609," 101",223124,223092,1,1,0.205574,-0.093174,9.951793,-0.004365,-0.009757,0.153346,-0.191296,-5.202998,10.203903,-0.838295,0.204555,-0.963984,89.148947,-179.044789,160.091137,0.692272,-0.700579,-0.128896,-0.115470,1307.215332,87038.382812,-0.313772,-0.225839,1.331787,0.758057,0.889551,17.000000,22.183687,0,0.000000,0," 202"
1610," 101",225241,225209,1,1,0.210556,-0.095766,9.945693,0.011497,0.005561,0.147374,0.289230,-5.202998,9.242851,0.048690,-0.621590,0.057389,89.031468,-179.118542,159.792959,0.691174,-0.701033,-0.130395,-0.117589,1307.458740,87032.718750,0.006441,0.074246,1.331787,1.001465,0.972227,17.000000,22.219851,0,0.000000,0," 202"
1611," 101",227361,227330,1,1,0.198397,-0.091554,9.949381,0.010823,-0.003844,0.150773,-0.191296,-5.202998,9.723377,0.078131,0.268170,0.139564,89.131291,-179.173907,159.689932,0.691557,-0.700432,-0.130953,-0.118303,1307.550903,87030.007812,0.370478,0.073831,1.331787,1.093628,1.007686,17.000000,22.256014,0,0.000000,0," 202"
1612," 101",229506,229489,1,1,0.207232,-0.074952,9.956384,0.019329,0.015655,0.157791,-0.671822,-4.241947,10.684429,-1.066568,0.518234,-0.786727,89.083384,-179.149674,159.198650,0.690839,-0.700071,-0.133787,-0.121424,1307.321289,87038.046875,-0.437578,0.076729,1.331787,0.864014,0.995636,17.125000,22.296698,0,0.000000,0," 202"
1613," 101",231701,231662,1,1,0.218788,-0.091966,9.953906,0.016873,-0.023737,0.155692,0.289230,-2.319843,9.723377,0.279548,-0.957734,0.480835,89.184334,-179.117913,158.594165,0.690840,-0.698709,-0.137559,-0.124993,1307.564209,87032.468750,-0.231740,0.118242,1.331787,1.106934,1.028982,17.125000,22.328341,0,0.000000,0," 202"
1614," 101",233828,233788,1,1,0.199863,-0.091955,9.935332,-0.005725,0.029173,0.139787,-1.152348,-4.722473,9.723377,0.397659,0.001992,-0.118633,89.037629,-179.150999,158.155571,0.689425,-0.699101,-0.140197,-0.127659,1307.496094,87032.710938,0.385348,-0.128229,1.331787,1.038818,1.034068,17.250000,22.364504,0,0.000000,0," 202"
1615," 101",235955,235917,1,1,0.206422,-0.116714,9.936035,-0.007205,-0.043784,0.137765,-0.671822,-3.761421,9.723377,0.121693,0.449911,0.226160,89.179902,-179.110550,157.809636,0.689949,-0.697769,-0.142389,-0.129670,1307.450317,87033.750000,-0.673662,0.118151,1.331787,0.993042,1.048180,17.250000,22.409706,0,0.000000,0," 202"
1616," 101",238089,238085,1,1,0.203338,-0.104137,9.947317,-0.016461,-0.003943,0.148926,-0.191296,-4.722473,9.723377,-0.374597,-1.247131,-0.608473,89.023941,-179.048778,157.727400,0.688977,-0.698529,-0.143437,-0.129592,1307.549561,87033.898438,0.635293,0.030107,1.331787,1.092285,1.022599,17.375000,22.450388,0,0.000000,0," 202"
1617," 101",240230,240219,1,1,0.207051,-0.108928,9.933522,0.011908,-0.020668,0.135248,-0.191296,-4.241947,10.684429,0.158818,0.103797,-0.504863,89.079566,-179.208673,157.342983,0.688689,-0.697909,-0.144757,-0.132950,1307.787842,87029.210938,0.812568,0.070326,1.331787,1.330566,1.105490,17.375000,22.486551,0,0.000000,0," 202"
1618," 101",242378,242356,1,1,0.198403,-0.077665,9.940707,-0.007511,0.022560,0.141962,-0.191296,-4.241947,9.242851,0.214897,-0.818168,-0.559316,89.015260,-179.075184,157.258726,0.689025,-0.697368,-0.145772,-0.132943,1307.678467,87030.617188,0.227317,-0.019634,1.331787,1.221191,1.138113,17.375000,22.513672,0,0.000000,0," 202"
1619," 101",244531,244494,1,1,0.198932,-0.113798,9.932567,0.003722,0.014982,0.140054,-0.191296,-4.722473,9.723377,0.279588,-0.071007,-0.120452,89.035730,-179.174030,156.888762,0.687932,-0.697549,-0.147781,-0.135411,1307.589111,87031.656250,-0.134183,0.033115,1.331787,1.131836,1.071082,17.375000,22.558872,0,0.000000,0," 202"
1620," 101",246742,246722,1,1,0.198193,-0.107499,9.934813,-0.002760,-0.012475,0.136363,0.289230,-5.683524,9.723377,-0.488368,0.374398,0.596423,89.049199,-179.181366,156.598916,0.687249,-0.697508,-0.149476,-0.137215,1307.249023,87041.992188,0.384110,-0.059205,1.331787,0.791748,0.954524,17.625000,22.631195,0,0.000000,0," 202"
1621," 101",248895,248869,1,1,0.204931,-0.094490,9.940490,-0.001231,0.008117,0.142048,-0.191296,-4.241947,9.723377,-0.253537,-0.224079,-0.015350,88.978001,-179.132516,156.170213,0.686770,-0.696900,-0.152471,-0.139392,1307.223389,87037.484375,-0.724527,0.001169,1.331787,0.766113,0.860808,17.500000,22.658314,0,0.000000,0," 202"
1622," 101",250977,250960,1,1,0.201134,-0.105454,9.947906,-0.005570,-0.007204,0.149493,-0.671822,-4.722473,9.242851,0.015877,0.359744,-0.212278,89.011852,-179.161545,155.731182,0.686400,-0.696147,-0.154924,-0.142245,1307.450562,87034.945312,-0.252259,-0.013001,1.331787,0.993286,1.024837,17.500000,22.685434,0,0.000000,0," 202"
1623," 101",253099,253064,1,1,0.199393,-0.069761,9.940914,-0.002977,0.008442,0.143943,-0.191296,-4.241947,8.762325,-0.535493,-0.578428,-0.663824,88.958522,-179.167965,155.412676,0.685670,-0.696041,-0.156888,-0.144119,1307.559448,87035.273438,0.081201,-0.097369,1.364014,1.102173,1.076556,17.625000,22.717075,0,0.000000,0," 202"
1624," 101",255192,255170,1,1,0.192551,-0.094943,9.934871,-0.005685,0.008699,0.136185,-0.191296,-3.280895,9.242851,-0.056404,-0.268242,-0.355971,88.984176,-179.192608,154.978058,0.685241,-0.695322,-0.159347,-0.146904,1307.617188,87031.078125,-0.041944,-0.158593,1.378174,1.159912,1.126065,17.625000,22.775833,0,0.000000,0," 202"
1625," 101",257293,257274,1,1,0.209393,-0.102895,9.939438,0.002829,-0.028699,0.141134,0.289230,-4.722473,9.723377,0.404879,-1.215494,-0.021177,89.109885,-179.183183,154.449688,0.685331,-0.693815,-0.162442,-0.150183,1307.731445,87029.718750,0.387312,0.048573,1.378174,1.274170,1.128855,17.625000,22.793913,0,0.000000,0," 202"
1626," 101",259395,259380,1,1,0.202452,-0.086146,9.935815,-0.005060,-0.019500,0.137230,-0.671822,-3.761421,9.723377,0.719739,0.098377,-0.954843,89.156338,-179.137052,154.137603,0.685263,-0.693027,-0.164545,-0.151835,1307.580688,87031.726562,0.017038,0.136178,1.378174,1.123413,1.033770,17.750000,22.839111,0,0.000000,0," 202"
1627," 101",261497,261485,1,1,0.201171,-0.090990,9.942760,-0.009011,0.015952,0.144194,-0.191296,-3.280895,8.762325,0.145284,-1.452170,-0.846012,88.923319,-179.142748,153.609097,0.683138,-0.693659,-0.168020,-0.154687,1307.456543,87035.015625,0.174836,-0.040723,1.378174,0.999268,1.063335,17.750000,22.870750,0,0.000000,0," 202"
1628," 101",263607,263594,1,1,0.194604,-0.088757,9.943255,0.020903,0.003996,0.144533,0.769756,-5.202998,10.203903,-0.082470,1.219725,-0.609665,89.016769,-179.348022,153.327788,0.683035,-0.692986,-0.168375,-0.157747,1307.536133,87034.343750,0.096812,0.104570,1.378174,1.078857,1.063750,17.875000,22.902390,0,0.000000,0," 202"
1629," 101",265793,265762,1,1,0.192725,-0.082533,9.938576,0.009460,0.007045,0.139780,-0.671822,-3.761421,11.164955,-0.427722,0.027482,0.367328,89.030157,-179.281893,152.922171,0.682647,-0.692209,-0.171201,-0.159783,1307.512695,87034.476562,0.025408,-0.031968,1.378174,1.055420,1.113556,17.875000,22.943068,0,0.000000,0," 202"
1630," 101",267907,267873,1,1,0.199941,-0.089835,9.939189,0.011736,-0.007811,0.140596,-2.113400,-4.722473,9.723377,0.886603,-0.867769,0.593765,89.058789,-179.277999,152.874578,0.682599,-0.692111,-0.171896,-0.159663,1307.225830,87038.554688,-0.489038,-0.243451,1.378174,0.768555,0.938756,17.875000,22.983744,0,0.000000,0," 202"
1631," 101",270022,269989,1,1,0.194821,-0.092070,9.947377,-0.001060,-0.014693,0.148700,-0.191296,-4.722473,10.203903,0.011669,0.811505,0.351047,89.092236,-179.248766,152.192256,0.682038,-0.690685,-0.175714,-0.164023,1307.717163,87028.906250,0.181832,0.095776,1.378174,1.259888,1.077419,17.875000,23.019901,0,0.000000,0," 202"
1632," 101",272150,272113,1,1,0.195529,-0.076823,9.954803,0.022194,-0.015997,0.155981,0.769756,-3.761421,9.723377,0.221261,-0.367206,0.026958,89.176377,-179.338324,152.211285,0.682107,-0.690665,-0.175759,-0.163769,1307.748291,87036.039062,0.402591,0.105448,1.479980,1.291016,1.299374,17.875000,23.056059,0,0.000000,0," 202"
1633," 101",274274,274235,1,1,0.202773,-0.100928,9.949758,-0.009445,-0.010611,0.130993,-0.671822,-4.241947,8.762325,0.517312,1.117167,0.027606,89.025362,-179.183429,152.052346,0.681530,-0.690768,-0.177041,-0.164357,1307.839722,87029.539062,-0.317955,-0.021229,1.517578,1.382446,1.297071,18.000000,23.083176,0,0.000000,0," 202"
1634," 101",276406,276404,1,1,0.206573,-0.057548,9.950387,0.026543,0.035823,0.151598,-0.191296,-4.722473,9.723377,0.188439,0.885737,0.525267,88.938980,-179.261989,151.746641,0.681769,-0.689609,-0.179102,-0.165987,1307.399170,87038.546875,-0.110897,-0.101686,1.517578,0.941895,1.054554,18.000000,23.123852,0,0.000000,0," 202"
1635," 101",278543,278534,1,1,0.207466,-0.107608,9.945043,0.003099,-0.010158,0.146783,-0.191296,-4.722473,9.723377,0.547743,0.861750,0.241965,88.944889,-179.261375,151.598945,0.680273,-0.690660,-0.179429,-0.167398,1307.607788,87032.843750,-0.463379,0.016572,1.517578,1.150513,1.127552,18.000000,23.160007,0,0.000000,0," 202"
1636," 101",280687,280663,1,1,0.211694,-0.090997,9.947499,0.014061,-0.020537,0.149137,-0.191296,-5.202998,9.723377,-0.333792,0.364371,-0.003640,89.075045,-179.260856,151.429611,0.680810,-0.689621,-0.180261,-0.168605,1307.491821,87036.023438,0.799443,-0.202143,1.517578,1.034546,1.055121,18.000000,23.196163,0,0.000000,0," 202"
1637," 101",282904,282894,1,1,0.200798,-0.105360,9.936101,-0.011087,-0.010756,0.137676,-0.191296,-3.280895,10.203903,-0.110061,0.472661,-1.040983,88.975672,-179.208632,151.489525,0.680377,-0.690224,-0.180355,-0.167777,1307.312988,87036.234375,0.504775,-0.058887,1.517578,0.855713,0.838125,18.125000,23.232319,0,0.000000,0," 202"
1638," 101",285055,285034,1,1,0.200969,-0.108362,9.944893,-0.005249,-0.015751,0.146500,-0.191296,-4.241947,9.723377,-0.476965,-0.103037,-0.307674,88.983254,-179.260296,150.974174,0.679051,-0.689970,-0.183099,-0.171190,1307.492065,87035.656250,0.374108,0.125800,1.517578,1.034790,1.005961,18.125000,23.259436,0,0.000000,0," 202"
1639," 101",287206,287168,1,1,0.193836,-0.098127,9.933429,-0.008322,0.012878,0.134793,-0.671822,-4.722473,8.762325,-0.299195,-1.173447,-0.326232,88.884756,-179.254667,150.664042,0.678533,-0.689519,-0.185188,-0.172805,1307.438721,87035.968750,0.598626,-0.045365,1.517578,0.981445,0.970768,18.125000,23.291073,0,0.000000,0," 202"
1640," 101",289408,289394,1,1,0.194857,-0.100348,9.950768,-0.012986,-0.004492,0.152172,-0.671822,-4.722473,10.203903,0.817690,-0.807958,0.464750,88.967196,-179.238617,150.210381,0.678364,-0.688267,-0.187884,-0.175528,1307.402710,87036.179688,0.233487,-0.061331,1.517578,0.945435,0.936598,18.125000,23.327227,0,0.000000,0," 202"
1641," 101",291488,291487,1,1,0.200774,-0.090425,9.939263,0.014252,0.004517,0.140691,-0.191296,-4.722473,9.723377,-0.095146,0.354464,-0.545231,88.940852,-179.344963,149.752239,0.677330,-0.687839,-0.190049,-0.178835,1307.625122,87032.539062,0.672077,-0.009659,1.517578,1.167847,1.040094,18.125000,23.358862,0,0.000000,0," 202"
1642," 101",293573,293541,1,1,0.197131,-0.100389,9.951926,-0.008910,-0.001484,0.153381,-0.671822,-3.761421,8.762325,-0.631212,-0.712783,0.397061,88.936815,-179.260924,149.674225,0.677318,-0.687596,-0.191019,-0.178784,1307.353516,87034.820312,0.207187,-0.088445,1.517578,0.896240,0.900950,18.250000,23.390497,0,0.000000,0," 202"
1643," 101",295670,295640,1,1,0.202954,-0.102069,9.946859,-0.006370,-0.017157,0.148436,-0.671822,-5.683524,9.242851,-0.542332,0.135671,-1.251885,88.996818,-179.258001,149.315367,0.676534,-0.687216,-0.193036,-0.181032,1307.420898,87037.203125,0.199118,-0.065840,1.517578,0.963623,0.964243,18.250000,23.417612,0,0.000000,0," 202"
1644," 101",297773,297746,1,1,0.186225,-0.081323,9.970652,-0.002856,0.015230,0.171710,-0.671822,-5.202998,9.723377,-0.361137,0.317957,-0.366595,88.962627,-179.304651,149.143109,0.677014,-0.686184,-0.193691,-0.182448,1307.247192,87039.390625,-0.425531,-0.024949,1.517578,0.789917,0.843713,18.250000,23.453766,0,0.000000,0," 202"
1645," 101",299937,299899,1,1,0.193062,-0.098809,9.953099,-0.011392,-0.004897,0.154454,-0.671822,-4.722473,9.242851,-0.150309,-0.315777,0.024026,88.967100,-179.276893,148.885802,0.676227,-0.686114,-0.195603,-0.183587,1307.262085,87039.601562,-0.337936,0.036140,1.517578,0.804810,0.878626,18.375000,23.489920,0,0.000000,0," 202"
1646," 101",302039,302006,1,1,0.212587,-0.111511,9.938587,-0.023092,-0.022454,0.140434,-0.671822,-4.241947,10.684429,0.122516,-0.231671,-0.582548,88.941644,-179.157091,148.536506,0.675710,-0.685461,-0.198438,-0.184884,1307.459595,87035.257812,0.655826,-0.080083,1.517578,1.002319,0.923777,18.375000,23.507996,0,0.000000,0," 202"
1647," 101",304143,304114,1,1,0.192915,-0.079011,9.946308,0.008190,0.021909,0.147465,-0.191296,-3.280895,9.723377,-0.230958,0.127384,-0.659274,88.902951,-179.340673,148.312517,0.675559,-0.684871,-0.198831,-0.187186,1307.469971,87033.679688,0.264270,0.015990,1.517578,1.012695,0.980149,18.375000,23.535110,0,0.000000,0," 202"
1648," 101",306272,306264,1,1,0.197394,-0.078294,9.946905,0.017011,0.008654,0.148153,-0.191296,-4.722473,10.684429,-0.534788,0.312790,0.282230,88.963521,-179.375234,147.855332,0.674776,-0.684099,-0.201646,-0.189803,1307.523926,87034.679688,1.488381,0.280299,1.517578,1.066650,0.919757,18.500000,23.580301,0,0.000000,0," 202"
1649," 101",308417,308387,1,1,0.218381,-0.099885,9.936474,0.031988,-0.008191,0.138320,-0.191296,-4.241947,10.684429,0.123236,0.837652,-0.501015,88.886388,-179.429971,147.596126,0.673375,-0.684610,-0.202550,-0.191960,1307.171875,87038.242188,-0.422994,-0.125547,1.517578,0.714600,0.790913,18.375000,23.598379,0,0.000000,0," 202"
1650," 101",310562,310546,1,1,0.200122,-0.093578,9.945455,0.002136,0.001205,0.146908,-1.152348,-5.202998,9.723377,-0.316959,0.958708,0.005227,88.913886,-179.337968,147.056896,0.672788,-0.683325,-0.206261,-0.194625,1307.167847,87037.453125,0.126841,0.008468,1.517578,0.710571,0.716245,18.500000,23.634531,0,0.000000,0," 202"
1651," 101",312706,312704,1,1,0.199247,-0.116389,9.939963,-0.014485,-0.037145,0.141561,-0.191296,-4.241947,9.723377,0.280656,-0.483679,-0.128374,89.023128,-179.324677,146.712422,0.672874,-0.682037,-0.208204,-0.196766,1307.433228,87034.000000,0.465260,0.167834,1.517578,0.975952,0.874809,18.500000,23.657125,0,0.000000,0," 202"
1652," 101",314852,314834,1,1,0.188873,-0.072854,9.937295,-0.008697,0.004886,0.138352,-0.191296,-5.202998,10.203903,0.502380,-0.713959,-0.179621,89.020424,-179.273956,146.480756,0.672548,-0.681540,-0.209884,-0.197818,1307.448975,87033.015625,0.364835,0.055927,1.517578,0.991699,0.808132,18.500000,23.702314,0,0.000000,0," 202"
1653," 101",317050,317010,1,1,0.176057,-0.099701,9.927532,-0.011794,0.027514,0.144127,-0.191296,-3.761421,9.723377,-0.125223,0.564205,0.003034,88.857162,-179.274024,146.035701,0.670804,-0.681676,-0.212814,-0.200126,1307.250488,87035.390625,-0.072191,-0.212320,1.517578,0.793213,0.756716,18.500000,23.729429,0,0.000000,0," 202"
1654," 101",319180,319180,1,1,0.193880,-0.080757,9.943161,-0.008614,0.021456,0.144352,-0.191296,-4.722473,8.762325,-0.082893,-1.441853,-0.564784,88.860679,-179.292643,145.534993,0.669910,-0.680753,-0.215676,-0.203173,1307.156738,87033.906250,-1.234555,-0.041798,1.517578,0.699463,0.762931,18.500000,23.752024,0,0.000000,0," 202"
1655," 101",321320,321317,1,1,0.201402,-0.092293,9.946897,0.004076,-0.007873,0.148359,-0.191296,-4.722473,9.723377,0.130016,0.019140,-0.392076,88.946644,-179.374742,145.176217,0.669631,-0.679725,-0.217174,-0.205922,1307.200684,87040.039062,0.172387,-0.020030,1.517578,0.743408,0.809777,18.625000,23.788174,0,0.000000,0," 202"
1656," 101",323458,323445,1,1,0.213253,-0.103360,9.942716,0.005000,0.001341,0.144538,-0.191296,-4.722473,9.723377,-0.442439,-0.149011,0.025925,88.795232,-179.372010,144.607426,0.667708,-0.679517,-0.220838,-0.208935,1307.276611,87035.492188,-0.483372,0.122074,1.517578,0.819336,0.863406,18.750000,23.815287,0,0.000000,0," 202"
1657," 101",325606,325579,1,1,0.193378,-0.099361,9.943420,0.003915,-0.015870,0.144784,-0.671822,-4.722473,9.242851,-0.068542,-0.193939,0.236269,88.976533,-179.451609,144.309261,0.667636,-0.678475,-0.222081,-0.211218,1307.102783,87040.734375,-0.163590,-0.208397,1.517578,0.645508,0.705112,18.750000,23.846920,0,0.000000,0," 202"
1658," 101",327759,327718,1,1,0.208932,-0.094044,9.948876,0.011782,0.020547,0.137220,0.289230,-4.241947,8.762325,-0.038646,-0.347330,0.551897,88.870084,-179.404727,144.456862,0.667815,-0.678852,-0.221403,-0.210151,1307.176025,87035.289062,0.498229,-0.120663,1.517578,0.718750,0.612751,18.750000,23.869513,0,0.000000,0," 202"
1659," 101",329968,329951,1,1,0.203561,-0.089981,9.947285,0.015647,-0.000930,0.148762,-0.191296,-5.202998,9.242851,-0.326586,-0.289840,-0.743079,88.896743,-179.446801,143.969623,0.666993,-0.677830,-0.223994,-0.213291,1307.100586,87037.367188,-0.382966,-0.032772,1.517578,0.643311,0.630576,18.750000,23.910181,0,0.000000,0," 202"
1660," 101",332054,332048,1,1,0.209605,-0.090798,9.934207,0.004275,-0.011446,0.135825,0.289230,-4.241947,9.723377,0.663798,0.100807,-0.406254,88.929562,-179.358596,143.792107,0.667024,-0.677121,-0.225494,-0.213865,1307.075439,87039.640625,0.033761,0.055319,1.517578,0.618164,0.625192,18.750000,23.941813,0,0.000000,0," 202"
1661," 101",334206,334200,1,1,0.190987,-0.104582,9.931580,0.000660,-0.013855,0.132957,-0.191296,-3.761421,9.723377,-0.645762,1.098769,-0.235518,88.941385,-179.473425,143.679914,0.666665,-0.677053,-0.225469,-0.215222,1307.078369,87042.109375,0.220742,-0.054409,1.517578,0.621094,0.658859,18.875000,23.964407,0,0.000000,0," 202"
1662," 101",336301,336296,1,1,0.207825,-0.081482,9.946877,0.016603,-0.003566,0.148368,-0.671822,-4.722473,8.762325,-0.200049,1.057176,0.386398,88.932369,-179.410969,143.582830,0.666549,-0.676793,-0.226421,-0.215399,1307.456177,87034.585938,-0.427095,0.111472,1.517578,0.998901,0.899691,18.875000,23.991518,0,0.000000,0," 202"
1663," 101",338389,338357,1,1,0.196702,-0.099049,9.931254,0.002686,-0.009763,0.132691,0.289230,-3.761421,10.203903,-0.021433,1.155986,-0.747455,88.921509,-179.444451,143.436104,0.666144,-0.676631,-0.227114,-0.216429,1307.391479,87035.078125,0.454314,0.074590,1.517578,0.934204,0.835678,18.875000,24.014111,0,0.000000,0," 202"
1664," 101",340486,340459,1,1,0.195079,-0.087092,9.944376,-0.010005,-0.015968,0.145653,0.289230,-5.202998,9.242851,0.809070,0.869358,-0.128479,89.014167,-179.348227,142.919741,0.665309,-0.675458,-0.230393,-0.219181,1307.353638,87040.414062,0.389738,0.183720,1.517578,0.896362,0.884667,18.875000,24.041224,0,0.000000,0," 202"
1665," 101",342589,342561,1,1,0.208155,-0.087192,9.946612,0.001524,-0.003503,0.148172,-1.152348,-3.761421,8.281800,0.024993,-0.456982,0.131843,88.894352,-179.359197,142.708675,0.664764,-0.675164,-0.231950,-0.220094,1307.399780,87037.835938,0.241311,-0.184778,1.517578,0.942505,0.985125,18.875000,24.068335,0,0.000000,0," 202"
1666," 101",344705,344673,1,1,0.178078,-0.122020,9.931650,-0.034561,-0.025510,0.132903,-0.671822,-4.722473,10.203903,-1.126456,0.011225,-0.663602,88.961930,-179.418811,142.273291,0.663073,-0.675139,-0.233240,-0.223878,1307.401489,87037.234375,0.050652,0.124108,1.517578,0.944214,1.026553,19.000000,24.095446,0,0.000000,0," 202"
1667," 101",346986,346959,1,1,0.187964,-0.105272,9.940936,-0.021912,-0.008798,0.142242,-0.191296,-3.761421,10.203903,0.073393,-0.301568,-0.141979,88.902903,-179.400506,141.653984,0.662184,-0.673535,-0.237322,-0.227027,1307.305420,87038.210938,-1.034047,-0.179115,1.517578,0.848145,0.992486,19.000000,24.140631,0,0.000000,0," 202"
1668," 101",349101,349067,1,1,0.209397,-0.077319,9.937898,0.002129,0.003503,0.139403,-1.632874,-5.202998,9.242851,0.078518,-1.225816,-0.221477,88.876730,-179.349785,141.250948,0.661826,-0.672241,-0.240609,-0.228440,1307.851440,87026.335938,0.561319,0.292368,1.517578,1.394165,1.133173,19.000000,24.140631,0,0.000000,0," 202"
1669," 101",351289,351283,1,1,0.185823,-0.079653,9.936609,-0.000729,0.016286,0.137652,0.769756,-2.319843,9.723377,-0.044413,1.214477,0.341592,88.873233,-179.455584,140.809978,0.660704,-0.671551,-0.242593,-0.231600,1307.512451,87034.242188,0.179342,0.069014,1.517578,1.055176,1.029285,19.000000,24.185816,0,0.000000,0," 202"
1670," 101",353404,353399,1,1,0.192888,-0.068261,9.957903,0.013018,0.015734,0.158984,-1.152348,-4.722473,10.203903,0.170043,1.347515,-0.179930,88.900608,-179.468425,140.496581,0.660201,-0.670754,-0.244299,-0.233540,1307.627441,87031.859375,0.107987,0.209966,1.517578,1.170166,1.115198,19.000000,24.203890,0,0.000000,0," 202"
1671," 101",355522,355517,1,1,0.200245,-0.077747,9.943808,0.008629,-0.006284,0.145122,-0.671822,-4.722473,10.203903,1.435371,0.304607,0.777371,88.954102,-179.449232,140.243017,0.660036,-0.669863,-0.245784,-0.235003,1307.451416,87031.453125,-0.255470,0.032956,1.517578,0.994141,0.948262,19.125000,24.221964,0,0.000000,0," 202"
1672," 101",357648,357643,1,1,0.200354,-0.106261,9.932735,-0.016686,-0.008724,0.134306,-0.191296,-3.280895,10.684429,0.471293,-0.704992,-0.442645,88.836357,-179.416748,139.796132,0.658051,-0.669955,-0.248412,-0.237528,1307.308350,87036.382812,-0.431479,-0.196844,1.517578,0.851074,0.924474,19.125000,24.267147,0,0.000000,0," 202"
1673," 101",359782,359770,1,1,0.195199,-0.074064,9.948052,0.004455,0.008203,0.149239,0.289230,-5.683524,9.242851,-0.980837,-0.198322,-0.303276,88.900438,-179.444178,139.698433,0.658609,-0.668985,-0.249105,-0.237991,1307.395508,87034.992188,0.057880,-0.047991,1.517578,0.938232,1.044509,19.125000,24.285221,0,0.000000,0," 202"
1674," 101",361919,361895,1,1,0.203197,-0.096750,9.943620,0.020015,-0.005664,0.145144,-0.191296,-3.761421,9.242851,0.187379,0.822870,-0.019431,88.847244,-179.589989,139.359396,0.657280,-0.668864,-0.250360,-0.240675,1307.603882,87034.484375,0.334410,0.118613,1.517578,1.146606,1.127825,19.125000,24.307812,0,0.000000,0," 202"
1675," 101",364063,364021,1,1,0.208849,-0.116860,9.945210,0.032022,0.009836,0.145942,0.769756,-3.761421,10.203903,-0.366997,0.840352,-0.523290,88.838426,-179.582708,139.170473,0.657493,-0.667827,-0.252383,-0.240856,1307.896851,87026.164062,0.755939,-0.084013,1.517578,1.439575,1.201348,19.250000,24.325886,0,0.000000,0," 202"
1676," 101",366209,366197,1,1,0.209180,-0.103171,9.940738,0.015571,-0.015129,0.142450,-0.671822,-5.202998,10.203903,0.530352,-0.176970,0.110735,88.842067,-179.583486,138.376477,0.655175,-0.666707,-0.256136,-0.246254,1307.414429,87034.164062,-0.328194,-0.072967,1.618164,0.957153,1.072577,19.125000,24.366550,0,0.000000,0," 202"
1677," 101",368422,368384,1,1,0.208350,-0.122695,9.934834,-0.008384,-0.011891,0.136765,0.769756,-5.202998,9.723377,0.314709,-0.993713,0.024932,88.740420,-179.527574,138.198523,0.654324,-0.666766,-0.257709,-0.246717,1307.467529,87031.679688,-0.145525,-0.210324,1.618164,1.010254,1.005489,19.125000,24.389141,0,0.000000,0," 202"
1678," 101",370620,370616,1,1,0.194456,-0.093156,9.955409,-0.001880,0.013754,0.156734,-0.191296,-3.761421,9.723377,0.160464,-0.184322,1.077581,88.772194,-179.520116,137.807427,0.653679,-0.665685,-0.259956,-0.248977,1307.491333,87032.156250,-0.364760,-0.015073,1.618164,1.034058,1.080349,19.250000,24.411732,0,0.000000,0," 202"
1679," 101",372697,372665,1,1,0.200474,-0.073162,9.959229,0.002347,0.016451,0.160501,0.289230,-4.722473,10.203903,0.309104,-0.444159,-0.395463,88.814978,-179.449628,137.390594,0.653175,-0.664333,-0.262683,-0.251042,1307.487183,87037.289062,-0.842288,0.055161,1.618164,1.029907,1.164814,19.250000,24.447878,0,0.000000,0," 202"
1680," 101",374778,374757,1,1,0.197467,-0.097299,9.951163,-0.019931,0.006689,0.152576,-1.632874,-4.241947,9.723377,-0.529280,-2.308601,-0.837642,88.774093,-179.442429,136.680473,0.651358,-0.662951,-0.266252,-0.255615,1307.418823,87035.687500,-0.123152,-0.240788,1.618164,0.961548,0.937092,19.250000,24.474987,0,0.000000,0," 202"
1681," 101",376867,376854,1,1,0.186571,-0.080185,9.942567,-0.005136,0.011087,0.143633,-0.191296,-4.241947,10.203903,-0.415086,-0.952936,-0.020032,88.859211,-179.512835,136.274527,0.650810,-0.661637,-0.268683,-0.257861,1307.588379,87033.195312,-0.179323,0.241419,1.618164,1.131104,0.970698,19.250000,24.497578,0,0.000000,0," 202"
1682," 101",378958,378955,1,1,0.188594,-0.093688,9.937163,-0.010816,0.006410,0.138386,1.250281,-3.761421,11.164955,0.214565,0.051773,-0.236148,88.819083,-179.531249,135.972059,0.649918,-0.661139,-0.270016,-0.259987,1307.386597,87034.773438,-0.515800,-0.094693,1.618164,0.929321,0.978084,19.500000,24.515650,0,0.000000,0," 202"
1683," 101",381053,381019,1,1,0.203589,-0.068374,9.933600,0.005919,0.007751,0.134917,-0.191296,-6.164050,9.242851,-0.153436,-0.378692,0.602517,88.853009,-179.469381,135.689371,0.649550,-0.660190,-0.272318,-0.260915,1307.442139,87033.273438,-0.717988,-0.260970,1.618164,0.984863,1.068977,19.375000,24.538240,0,0.000000,0," 202"
1684," 101",383157,383128,1,1,0.197744,-0.064502,9.946361,-0.002235,0.027082,0.147498,0.769756,-5.202998,9.723377,-0.259406,-0.739376,0.195052,88.778020,-179.440462,135.212228,0.648094,-0.659407,-0.275400,-0.263270,1307.628052,87031.671875,-0.213402,0.203861,1.618164,1.170776,1.103963,19.375000,24.565350,0,0.000000,0," 202"
1685," 101",385326,385325,1,1,0.209461,-0.073061,9.949292,0.023200,0.021441,0.150715,-0.671822,-3.280895,9.723377,-0.050816,-0.002912,-0.072743,88.723365,-179.584333,134.694267,0.646241,-0.658805,-0.277696,-0.266894,1307.587158,87035.015625,0.082321,0.069681,1.618164,1.129883,1.171656,19.500000,24.592457,0,0.000000,0," 202"
1686," 101",387427,387395,1,1,0.200193,-0.074924,9.944016,0.014488,0.000659,0.145303,-0.671822,-3.761421,10.203903,-0.038794,1.032959,-0.846475,88.868466,-179.588855,134.197535,0.645900,-0.656789,-0.280182,-0.270074,1307.631348,87034.507812,0.179018,-0.056944,1.618164,1.174072,1.176236,19.500000,24.615047,0,0.000000,0," 202"
1687," 101",389572,389550,1,1,0.197854,-0.079395,9.954749,0.017366,0.019912,0.155997,-0.671822,-2.800369,9.723377,0.052951,0.544847,-1.221258,88.746410,-179.644029,133.677157,0.644638,-0.655527,-0.283412,-0.272769,1307.610962,87033.210938,0.099230,0.059173,1.618164,1.153687,1.159579,19.500000,24.628601,0,0.000000,0," 202"
1688," 101",391718,391702,1,1,0.189755,-0.094019,9.930290,0.000594,-0.009174,0.131544,-1.632874,-3.761421,10.203903,-0.236258,0.675515,-0.043372,88.884865,-179.645382,133.396682,0.643952,-0.654860,-0.284409,-0.274946,1307.552612,87034.781250,0.040930,-0.069324,1.618164,1.095337,1.166281,19.500000,24.646673,0,0.000000,0," 202"
1689," 101",393862,393860,1,1,0.182780,-0.100070,9.941995,-0.010252,0.006558,0.143171,-0.671822,-4.241947,8.762325,-0.420954,-0.124427,0.594528,88.800389,-179.637732,133.323694,0.643313,-0.655135,-0.285072,-0.275102,1307.515137,87035.054688,-0.021796,-0.206071,1.618164,1.057861,1.166367,19.500000,24.678299,0,0.000000,0," 202"
1690," 101",396006,395988,1,1,0.209473,-0.079303,9.932406,0.019615,-0.009171,0.133908,-0.671822,-3.280895,9.242851,0.349863,-0.737092,0.565745,88.857674,-179.622910,133.034354,0.642980,-0.654055,-0.286670,-0.276784,1307.567139,87033.343750,-0.334771,-0.044351,1.618164,1.109863,1.157935,19.625000,24.709925,0,0.000000,0," 202"
1691," 101",398150,398148,1,1,0.192060,-0.081792,9.941076,-0.016579,-0.011958,0.142247,-0.671822,-5.202998,9.723377,-0.029603,-0.258878,-0.641546,88.934985,-179.502713,132.573535,0.642600,-0.652166,-0.289781,-0.278876,1307.724854,87030.953125,-0.752293,0.196727,1.618164,1.267578,1.400785,19.625000,24.727997,0,0.000000,0," 202"
1692," 101",400295,400279,1,1,0.199672,-0.070675,9.952634,0.027524,-0.007314,0.153847,0.289230,-3.280895,10.203903,-0.592298,1.501419,-0.515351,88.917814,-179.686814,132.246601,0.641244,-0.651892,-0.290655,-0.281715,1307.835449,87030.640625,0.396869,0.006014,1.618164,1.378174,1.296914,19.625000,24.741550,0,0.000000,0," 202"
1693," 101",402502,402502,1,1,0.181297,-0.089952,9.938948,-0.022232,0.007495,0.139980,0.289230,-3.761421,9.723377,0.755151,-0.938185,0.614500,88.833276,-179.557928,131.997012,0.640472,-0.651407,-0.293001,-0.282160,1307.695923,87033.000000,0.473034,-0.085053,1.618164,1.238647,1.159265,19.625000,24.768658,0,0.000000,0," 202"
1694," 101",404635,404631,1,1,0.181045,-0.083607,9.930890,-0.008105,-0.004673,0.131888,-0.191296,-3.761421,10.684429,-0.389995,-0.310508,1.252103,88.925457,-179.621449,131.548528,0.639725,-0.649901,-0.294966,-0.285264,1307.778564,87032.382812,0.623931,-0.020311,1.618164,1.321289,1.246905,19.750000,24.795763,0,0.000000,0," 202"
1695," 101",406775,406762,1,1,0.193916,-0.100241,9.944336,0.005504,0.001469,0.145730,-0.191296,-4.722473,9.242851,-0.284314,-0.088994,-0.151606,88.771771,-179.725882,131.409042,0.638239,-0.650663,-0.295560,-0.286240,1307.959351,87033.062500,0.792515,0.226899,1.647949,1.502075,1.421921,19.750000,24.809317,0,0.000000,0," 202"
1696," 101",408925,408899,1,1,0.196642,-0.080759,9.932040,-0.007977,0.024176,0.133282,-0.671822,-5.202998,9.723377,-0.359734,-0.638850,0.075700,88.702109,-179.552218,131.452154,0.638394,-0.650723,-0.296453,-0.284831,1307.668945,87032.343750,0.314030,-0.017031,1.647949,1.211670,1.237403,19.750000,24.840942,0,0.000000,0," 202"
1697," 101",411080,411077,1,1,0.194886,-0.080914,9.940034,0.006260,-0.007556,0.141269,-0.671822,-4.241947,9.723377,0.440622,-0.532642,0.077108,88.890711,-179.648783,131.115262,0.638375,-0.649045,-0.297356,-0.287746,1307.637329,87035.789062,-0.422026,0.113851,1.647949,1.180054,1.272396,19.750000,24.863531,0,0.000000,0," 202"
1698," 101",413294,413273,1,1,0.203934,-0.093511,9.936763,-0.002634,0.005917,0.138293,-1.152348,-5.202998,9.242851,-0.383112,-2.077945,-0.011641,88.722204,-179.629631,130.569393,0.636094,-0.648508,-0.300978,-0.290233,1307.567017,87037.250000,0.210262,0.056855,1.647949,1.109741,1.207175,19.750000,24.886120,0,0.000000,0," 202"
1699," 101",415380,415367,1,1,0.202320,-0.078804,9.951321,0.017311,0.016296,0.152661,-0.191296,-3.280895,8.762325,-0.809173,-0.505446,-0.248782,88.725428,-179.689614,130.429128,0.635600,-0.648275,-0.301431,-0.291360,1307.507812,87036.945312,-0.683954,0.083509,1.647949,1.050537,1.238234,19.750000,24.899672,0,0.000000,0," 202"
1700," 101",417469,417467,1,1,0.216852,-0.099935,9.935383,0.007698,-0.019837,0.137229,-0.191296,-3.761421,9.242851,-0.324798,0.637019,-0.986870,88.788300,-179.674451,130.327099,0.635736,-0.647619,-0.301932,-0.292005,1307.534912,87035.539062,-0.351639,-0.037873,1.647949,1.077637,1.221614,19.750000,24.917744,0,0.000000,0," 202"
1701," 101",419623,419622,1,1,0.211636,-0.104244,9.947946,0.005910,-0.027289,0.149703,-1.152348,-3.280895,9.723377,-0.018337,0.513221,0.525499,88.837900,-179.709640,130.035587,0.634459,-0.647367,-0.303792,-0.293408,1307.422852,87034.914062,-0.195537,-0.019722,1.647949,0.965576,1.052112,19.750000,24.944849,0,0.000000,0," 202"
1702," 101",421749,421729,1,1,0.197757,-0.111496,9.931123,-0.000523,-0.020352,0.132696,-0.671822,-4.722473,8.762325,0.559338,0.782853,0.636238,88.829827,-179.758107,129.923121,0.634717,-0.646538,-0.303644,-0.294828,1307.458008,87035.179688,-0.502593,-0.094588,1.647949,1.000732,1.059589,19.875000,24.976473,0,0.000000,0," 202"
1703," 101",423846,423832,1,1,0.194112,-0.087993,9.958716,0.005020,0.013236,0.159987,0.289230,-3.280895,9.723377,0.088069,0.192700,-0.727341,88.741007,-179.706512,129.627906,0.633591,-0.646110,-0.305823,-0.295934,1307.683960,87030.125000,0.430343,0.259295,1.647949,1.226685,1.151960,19.875000,24.980991,0,0.000000,0," 202"
1704," 101",425946,425935,1,1,0.196667,-0.083510,9.938154,0.010087,0.004436,0.139445,0.289230,-4.722473,10.203903,-0.171078,0.423811,-0.153471,88.792760,-179.710910,129.380585,0.633231,-0.645174,-0.307058,-0.297464,1307.621338,87029.500000,0.009649,0.075300,1.647949,1.164062,1.082749,19.875000,25.008097,0,0.000000,0," 202"
1705," 101",428050,428045,1,1,0.198085,-0.106968,9.950543,-0.025046,-0.019479,0.152039,-0.191296,-2.800369,9.242851,0.367591,0.280536,0.522803,88.838597,-179.615260,129.062735,0.632915,-0.643814,-0.309254,-0.298804,1307.353760,87038.007812,-1.121060,0.294188,1.647949,0.896484,1.165552,19.875000,25.026167,0,0.000000,0," 202"
1706," 101",430157,430117,1,1,0.195406,-0.087209,9.938020,0.020276,-0.030381,0.140309,0.289230,-4.241947,9.723377,-0.072419,0.788804,-0.126921,88.931556,-179.737835,128.831315,0.632505,-0.643000,-0.309635,-0.301023,1307.471436,87034.304688,0.135257,-0.080702,1.647949,1.014160,0.996204,20.000000,25.057789,0,0.000000,0," 202"
1707," 101",432275,432233,1,1,0.194340,-0.095190,9.934772,0.009553,0.002381,0.149506,-1.152348,-4.722473,10.203903,-0.383775,0.527268,0.242351,88.753008,-179.760060,128.832340,0.631445,-0.644047,-0.309976,-0.300659,1307.368774,87034.984375,-0.983596,-0.157191,1.647949,0.911499,1.101515,19.875000,25.071342,0,0.000000,0," 202"
1708," 101",434398,434356,1,1,0.183830,-0.124725,9.937111,-0.030364,0.007853,0.147754,-0.191296,-4.241947,10.203903,-0.363591,0.399344,0.139627,88.784208,-179.609373,128.679125,0.631622,-0.643059,-0.311582,-0.300740,1307.682251,87032.375000,-0.127234,-0.150569,1.647949,1.224976,1.194782,20.000000,25.098448,0,0.000000,0," 202"
1709," 101",436592,436575,1,1,0.209482,-0.082448,9.944484,0.021386,0.006945,0.146006,-0.191296,-5.202998,10.203903,-0.703455,0.484501,-0.549625,88.720708,-179.741127,128.615864,0.630745,-0.643588,-0.311381,-0.301657,1307.647339,87030.179688,-0.112820,-0.107959,1.647949,1.190063,1.113115,20.000000,25.107483,0,0.000000,0," 202"
1710," 101",438802,438784,1,1,0.197825,-0.068453,9.941991,0.045768,0.009603,0.143084,0.289230,-3.761421,9.242851,-0.101632,0.725224,-0.246470,88.805785,-179.866338,128.321523,0.631015,-0.641730,-0.313318,-0.303042,1307.547607,87032.320312,0.107229,0.045182,1.647949,1.090332,1.040965,20.000000,25.143621,0,0.000000,0," 202"
1711," 101",440933,440906,1,1,0.192805,-0.102784,9.928702,-0.023567,-0.022267,0.130053,-0.671822,-3.761421,9.723377,-0.841156,0.463627,-0.197213,88.887822,-179.640327,128.280351,0.630097,-0.642454,-0.312995,-0.303751,1307.351074,87035.085938,0.432239,-0.100470,1.647949,0.893799,0.890523,20.000000,25.152657,0,0.000000,0," 202"
1712," 101",443070,443034,1,1,0.205461,-0.079798,9.947068,0.025986,0.007879,0.148473,-0.671822,-3.280895,8.762325,0.045778,-0.285758,-0.134882,88.739204,-179.783447,127.991543,0.629668,-0.641299,-0.315247,-0.304750,1307.525879,87031.695312,0.553933,-0.015300,1.647949,1.068604,0.890503,20.000000,25.170727,0,0.000000,0," 202"
1713," 101",445209,445208,1,1,0.198547,-0.103809,9.942560,0.006302,-0.002102,0.144082,-0.671822,-5.202998,9.242851,-0.938767,0.585644,-0.470578,88.743432,-179.797804,128.248440,0.629749,-0.642612,-0.313072,-0.304059,1307.292969,87037.117188,0.242112,0.093027,1.647949,0.835693,0.831397,20.125000,25.193314,0,0.000000,0," 202"
1714," 101",447353,447342,1,1,0.207022,-0.085456,9.945651,0.035185,-0.003323,0.147110,-0.671822,-5.202998,9.723377,-0.244880,0.369501,-0.519716,88.776381,-179.856639,127.988005,0.629080,-0.641876,-0.314121,-0.305910,1307.454712,87033.617188,0.210695,0.231493,1.647949,0.997437,0.920006,20.000000,25.215900,0,0.000000,0," 202"
1715," 101",449503,449478,1,1,0.194340,-0.111559,9.925921,-0.025892,-0.026282,0.127382,-0.671822,-3.280895,9.723377,0.470045,-0.545620,-0.127478,88.871833,-179.664602,128.122683,0.629373,-0.642324,-0.313776,-0.304719,1307.361084,87038.054688,-0.215145,0.222193,1.647949,0.903809,0.945429,20.125000,25.238487,0,0.000000,0," 202"
1716," 101",451656,451616,1,1,0.188485,-0.075470,9.941478,-0.034493,-0.016697,0.133010,-0.191296,-5.202998,9.242851,0.001936,1.457235,-0.050213,88.880753,-179.549240,127.683297,0.629688,-0.639634,-0.317230,-0.306148,1308.019775,87025.945312,0.993853,0.352886,1.647949,1.562500,1.312976,20.125000,25.247522,0,0.000000,0," 202"
1717," 101",453944,453910,1,1,0.213696,-0.088078,9.941773,0.001820,0.006733,0.143457,-0.191296,-3.761421,9.242851,0.281455,-0.658676,0.456486,88.675096,-179.664520,127.453461,0.627609,-0.640438,-0.318434,-0.307484,1307.966064,87033.664062,0.521797,0.394411,1.681885,1.508789,1.504057,20.125000,25.256557,0,0.000000,0," 202"
1718," 101",456026,456003,1,1,0.207450,-0.074632,9.938686,0.006944,0.009011,0.140125,-0.191296,-3.761421,9.723377,-0.202901,0.272365,-0.071471,88.735120,-179.661050,127.135502,0.627098,-0.639214,-0.320067,-0.309373,1307.877930,87027.968750,0.504340,-0.059033,1.681885,1.420654,1.302377,20.125000,25.288177,0,0.000000,0," 202"
1719," 101",458108,458092,1,1,0.195653,-0.083075,9.931149,-0.002540,-0.001298,0.132424,-0.671822,-4.241947,10.684429,-0.046845,0.428106,0.606565,88.818148,-179.687196,127.077473,0.627332,-0.638669,-0.320023,-0.310068,1307.579346,87040.132812,-0.221127,0.167491,1.681885,1.122070,1.366955,20.250000,25.319799,0,0.000000,0," 202"
1720," 101",460194,460189,1,1,0.198307,-0.069004,9.932819,0.035254,0.024238,0.133946,-0.671822,-3.761421,9.723377,-0.228851,0.129980,-0.791068,88.705887,-179.837214,126.782190,0.626686,-0.637666,-0.321833,-0.311560,1307.770996,87031.984375,-0.606302,-0.044427,1.681885,1.313721,1.407276,20.250000,25.328835,0,0.000000,0," 202"
1721," 101",462283,462246,1,1,0.204215,-0.080091,9.946325,0.009127,0.011427,0.147733,-0.671822,-3.280895,9.723377,-0.490630,0.069110,-0.165851,88.715954,-179.717713,126.782163,0.625876,-0.638484,-0.321780,-0.311567,1307.818237,87031.562500,0.320418,0.134493,1.681885,1.360962,1.258727,20.250000,25.346903,0,0.000000,0," 202"
1722," 101",464380,464347,1,1,0.213803,-0.085458,9.941983,0.003117,-0.022054,0.143624,-1.632874,-3.761421,10.203903,0.110211,-0.216878,0.037880,88.843836,-179.681131,126.491852,0.625898,-0.636868,-0.323246,-0.313309,1307.718750,87033.234375,0.035339,-0.084053,1.681885,1.261475,1.255541,20.250000,25.360455,0,0.000000,0," 202"
1723," 101",466482,466453,1,1,0.208162,-0.098262,9.941153,-0.006854,-0.014854,0.142804,0.769756,-3.280895,10.203903,-0.588414,0.680576,-0.495244,88.784126,-179.704217,126.407745,0.624746,-0.637541,-0.323764,-0.313704,1307.625000,87031.820312,-0.061573,-0.158591,1.681885,1.167725,1.204359,20.250000,25.378523,0,0.000000,0," 202"
1724," 101",468606,468604,1,1,0.209869,-0.097395,9.945522,-0.008559,-0.012817,0.147201,-0.671822,-3.761421,9.723377,-0.210089,-0.096293,0.109712,88.769209,-179.678686,126.669902,0.625976,-0.637770,-0.322472,-0.312112,1307.605591,87035.367188,-0.056863,-0.114527,1.681885,1.148315,1.271651,20.375000,25.396593,0,0.000000,0," 202"
1725," 101",470796,470779,1,1,0.197486,-0.054393,9.957311,0.045113,0.059676,0.158136,-0.671822,-1.839317,9.242851,0.305112,-1.439827,-0.913057,88.555595,-179.839414,126.282971,0.625637,-0.635941,-0.324788,-0.314118,1307.635376,87035.726562,-0.020018,0.069480,1.681885,1.178101,1.251869,20.375000,25.423697,0,0.000000,0," 202"
1726," 101",472908,472892,1,1,0.207779,-0.055251,9.926295,0.025745,0.006423,0.127588,-1.152348,-5.202998,8.281800,-0.418078,-0.696787,-0.220413,88.805450,-179.701539,126.006376,0.624295,-0.635759,-0.325936,-0.315962,1307.432007,87034.523438,-1.266241,0.073574,1.681885,0.974731,1.162669,20.375000,25.432730,0,0.000000,0," 202"
1727," 101",475039,475012,1,1,0.200656,-0.081187,9.930818,0.003757,-0.004881,0.132174,0.289230,1.043838,9.723377,-0.065427,-0.494159,-0.855419,88.814739,-179.727098,125.672339,0.623351,-0.634827,-0.327623,-0.317949,1307.508545,87035.085938,0.122337,-0.145639,1.681885,1.051270,1.085355,20.375000,25.450798,0,0.000000,0," 202"
1728," 101",477183,477168,1,1,0.199038,-0.106152,9.941989,-0.009009,-0.007024,0.143541,1.250281,-3.761421,10.684429,0.242812,0.436554,0.550496,88.751615,-179.779964,125.502513,0.622379,-0.634832,-0.328453,-0.318985,1307.587646,87031.687500,-0.484412,0.129960,1.681885,1.130371,1.169330,20.500000,25.468866,0,0.000000,0," 202"
1729," 101",479328,479296,1,1,0.183285,-0.085199,9.954733,0.000857,-0.004545,0.155784,-1.152348,-4.241947,9.723377,0.854965,0.364814,0.390037,88.881887,-179.796056,125.274549,0.622300,-0.633631,-0.329354,-0.320595,1307.461304,87031.156250,0.216657,-0.031891,1.681885,1.004028,0.961129,20.375000,25.491453,0,0.000000,0," 202"
1730," 101",481473,481461,1,1,0.198303,-0.050293,9.931514,0.026613,0.077985,0.132279,-0.671822,-4.241947,9.723377,0.367852,-0.311800,0.443763,88.447644,-179.732808,125.115364,0.622375,-0.632638,-0.331334,-0.320368,1307.714600,87029.851562,0.360892,0.044188,1.681885,1.257324,1.143989,20.375000,25.505003,0,0.000000,0," 202"
1731," 101",483618,483590,1,1,0.198302,-0.052493,9.939425,0.047186,0.033408,0.140374,-0.191296,-3.761421,9.723377,0.186595,1.365648,-0.114209,88.694064,-179.874152,124.487847,0.620588,-0.630827,-0.334575,-0.324018,1307.453003,87037.046875,0.236182,0.113868,1.681885,0.995728,0.950321,20.375000,25.536623,0,0.000000,0," 202"
1732," 101",485762,485760,1,1,0.196138,-0.112479,9.954214,-0.005569,0.007730,0.155777,-0.671822,-3.280895,9.723377,-0.270728,0.090633,-0.592994,88.658663,-179.861694,124.516070,0.618860,-0.632716,-0.333728,-0.324512,1307.597900,87029.781250,-0.246987,0.023318,1.681885,1.140625,0.965394,20.500000,25.550175,0,0.000000,0," 202"
1733," 101",487976,487949,1,1,0.202629,-0.126321,9.944947,-0.005655,-0.022510,0.146786,0.769756,-3.761421,10.684429,-0.068282,0.589903,-0.057090,88.755351,-179.912032,124.247056,0.618483,-0.631553,-0.334666,-0.326524,1307.366577,87038.289062,0.122361,0.204064,1.681885,0.909302,1.003158,20.500000,25.568243,0,0.000000,0," 202"
1734," 101",490118,490077,1,1,0.186899,-0.083116,9.941243,-0.031568,-0.021222,0.125576,-0.671822,-4.241947,10.203903,-0.897238,1.597951,-0.568403,88.846336,-179.687469,123.887774,0.618613,-0.629363,-0.337593,-0.327493,1307.323120,87037.757812,0.062021,-0.064439,1.681885,0.865845,0.905918,20.375000,25.590828,0,0.000000,0," 202"
1735," 101",492265,492257,1,1,0.180038,-0.055562,9.941165,0.013387,0.039167,0.141864,0.769756,-3.761421,10.203903,0.149501,-0.564327,-0.153204,88.731957,-179.772997,123.416819,0.616383,-0.628835,-0.340047,-0.330163,1307.470459,87034.460938,-0.035813,0.203697,1.681885,1.013184,1.060330,20.500000,25.604380,0,0.000000,0," 202"
1736," 101",494462,494437,1,1,0.198173,-0.091649,9.958446,0.012029,0.012578,0.159824,-0.671822,-4.241947,9.242851,0.497093,-0.078651,-0.237285,88.685908,-179.880408,123.462855,0.616483,-0.628996,-0.339504,-0.330228,1307.390747,87034.031250,-0.417397,-0.082415,1.681885,0.933472,1.014490,20.500000,25.622446,0,0.000000,0," 202"
1737," 101",496542,496525,1,1,0.206355,-0.061555,9.955695,0.022468,0.002242,0.156998,-0.671822,-4.722473,9.242851,-0.070293,-0.224249,-0.713745,88.800218,-179.773338,123.302045,0.616425,-0.628128,-0.340477,-0.330985,1307.271484,87037.578125,-0.876213,-0.032493,1.681885,0.814209,0.976304,20.500000,25.640514,0,0.000000,0," 202"
1738," 101",498633,498620,1,1,0.196420,-0.081086,9.950745,0.025231,-0.003438,0.151981,-0.191296,-3.761421,10.203903,-0.404535,0.622341,-0.940676,88.817219,-179.920625,123.011488,0.615240,-0.627601,-0.341230,-0.333405,1307.652100,87033.179688,0.716740,0.079070,1.681885,1.194824,1.048529,20.500000,25.658583,0,0.000000,0," 202"
1739," 101",500724,500681,1,1,0.207490,-0.067529,9.956135,0.028388,0.006844,0.157483,-0.671822,-3.280895,9.242851,-0.483394,0.597161,-0.124470,88.747018,-179.841654,122.872781,0.614687,-0.627333,-0.342617,-0.333507,1307.617188,87032.078125,0.136526,0.134280,1.681885,1.159912,1.123356,20.500000,25.663099,0,0.000000,0," 202"
1740," 101",502815,502780,1,1,0.200859,-0.094223,9.947733,-0.010267,-0.009636,0.149197,-1.152348,-3.761421,9.242851,-0.185013,-0.100420,-0.445110,88.788757,-179.774240,122.623547,0.614389,-0.626165,-0.344219,-0.334599,1307.673462,87033.640625,-0.189671,0.190975,1.681885,1.216187,1.225758,20.625000,25.681168,0,0.000000,0," 202"
1741," 101",504992,504987,1,1,0.196785,-0.074460,9.942700,0.015627,0.015708,0.143902,-0.191296,-3.280895,10.203903,-0.393801,-1.021956,0.053150,88.721282,-179.849727,122.158452,0.612431,-0.625347,-0.346553,-0.337299,1307.497803,87033.000000,-0.144527,-0.010207,1.681885,1.040527,1.035812,20.500000,25.708267,0,0.000000,0," 202"
1742," 101",507085,507048,1,1,0.178521,-0.092215,9.950375,0.005071,0.026775,0.151366,-1.152348,-3.280895,9.242851,0.102418,0.200524,0.551215,88.692923,-179.934312,122.022791,0.611621,-0.625338,-0.346926,-0.338399,1307.630981,87032.679688,0.220471,0.114582,1.681885,1.173706,1.107846,20.625000,25.721819,0,0.000000,0," 202"
1743," 101",509187,509153,1,1,0.181052,-0.074082,9.939095,0.009021,0.043640,0.139920,-0.671822,-3.761421,9.242851,0.593350,-0.723541,0.848082,88.637510,-179.859303,122.091899,0.611749,-0.625621,-0.347112,-0.337453,1307.382812,87036.218750,-0.105765,0.089635,1.681885,0.925537,1.036041,20.625000,25.739885,0,0.000000,0," 202"
1744," 101",511291,511259,1,1,0.199973,-0.106503,9.941478,-0.023976,-0.039870,0.142950,-0.671822,-3.761421,9.723377,0.401327,0.659511,0.183270,88.927499,-179.768735,122.126993,0.613706,-0.623908,-0.346550,-0.337648,1307.638306,87034.695312,0.378308,0.311170,1.681885,1.181030,1.131802,20.625000,25.762470,0,0.000000,0," 202"
1745," 101",513401,513369,1,1,0.210022,-0.075432,9.943244,0.065746,0.003240,0.144530,-0.191296,-3.280895,9.723377,-0.749806,0.443063,0.375733,88.725824,179.898181,122.197576,0.612907,-0.625066,-0.346792,-0.336709,1307.651367,87033.382812,-0.003728,0.021247,1.681885,1.194092,1.153553,20.625000,25.776020,0,0.000000,0," 202"
1746," 101",515517,515484,1,1,0.199628,-0.070011,9.943903,0.009076,0.007432,0.145146,-0.191296,-3.761421,10.684429,-0.395728,0.576348,-0.318332,88.768205,-179.784622,122.011795,0.612451,-0.624459,-0.347562,-0.337869,1307.548340,87032.171875,0.220618,-0.006283,1.681885,1.091064,1.073783,20.625000,25.785055,0,0.000000,0," 202"
1747," 101",517643,517605,1,1,0.204905,-0.086701,9.953350,-0.002517,0.000774,0.154836,-0.191296,-5.202998,9.723377,0.180550,0.472832,-0.049900,88.729690,-179.792012,121.623840,0.611055,-0.623525,-0.349666,-0.339945,1307.599609,87030.640625,0.882317,0.115137,1.681885,1.142334,1.045160,20.625000,25.807638,0,0.000000,0," 202"
1748," 101",519771,519730,1,1,0.196725,-0.074163,9.952641,0.046335,0.006667,0.161343,-0.191296,-4.722473,10.203903,-0.053336,-1.184759,-0.092324,88.748644,-179.950404,121.160876,0.609312,-0.622463,-0.351368,-0.343249,1307.757568,87029.539062,0.433949,0.301577,1.681885,1.300293,1.125233,20.625000,25.812155,0,0.000000,0," 202"
1749," 101",521967,521951,1,1,0.185864,-0.083717,9.945870,-0.011207,0.010758,0.146947,-0.671822,-4.241947,10.203903,0.132564,0.885383,-0.350375,88.772051,-179.797148,121.010516,0.609586,-0.621298,-0.352445,-0.343768,1307.485840,87033.968750,-0.255538,-0.018073,1.681885,1.028564,1.082590,20.750000,25.834740,0,0.000000,0," 202"
1750," 101",524097,524077,1,1,0.195578,-0.112689,9.944752,-0.003934,-0.015097,0.146301,-0.671822,-3.761421,8.762325,-0.064395,0.057946,0.368079,88.786831,-179.960540,120.689716,0.607585,-0.621319,-0.353880,-0.345790,1307.672607,87028.679688,0.112596,-0.073212,1.681885,1.215332,1.141677,20.625000,25.848289,0,0.000000,0," 202"
1751," 101",526234,526206,1,1,0.214104,-0.073154,9.952549,0.032451,0.001613,0.154067,-0.671822,-3.761421,8.762325,-0.503859,-0.201459,0.221995,88.716105,-179.919627,120.701136,0.608400,-0.620564,-0.355009,-0.344557,1307.574219,87033.328125,-0.816507,-0.038209,1.681885,1.116943,1.172063,20.750000,25.861839,0,0.000000,0," 202"
1752," 101",528374,528332,1,1,0.192354,-0.081698,9.946223,0.002399,-0.002447,0.150548,0.289230,-6.164050,9.242851,-0.126333,0.050314,0.146175,88.773314,-179.920119,120.270001,0.606852,-0.619490,-0.356281,-0.347888,1307.823853,87029.031250,0.683442,0.134533,1.681885,1.366577,1.197618,20.750000,25.875389,0,0.000000,0," 202"
1753," 101",530672,530644,1,1,0.203203,-0.069557,9.950228,0.010181,0.007503,0.151537,-1.152348,-3.761421,10.203903,0.399575,-0.849426,0.059006,88.742428,-179.825494,119.761398,0.605802,-0.617404,-0.359787,-0.349814,1307.475098,87036.226562,-0.404062,-0.178487,1.681885,1.017822,1.129907,20.750000,25.907007,0,0.000000,0," 202"
1754," 101",532821,532820,1,1,0.196994,-0.098661,9.945980,-0.018613,0.005297,0.147401,-0.191296,-3.761421,9.723377,-0.329629,-0.901330,-0.014301,88.701693,-179.837884,119.082176,0.603088,-0.615886,-0.363337,-0.353490,1307.371826,87037.218750,-0.469940,-0.196215,1.681885,0.914551,1.010810,20.750000,25.907007,0,0.000000,0," 202"
1755," 101",535027,535006,1,1,0.205893,-0.064697,9.949050,0.019408,-0.008800,0.150368,0.289230,-4.722473,9.723377,0.844993,-1.027043,-0.181228,88.831774,-179.869740,118.673594,0.602421,-0.614002,-0.364960,-0.356224,1307.320312,87036.890625,-0.908225,0.140174,1.681885,0.863037,1.060764,20.750000,25.920557,0,0.000000,0," 202"
1756," 101",537107,537094,1,1,0.217589,-0.060381,9.938962,0.037333,-0.014293,0.140446,0.289230,-5.683524,9.723377,0.291234,0.723494,-0.434458,88.815791,-179.915584,118.816536,0.602633,-0.614684,-0.364002,-0.355668,1307.437744,87032.703125,-0.580358,0.151251,1.681885,0.980469,1.031916,20.750000,25.929590,0,0.000000,0," 202"
1757," 101",539266,539248,1,1,0.198982,-0.077092,9.927530,-0.005943,0.010670,0.128816,0.289230,-3.761421,9.723377,0.277425,-0.074593,-0.240851,88.717921,-179.802353,118.799379,0.602414,-0.614791,-0.364992,-0.354838,1307.408569,87034.156250,-0.509260,-0.067442,1.681885,0.951294,1.015860,20.875000,25.952173,0,0.000000,0," 202"
1758," 101",541348,541343,1,1,0.191476,-0.108395,9.928663,-0.023331,-0.021220,0.130051,-1.152348,-2.800369,7.801274,-0.049080,-0.346207,-0.039973,88.853091,-179.887225,118.527742,0.601057,-0.614444,-0.365277,-0.357437,1307.617065,87031.843750,0.818042,0.253507,1.681885,1.159790,1.033468,20.875000,25.965723,0,0.000000,0," 202"
1759," 101",543438,543402,1,1,0.199536,-0.093143,9.956940,-0.004287,0.004430,0.158372,-0.671822,-4.241947,9.723377,-0.577542,0.480867,-0.661355,88.709513,-179.905462,118.184211,0.600126,-0.613191,-0.367774,-0.358593,1307.409424,87036.375000,-0.116137,0.115443,1.681885,0.952148,0.981963,20.875000,25.983789,0,0.000000,0," 202"
1760," 101",545532,545503,1,1,0.207888,-0.095409,9.935558,-0.000526,-0.011900,0.137184,-0.671822,-5.202998,9.242851,0.177859,-0.925544,0.591207,88.752100,-179.918698,118.054178,0.599904,-0.612592,-0.368267,-0.359481,1307.465942,87034.953125,0.588819,0.011567,1.681885,1.008667,0.936253,20.875000,26.001856,0,0.000000,0," 202"
1761," 101",547637,547609,1,1,0.187848,-0.065889,9.941468,0.027562,0.041780,0.142335,-1.632874,-4.241947,9.723377,-0.016331,-0.111754,-0.322918,88.625536,-179.983845,118.102399,0.600775,-0.612020,-0.368150,-0.359118,1307.202393,87040.476562,0.297842,0.041523,1.681885,0.745117,0.812907,20.875000,26.019922,0,0.000000,0," 202"
1762," 101",549743,549713,1,1,0.204931,-0.136803,9.954432,-0.041985,-0.027614,0.156354,-0.671822,-3.761421,9.242851,-0.343866,-0.574064,-1.474677,88.748247,-179.902005,117.911331,0.599488,-0.612100,-0.369130,-0.360127,1307.441895,87035.296875,0.159128,0.067586,1.681885,0.984619,0.945181,20.875000,26.028955,0,0.000000,0," 202"
1763," 101",551852,551822,1,1,0.196850,-0.073291,9.956886,0.005345,0.001974,0.158100,0.289230,-3.761421,9.723377,-0.049295,0.740504,0.059739,88.790137,-179.875340,117.808974,0.599475,-0.611466,-0.369684,-0.360655,1307.504761,87033.867188,0.541045,0.157465,1.681885,1.047485,0.993585,20.875000,26.047022,0,0.000000,0," 202"
1764," 101",553982,553973,1,1,0.205200,-0.105053,9.940246,-0.003649,-0.003957,0.141917,0.769756,-2.800369,10.203903,0.877143,0.083590,0.029631,88.694330,-179.966291,117.657030,0.598192,-0.611764,-0.370322,-0.361625,1307.419800,87032.875000,0.179683,-0.043669,1.681885,0.962524,0.897364,21.000000,26.047022,0,0.000000,0," 202"
1765," 101",556176,556150,1,1,0.200650,-0.086397,9.947023,-0.001373,-0.002028,0.148422,-0.671822,-2.800369,10.203903,-0.376199,-0.124985,-0.551862,88.756771,-179.901814,117.410201,0.597953,-0.610435,-0.371777,-0.362772,1307.380127,87038.296875,-0.907358,0.033039,1.681885,0.922852,1.045938,20.875000,26.069603,0,0.000000,0," 202"
1766," 101",558292,558263,1,1,0.204293,-0.118833,9.944307,-0.036160,-0.017319,0.146035,-0.191296,-5.202998,10.684429,0.023377,0.615013,-0.195815,88.740406,-179.867499,116.992603,0.595577,-0.610130,-0.373518,-0.365395,1307.403442,87036.867188,0.402938,-0.047937,1.681885,0.946167,0.911021,20.875000,26.087669,0,0.000000,0," 202"
1767," 101",560419,560419,1,1,0.190807,-0.086083,9.952688,-0.031004,-0.006111,0.153839,-0.671822,-3.280895,9.242851,-0.197095,0.069794,-0.541627,88.831378,-179.770306,116.718275,0.596577,-0.607368,-0.375901,-0.365922,1306.946777,87042.289062,-1.223676,-0.077653,1.681885,0.489502,0.839463,20.875000,26.110252,0,0.000000,0," 202"
1768," 101",562564,562546,1,1,0.214224,-0.111384,9.932617,0.008118,-0.044834,0.134447,-0.191296,-4.241947,9.723377,-0.397910,-0.163682,-0.331900,88.866259,179.927564,116.418170,0.593712,-0.608242,-0.376782,-0.368216,1307.391479,87029.367188,-0.219723,-0.068197,1.681885,0.934204,0.838041,21.000000,26.110252,0,0.000000,0," 202"
1769," 101",564708,564707,1,1,0.192604,-0.104926,9.947637,-0.015738,-0.005646,0.149040,-0.671822,-3.280895,9.723377,-0.109337,0.007491,0.021427,88.770534,-179.962097,116.187747,0.593924,-0.606557,-0.377911,-0.369495,1307.384521,87036.882812,0.316437,0.160565,1.681885,0.927246,0.862399,21.000000,26.128317,0,0.000000,0," 202"
1770," 101",566852,566839,1,1,0.204451,-0.048709,9.945971,0.032775,0.003728,0.147137,0.289230,-3.280895,9.242851,-0.194169,0.679320,-0.870549,88.795874,-179.930323,115.727652,0.592674,-0.604801,-0.380425,-0.371793,1307.144043,87040.531250,-0.529597,-0.019135,1.681885,0.686768,0.819360,21.000000,26.141867,0,0.000000,0," 202"
1771," 101",568997,568971,1,1,0.200474,-0.065129,9.941011,0.043177,-0.000243,0.142152,0.769756,-2.800369,9.723377,-0.042527,1.434767,-0.271273,88.797117,179.910065,115.513908,0.592178,-0.603865,-0.381909,-0.372583,1307.125244,87041.976562,0.589105,-0.005542,1.681885,0.667969,0.728030,21.000000,26.164450,0,0.000000,0," 202"
1772," 101",571142,571142,1,1,0.204638,-0.063422,9.953475,0.036355,-0.002865,0.154714,0.769756,-3.761421,10.203903,0.350973,0.221024,-0.521211,88.794597,179.956333,114.936907,0.589708,-0.602540,-0.384011,-0.376465,1307.164307,87037.789062,-0.253436,0.051395,1.681885,0.707031,0.719864,21.125000,26.173481,0,0.000000,0," 202"
1773," 101",573371,573340,1,1,0.205600,-0.098292,9.959469,0.007534,-0.006486,0.161071,-0.671822,-4.241947,10.684429,-0.513362,-0.241512,0.672782,88.726732,179.933233,114.527560,0.587925,-0.601589,-0.386266,-0.378462,1307.216064,87037.351562,-0.503308,0.302489,1.681885,0.758789,0.813769,21.125000,26.191547,0,0.000000,0," 202"
1774," 101",575518,575516,1,1,0.197041,-0.049641,9.950785,0.028793,0.021261,0.151795,-0.671822,-2.800369,10.203903,-0.212932,-0.925527,-0.619299,88.726001,-179.960048,114.268518,0.587426,-0.600364,-0.388174,-0.379228,1307.187256,87034.046875,0.044573,-0.036856,1.681885,0.729980,0.689002,21.000000,26.205097,0,0.000000,0," 202"
1775," 101",577719,577698,1,1,0.193968,-0.097671,9.945992,0.022610,0.011015,0.147330,-0.671822,-3.761421,10.203903,-0.293326,0.241769,0.095321,88.686899,179.815153,114.226164,0.586318,-0.601165,-0.387374,-0.380490,1307.016113,87040.671875,-0.702522,0.090352,1.681885,0.558838,0.733339,21.000000,26.218645,0,0.000000,0," 202"
1776," 101",579797,579788,1,1,0.200428,-0.089960,9.942055,0.002234,0.006272,0.143479,-0.671822,-3.761421,9.723377,0.199986,-0.199661,0.006192,88.697998,179.989760,114.292076,0.587187,-0.600754,-0.387886,-0.379276,1307.132690,87040.234375,0.228914,-0.028203,1.681885,0.675415,0.704659,21.000000,26.236712,0,0.000000,0," 202"
1777," 101",581879,581844,1,1,0.199457,-0.094630,9.952130,-0.001753,0.008160,0.131275,0.769756,-3.761421,11.164955,-0.131518,0.094139,0.225249,88.719499,179.974078,114.582297,0.588206,-0.601676,-0.386212,-0.377942,1307.364502,87035.828125,0.628053,0.282644,1.681885,0.907227,0.845885,21.125000,26.254776,0,0.000000,0," 202"
1778," 101",583971,583945,1,1,0.192245,-0.103705,9.950959,-0.005138,0.010249,0.152350,-0.191296,-2.800369,9.723377,-0.314106,-0.315784,-0.146483,88.686407,179.944230,114.452899,0.587504,-0.601507,-0.386848,-0.378651,1307.173096,87039.804688,-0.098607,0.108875,1.681885,0.715820,0.817681,21.125000,26.254776,0,0.000000,0," 202"
1779," 101",586074,586047,1,1,0.186221,-0.121556,9.938467,-0.044268,0.002171,0.139856,-0.671822,-2.800369,9.723377,-0.093514,0.418609,-0.214079,88.721910,-179.948423,113.995181,0.585833,-0.600141,-0.388439,-0.381766,1307.187012,87036.601562,-0.554976,-0.243613,1.681885,0.729736,0.714282,21.125000,26.263809,0,0.000000,0," 202"
1780," 101",588176,588147,1,1,0.193871,-0.089977,9.946126,0.001684,0.012103,0.147415,0.289230,-3.761421,9.723377,-0.715116,0.235929,-0.442351,88.699596,179.961510,113.556458,0.584652,-0.598338,-0.391585,-0.383190,1307.083130,87038.265625,-0.798875,-0.099825,1.681885,0.625854,0.708884,21.125000,26.277357,0,0.000000,0," 202"
1781," 101",590345,590307,1,1,0.205565,-0.081375,9.943110,0.008892,-0.002288,0.144564,-0.671822,-4.722473,9.723377,0.586021,0.846284,0.098917,88.740078,179.989869,113.445515,0.584589,-0.597657,-0.392174,-0.383747,1307.043701,87039.921875,-0.435763,-0.092244,1.681885,0.586426,0.717721,21.250000,26.290907,0,0.000000,0," 202"
1782," 101",592451,592419,1,1,0.194792,-0.097983,9.945786,-0.025397,0.010497,0.147138,-1.152348,-3.280895,10.203903,0.146799,-0.819683,-0.173105,88.685908,-179.929545,113.240814,0.583897,-0.596961,-0.393833,-0.384184,1307.188721,87038.601562,0.162992,0.394107,1.681885,0.731445,0.774773,21.250000,26.304455,0,0.000000,0," 202"
1783," 101",594560,594530,1,1,0.185018,-0.084657,9.939787,-0.000666,-0.016783,0.140855,-0.671822,-4.241947,9.723377,0.629279,0.795122,0.215981,88.924268,179.981167,113.479433,0.585168,-0.597318,-0.391609,-0.383969,1307.113159,87038.273438,-0.196084,0.027627,1.681885,0.655884,0.663689,21.250000,26.318005,0,0.000000,0," 202"
1784," 101",596676,596643,1,1,-0.342532,0.070185,60.104412,-0.007498,0.253893,50.303894,-2.593925,3.926993,35.191246,1.315125,1.362434,64.916324,90.089792,179.975649,107.003472,0.568781,-0.568069,-0.420135,-0.421036,1308.073364,87020.937500,2.592381,3.507020,1.681885,1.616089,0.889109,21.250000,26.336069,0,0.000000,0," 202"
1785," 101",597559,598695,1,1,-0.153698,0.380068,-1.000994,-0.213739,-0.063348,-10.859473,0.289230,-4.241947,0.112860,11.677022,17.415266,-24.887444,90.231976,-169.422842,-102.522697,-0.509610,0.588956,-0.388769,-0.492227,1367.127563,86380.539062,36.089001,38.744259,60.670288,60.670288,50.323746,21.250000,26.345102,2,0.000000,0," 202"
1786," 101",599073,599045,1,1,0.089191,-0.077694,-0.737439,0.219385,0.074356,-10.511035,-0.671822,-3.761421,-0.848191,-28.910067,-20.776571,18.110656,90.159283,-170.064757,-101.212366,-0.506352,0.582557,-0.399071,-0.494952,1377.012329,86271.203125,39.973244,38.101402,70.555054,70.555054,58.714149,21.250000,26.345102,3,0.000000,0," 202"
1787," 101",599214,599084,1,1,0.010206,0.042294,-0.736694,0.102984,0.026743,-10.531267,-1.632874,-3.280895,-1.328717,-28.516537,-20.215027,14.483080,90.701661,-168.891167,-100.579187,-0.501257,0.582081,-0.393920,-0.504727,1377.831055,86269.101562,40.235767,37.713776,71.373779,71.373779,60.119251,21.250000,26.349617,3,0.000000,0," 202"
1788," 101",599387,599371,1,1,0.020969,0.031257,-0.566137,0.103419,0.036494,-10.357687,0.769756,-4.241947,0.593386,4.635231,5.741265,-10.021026,90.964473,-166.845962,-102.239073,-0.501005,0.593472,-0.373625,-0.507139,1381.132446,86215.945312,35.448284,37.228886,74.675171,74.675171,64.807213,21.250000,26.290907,3,0.000000,0," 202"
1789," 101",599643,599619,1,1,0.126973,-0.132579,-0.426074,0.258016,0.090806,-10.175727,0.289230,-5.202998,0.112860,-5.935905,-6.460161,-25.742471,91.209868,-166.610485,-106.925990,-0.521637,0.607870,-0.346733,-0.488022,1384.688477,86173.445312,27.861135,36.575756,78.231201,78.231201,65.438667,21.250000,26.281874,3,0.000000,0," 202"
1790," 101",599796,599713,1,1,0.039675,-0.117918,-0.401466,0.224326,0.010031,-10.156290,-1.632874,-5.202998,-1.328717,-15.589253,-12.427260,-28.041584,91.845820,-164.959204,-109.249381,-0.528025,0.616752,-0.322589,-0.486563,1387.045410,86134.046875,27.512951,35.676037,80.588135,80.588135,68.672623,21.250000,26.268326,3,0.000000,0," 202"
1791," 101",600176,600165,1,1,0.078206,-0.085037,-0.155664,0.149753,0.051957,-9.912595,-0.191296,-2.800369,0.593386,-5.302862,1.543964,31.089617,90.884184,-160.644410,-106.833666,-0.493727,0.626775,-0.316027,-0.513336,1398.370850,86052.250000,39.628975,35.067440,91.913574,91.913574,78.442207,21.250000,26.318005,3,0.000000,0," 202"
1792," 101",600336,600293,1,1,0.084528,-0.084461,-0.128189,0.139117,0.065143,-9.885345,-0.671822,-4.722473,0.112860,-6.811431,-1.969517,33.330838,90.905631,-159.777946,-102.751296,-0.471259,0.617634,-0.333336,-0.534163,1399.371094,86037.531250,36.358437,35.861839,92.913818,92.913818,80.284424,21.250000,26.272842,3,0.000000,0," 202"
1793," 101",600523,600511,1,1,0.064106,-0.076197,-0.076616,0.103592,0.061132,-9.837296,-0.191296,-3.280895,0.112860,-12.108436,-15.104890,42.756772,93.188287,-157.249492,-93.726212,-0.427064,0.589562,-0.356050,-0.585886,1401.218018,86024.132812,27.414171,34.828865,94.760742,94.760742,84.196846,21.250000,26.290907,3,0.000000,0," 202"
1794," 101",600770,600760,1,1,0.042223,-0.078062,-0.034737,0.078190,0.054069,-9.794214,-1.632874,-3.280895,-0.848191,-12.624153,-21.486283,46.037012,98.444104,-154.526719,-80.540068,-0.367564,0.539173,-0.378164,-0.656644,1403.145386,86004.257812,18.966867,32.764523,96.688110,96.688110,85.247505,21.250000,26.290907,3,0.000000,0," 202"
1795," 101",600862,600760,1,1,0.042223,-0.078062,-0.034737,0.078190,0.054069,-9.794214,-1.632874,-3.280895,-0.848191,-12.624153,-21.486283,46.037012,98.444104,-154.526719,-80.540068,-0.367564,0.539173,-0.378164,-0.656644,1403.145386,86004.257812,18.966867,32.764523,96.688110,96.688110,85.247505,21.250000,26.290907,3,0.000000,0," 202"
1796," 101",601193,601159,1,1,0.063449,-0.096283,0.021750,0.030682,0.077940,-9.709875,-0.191296,-3.280895,0.593386,-12.361312,-39.321338,37.099081,112.392518,-154.159296,-58.015033,-0.283952,0.425447,-0.384143,-0.768635,1408.355713,85957.070312,17.775349,26.426540,101.898438,101.898438,92.376976,21.250000,26.308971,3,0.000000,0," 202"
1797," 101",601355,601197,1,1,0.063449,-0.096283,0.021750,0.030851,0.081539,-9.722458,-0.191296,-3.280895,0.593386,-12.361312,-39.321338,37.099081,113.894217,-154.534492,-56.100486,-0.278361,0.413206,-0.382638,-0.778051,1408.355713,85957.070312,17.775349,26.095629,101.898438,101.898438,93.277596,21.250000,26.308971,3,0.000000,0," 202"
1798," 101",601486,601481,1,1,0.104689,-0.071156,-0.008734,-0.024863,0.110151,-9.743139,-0.671822,-4.722473,0.112860,-10.053717,-49.501321,29.873311,126.127339,-160.247453,-42.294840,-0.244396,0.303621,-0.361066,-0.847181,1408.954590,85956.281250,14.067836,24.473242,102.497314,102.497314,95.820396,21.250000,26.263809,3,0.000000,0," 202"
1799," 101",601588,601481,1,1,0.104689,-0.071156,-0.008734,-0.024863,0.110151,-9.743139,-0.671822,-4.722473,0.112860,-10.053717,-49.501321,29.873311,126.127339,-160.247453,-42.294840,-0.244396,0.303621,-0.361066,-0.847181,1408.954590,85956.281250,14.067836,24.473242,102.497314,102.497314,95.820396,21.250000,26.263809,3,0.000000,0," 202"
1800," 101",601728,601720,1,1,0.166874,-0.037935,-0.102813,-0.098565,0.173611,-9.800202,-0.191296,-3.761421,0.112860,-4.301545,-59.252437,29.924230,135.461093,-169.333094,-32.826200,-0.226563,0.189130,-0.337641,-0.893811,1409.415894,85953.179688,9.955105,22.600697,102.958618,102.958618,97.485451,21.250000,26.268326,3,0.000000,0," 202"
1801," 101",601843,601720,1,1,0.166874,-0.037935,-0.102813,-0.098565,0.173611,-9.800202,-0.191296,-3.761421,0.112860,-4.301545,-59.252437,29.924230,135.461093,-169.333094,-32.826200,-0.226563,0.189130,-0.337641,-0.893811,1409.415894,85953.179688,9.955105,22.600697,102.958618,102.958618,97.485451,21.250000,26.268326,3,0.000000,0," 202"
1802," 101",602200,602194,1,1,0.252107,0.027576,-0.316422,-0.339449,0.213475,-9.861362,-0.191296,-4.722473,-0.848191,18.804081,-80.175472,19.866391,146.660882,159.635905,-21.536606,-0.225983,-0.113615,-0.309003,-0.916810,1408.906006,85969.000000,-2.626061,12.834320,103.398438,102.448730,99.883148,21.125000,26.308971,3,0.000000,0," 202"
1803," 101",602321,602194,1,1,0.252107,0.027576,-0.316422,-0.339449,0.213475,-9.861362,-0.191296,-4.722473,-0.848191,18.804081,-80.175472,19.866391,146.660882,159.635905,-21.536606,-0.225983,-0.113615,-0.309003,-0.916810,1408.906006,85969.000000,-2.626061,12.834320,103.398438,102.448730,99.883148,21.125000,26.308971,3,0.000000,0," 202"
1804," 101",602482,602466,1,1,0.088797,-0.029663,-0.400764,-0.330745,0.230693,-9.883252,0.289230,-4.722473,-0.367666,26.559650,-83.714405,25.278682,147.920806,136.785972,-15.877898,-0.224183,-0.315031,-0.303305,-0.870921,1408.521973,85973.406250,-4.409864,10.416460,103.398438,102.064697,100.287498,21.125000,26.254776,3,0.000000,0," 202"
1805," 101",602720,602701,1,1,-0.166783,-0.166198,-0.304444,-0.176383,0.336059,-9.864859,-1.152348,-4.722473,0.593386,24.485808,-67.093952,28.980913,143.612691,119.202975,-5.968188,-0.200435,-0.466043,-0.293967,-0.810070,1407.029053,85995.156250,-4.960541,8.240005,103.398438,100.571777,100.382858,21.125000,26.259293,3,0.000000,0," 202"
1806," 101",602856,602810,1,1,-0.273538,-0.241468,-0.203908,-0.077455,0.409844,-9.828140,0.289230,-5.202998,-0.848191,19.063324,-52.244721,29.547190,139.786843,113.729910,0.508001,-0.184420,-0.514572,-0.285587,-0.787175,1405.864502,86022.343750,-5.278842,7.238609,103.398438,99.407227,100.294167,21.125000,26.245743,3,0.000000,0," 202"
1807," 101",603226,603225,1,1,0.024698,0.125795,-0.209708,-0.201232,-0.006974,-9.941957,-1.152348,-2.800369,-0.367666,-17.971727,24.879437,39.069430,150.380876,113.990823,0.449199,-0.136051,-0.527448,-0.212293,-0.811308,1399.774414,86071.601562,-20.734367,-1.729414,103.398438,93.317139,97.877548,21.250000,26.299940,3,0.000000,0," 202"
1808," 101",603365,603225,1,1,0.024698,0.125795,-0.209708,-0.201232,-0.006974,-9.941957,-1.152348,-2.800369,-0.367666,-17.971727,24.879437,39.069430,150.380876,113.990823,0.449199,-0.136051,-0.527448,-0.212293,-0.811308,1399.774414,86071.601562,-20.734367,-1.729414,103.398438,93.317139,97.877548,21.250000,26.299940,3,0.000000,0," 202"
1809," 101",603541,603522,1,1,0.163419,0.245166,-0.147421,-0.163896,-0.158040,-10.039131,-0.191296,-3.280895,0.112860,20.193055,-1.962944,57.964284,146.037572,116.601356,19.612994,-0.012629,-0.537532,-0.159262,-0.827971,1398.434937,86094.765625,-19.061316,-5.150589,103.398438,91.977661,96.542770,21.250000,26.250259,3,0.000000,0," 202"
1810," 101",603695,603628,1,1,0.051790,-0.175927,13.456709,11.930257,-4.476362,-5.471127,-1.152348,-2.800369,-1.809243,37.645718,-15.158420,65.562754,137.022720,116.957441,34.252224,0.050552,-0.556858,-0.155164,-0.814418,1396.725952,86132.007812,-17.525864,-6.067276,103.398438,90.268677,95.972397,21.250000,26.232195,3,0.000000,0," 202"
1811," 101",603880,603862,1,1,1.563428,0.457655,-14.489573,-12.920040,4.454949,-14.883074,1.250281,-5.202998,-46.017624,-31.982532,51.796661,24.320325,143.126614,120.446752,42.407166,0.151390,-0.538517,-0.085518,-0.824480,1393.671509,86158.835938,-15.243416,-7.717716,103.398438,87.214233,94.698967,21.250000,26.232195,4,0.000000,1," 202"
1812," 101",604274,604266,1,1,-7.815934,36.255520,-7.581925,-31.059855,-14.113029,-26.206640,2.691859,-5.683524,48.645973,1908.781495,1003.812139,1355.626986,165.299143,149.513141,-70.536088,0.579973,0.141628,0.251344,0.761839,1384.263306,86243.250000,-28.675056,-12.363518,103.398438,77.806030,87.825882,21.250000,26.272842,5,0.000000,1," 202"
1813," 101",604588,604572,1,1,-8.221391,20.009489,-5.538057,21.196291,5.030140,-14.705683,6.055540,-6.164050,-13.822390,270.160619,456.966976,-1009.225036,81.523410,-25.835015,-127.608779,-0.194930,-0.432858,-0.496284,0.726869,1383.351440,86237.867188,-25.274857,-16.369083,103.398438,76.894165,84.952148,21.125000,26.250259,5,0.000000,1," 202"
1814," 101",604675,604572,1,1,-8.221391,20.009489,-5.538057,21.196291,5.030140,-14.705683,6.055540,-6.164050,-13.822390,270.160619,456.966976,-1009.225036,81.523410,-25.835015,-127.608779,-0.194930,-0.432858,-0.496284,0.726869,1383.351440,86237.867188,-25.274857,-16.369083,103.398438,76.894165,84.952148,21.125000,26.250259,5,0.000000,1," 202"
1815," 101",604768,604686,1,1,-3.298594,1.580218,-9.002967,6.792162,6.093904,-6.460030,1.250281,-15.774568,-7.575553,-16.975742,571.722132,-1274.531003,41.126553,-65.371044,49.662780,0.794823,0.055956,-0.583020,0.158785,1382.706055,86253.703125,-21.543537,-16.752377,103.398438,76.248779,84.160934,21.125000,26.214128,5,0.000000,1," 202"
1816," 101",604888,604865,1,1,-1.474434,-3.199642,0.370695,0.783131,-3.454206,-9.866175,8.938695,-0.878266,3.957067,-467.200184,906.859024,-649.348215,92.596998,34.701811,-166.651193,0.290786,-0.124444,0.709323,-0.629935,1381.799072,86269.718750,-18.032784,-16.847221,103.398438,75.341797,83.359192,21.125000,26.209614,5,0.000000,1," 202"
1817," 101",604996,604958,1,1,5.089300,4.763204,2.871572,-4.789819,3.610699,-5.234217,1.250281,-2.319843,-2.289769,-948.780048,238.149353,253.964492,6.323977,166.612643,-6.655333,0.119367,-0.051144,0.990373,0.047935,1380.966431,86276.679688,-15.203937,-17.715870,103.398438,74.509155,81.875916,21.125000,26.209614,5,0.000000,1," 202"
1818," 101",605330,605310,1,1,-4.351945,1.582453,-12.410075,2.696520,-7.417070,-20.439112,-5.957607,-5.683524,-6.133976,324.793527,-428.405966,199.184190,42.483199,-151.536257,162.215968,0.382381,-0.878829,-0.227649,0.172107,1376.907349,86306.851562,-15.519026,-16.254408,103.398438,70.450073,77.141670,21.125000,26.272842,5,0.000000,1," 202"
1819," 101",605449,605416,1,1,-4.697424,0.341847,-9.691505,4.376430,-2.093161,-19.422510,-0.671822,-3.280895,-5.653450,241.608653,-123.322590,-174.233208,66.261844,-131.758215,159.608776,0.551532,-0.712699,-0.355119,0.248522,1376.573608,86310.765625,-13.384396,-16.041815,103.398438,70.116333,76.503006,21.125000,26.236712,5,0.000000,1," 202"
1820," 101",605597,605563,1,1,-1.226478,0.980632,-9.410987,7.310720,1.470324,-15.752813,0.769756,3.446467,-16.225018,99.309127,39.771006,-312.628331,89.060408,-128.483440,131.934598,0.703019,-0.462272,-0.539821,0.025720,1376.100830,86319.179688,-12.064586,-15.747205,103.398438,69.643555,75.879417,21.125000,26.218645,5,0.000000,1," 202"
1821," 101",605834,605834,1,1,-1.068669,1.916919,-7.622503,4.531311,1.364110,-16.166973,-0.191296,-6.164050,-6.133976,77.859683,131.986657,698.390886,120.026586,-137.126457,-53.167323,0.197435,-0.491277,0.274383,0.802733,1374.435913,86343.484375,-9.822636,-15.651049,103.398438,67.978638,73.943062,21.250000,26.200581,5,0.000000,1," 202"
1822," 101",605949,605834,1,1,-1.068669,1.916919,-7.622503,4.531311,1.364110,-16.166973,-0.191296,-6.164050,-6.133976,77.859683,131.986657,698.390886,120.026586,-137.126457,-53.167323,0.197435,-0.491277,0.274383,0.802733,1374.435913,86343.484375,-9.822636,-15.651049,103.398438,67.978638,73.943062,21.250000,26.200581,5,0.000000,1," 202"
1823," 101",606104,606095,1,1,-2.132901,2.998108,-9.735551,6.086935,7.161049,-14.271735,-0.671822,-0.397740,-9.978183,-56.915669,80.196468,-36.013634,132.165281,-159.552782,93.396430,-0.704049,0.179082,0.391715,0.564627,1373.297729,86348.226562,-9.799290,-15.266465,103.398438,66.840454,72.126106,21.250000,26.209614,5,0.000000,1," 202"
1824," 101",606463,606440,1,1,-0.524773,2.652782,-8.385314,4.336791,5.521742,-15.123475,1.730806,0.563312,-8.536605,90.812324,124.658015,-264.826324,151.950180,-161.024975,27.837006,-0.268952,-0.097727,0.270478,0.919215,1370.056519,86369.929688,-12.950809,-13.245412,103.398438,63.599243,68.503006,21.250000,26.254776,5,0.000000,1," 202"
1825," 101",606601,606532,1,1,1.830398,1.932483,-9.601068,2.567302,5.929633,-17.384785,-2.113400,-3.761421,-6.614501,115.921329,3.227357,-107.505477,142.090952,-157.103708,14.995723,-0.184877,-0.144572,0.340129,0.910622,1370.009644,86373.023438,-10.983835,-14.551597,103.398438,63.552368,67.359024,21.250000,26.250259,5,0.000000,1," 202"
1826," 101",606771,606755,1,1,-0.351068,2.400476,-10.869811,7.341838,3.116907,-17.574072,-1.152348,-0.878266,-9.978183,109.534344,98.776632,135.834281,126.548707,-143.959433,20.528017,-0.288238,-0.195682,0.470048,0.810976,1369.041138,86394.703125,-7.712393,-14.106645,103.398438,62.583862,66.451576,21.250000,26.218645,5,0.000000,1," 202"
1827," 101",606916,606873,1,1,-0.354719,2.465205,-10.188020,9.450939,1.267747,-14.168078,0.769756,1.043838,-10.458709,124.939992,96.141217,346.139097,120.485220,-127.306530,55.010832,-0.554660,-0.136321,0.572433,0.588294,1368.206055,86411.515625,-6.555797,-11.857425,103.398438,61.748779,66.504539,21.250000,26.182514,5,0.000000,1," 202"
1828," 101",607092,607082,1,1,-0.380074,1.651515,-12.312678,9.760546,5.324506,-15.355763,-0.191296,-2.800369,-12.861338,-72.552134,56.233890,250.033910,121.586889,-129.834315,150.687128,-0.817167,0.333936,0.469813,-0.000102,1366.966431,86418.781250,-6.348833,-12.317076,103.398438,60.509155,65.231255,21.125000,26.209614,5,0.000000,1," 202"
1829," 101",607539,607533,1,1,-1.021036,1.436764,-10.426254,3.326204,4.558410,-18.743643,-2.113400,-2.319843,-7.575553,-13.147317,63.713644,113.976774,108.096848,-156.907040,172.681949,-0.799014,0.563707,0.198414,-0.066660,1362.781494,86459.828125,-13.368582,-10.977444,103.398438,56.324219,61.247520,21.125000,26.236712,5,0.000000,1," 202"
1830," 101",607691,607684,1,1,-0.746378,1.570637,-10.354375,0.148675,5.050999,-19.004389,-1.632874,-1.839317,-9.017131,19.760676,118.478551,103.777525,110.844319,-173.847698,-171.648582,-0.817769,0.568421,0.002802,-0.090241,1362.226807,86467.812500,-13.057949,-11.131556,103.398438,55.769531,60.749523,21.125000,26.196064,5,0.000000,1," 202"
1831," 101",607875,607875,1,1,-0.515412,1.412323,-10.431626,-3.153241,2.772694,-19.467871,-1.632874,-1.839317,-10.458709,9.848854,92.000927,404.662043,105.749394,170.788689,-111.753561,-0.685102,0.462119,-0.390488,-0.405710,1361.199707,86476.414062,-11.851158,-11.989823,103.398438,54.742432,59.791691,21.125000,26.209614,5,0.000000,1," 202"
1832," 101",608034,608033,1,1,0.137999,1.823292,-10.550500,-1.758884,-0.857456,-20.328468,-0.191296,0.082786,-8.536605,-34.307682,105.596432,397.888681,91.304254,178.389774,-48.811571,-0.304396,0.279651,-0.640640,-0.647085,1360.793213,86479.312500,-10.650836,-11.142416,103.398438,54.335938,59.146999,21.125000,26.173481,5,0.000000,1," 202"
1833," 101",608273,608234,1,1,-0.350623,1.650444,-9.533278,2.906628,-3.234655,-19.100876,-1.152348,-2.800369,-7.095027,6.210804,106.055434,217.912104,84.014223,-169.375646,24.190230,0.206891,-0.094446,-0.736428,-0.637142,1359.597900,86502.171875,-8.828823,-10.980509,103.398438,53.140625,58.675549,21.250000,26.173481,5,0.000000,1," 202"
1834," 101",608595,608594,1,1,1.431458,2.214893,-8.104090,8.165483,2.096795,-11.049768,1.730806,-0.878266,-7.575553,102.834700,154.084601,415.186409,149.794736,-124.664476,122.345572,0.807438,0.013999,-0.504014,-0.306295,1357.781006,86505.890625,-8.314854,-10.076723,103.398438,51.323730,55.112534,21.250000,26.223162,5,0.000000,1," 202"
1835," 101",608691,608594,1,1,1.431458,2.214893,-8.104090,8.165483,2.096795,-11.049768,1.730806,-0.878266,-7.575553,102.834700,154.084601,415.186409,149.794736,-124.664476,122.345572,0.807438,0.013999,-0.504014,-0.306295,1357.781006,86505.890625,-8.314854,-10.076723,103.398438,51.323730,55.112534,21.250000,26.223162,5,0.000000,1," 202"
1836," 101",608832,608827,1,1,-1.278537,2.727147,-9.431897,3.044579,9.301617,-11.298713,-2.113400,-1.358791,-9.017131,36.414918,158.518063,28.481933,159.883513,-147.387846,-151.645704,0.904232,-0.230228,-0.226979,0.278999,1356.395142,86529.656250,-7.346039,-10.314074,103.398438,49.937866,54.256351,21.250000,26.187031,5,0.000000,1," 202"
1837," 101",609023,609015,1,1,0.163851,2.483013,-9.202027,0.390545,9.423921,-8.420168,1.730806,-1.839317,-8.056079,115.301216,144.500520,-160.198740,173.192916,-177.818893,-177.153961,0.997719,-0.059811,-0.017519,0.025915,1355.952393,86531.414062,-6.885973,-9.469939,103.398438,49.495117,53.690987,21.250000,26.196064,5,0.000000,1," 202"
1838," 101",609153,609137,1,1,1.279891,1.511636,-9.809628,-0.229972,9.304849,-6.124200,0.289230,-1.839317,-9.978183,158.199107,31.485707,148.444859,10.842179,5.296453,20.223471,0.978251,0.100984,0.028714,0.178894,1355.607056,86532.664062,-6.564372,-9.254712,103.398438,49.149780,53.278149,21.250000,26.146383,5,0.000000,1," 202"
1839," 101",609265,609255,1,1,1.049858,1.638157,-10.497173,-3.878744,8.675892,-4.936779,1.250281,0.082786,-9.978183,125.317032,45.610528,322.801980,18.836629,17.637555,54.773148,0.854058,0.213154,0.059908,0.470702,1354.886475,86549.554688,-6.376013,-9.041475,103.398438,48.429199,52.837334,21.250000,26.146383,5,0.000000,1," 202"
1840," 101",609612,609599,1,1,-0.861513,3.053682,-13.954096,-9.101791,9.887805,-14.717569,-1.632874,-0.397740,-12.861338,72.745729,65.337631,-104.743922,169.599731,142.957417,-31.699898,0.285603,0.280850,0.169074,0.900538,1350.436279,86586.726562,-19.694735,-11.650568,103.398438,43.979004,49.150307,21.125000,26.209614,5,0.000000,1," 202"
1841," 101",609739,609727,1,1,-0.413806,2.221037,-12.997789,-9.215417,6.914055,-16.228962,-1.152348,-2.800369,-10.939234,121.698221,56.572558,-169.967290,149.153382,139.887219,-39.680909,0.393129,0.226181,0.347196,0.820821,1349.821655,86600.546875,-18.602575,-12.165531,103.398438,43.364380,48.624313,21.125000,26.173481,5,0.000000,1," 202"
1842," 101",609894,609866,1,1,-0.085189,1.166602,-11.638836,-9.160977,5.405180,-14.668365,-0.191296,-3.280895,-10.458709,58.523998,-11.008364,-160.883904,143.480664,132.942542,-57.717475,0.529790,0.193373,0.434575,0.702192,1349.244263,86605.742188,-16.344969,-12.475120,103.398438,42.786987,48.093647,21.125000,26.164450,5,0.000000,1," 202"
1843," 101",610032,609962,1,1,0.028717,0.980372,-11.110850,-8.842635,5.452241,-13.862259,-0.671822,-2.800369,-9.017131,-8.398793,-58.672623,-105.614034,146.694391,132.113672,-64.230293,0.564001,0.190076,0.428534,0.679803,1348.903076,86603.523438,-14.214442,-13.050604,103.398438,42.445801,47.604210,21.125000,26.173481,5,0.000000,1," 202"
1844," 101",610201,610187,1,1,-0.082484,0.923400,-8.830818,-6.076261,5.717893,-12.838693,-0.191296,-2.800369,-6.614501,-61.779177,19.192067,-94.730646,152.419291,142.803655,-92.315034,0.716537,0.051602,0.379887,0.582750,1347.729736,86622.632812,-10.470301,-13.468842,103.398438,41.272461,45.980583,21.125000,26.164450,5,0.000000,1," 202"
1845," 101",610638,610631,1,1,-0.509334,2.875910,-9.404397,-4.833539,2.347302,-18.053274,-1.632874,0.082786,-7.575553,37.256879,103.294624,251.331700,124.185393,156.140857,-32.714683,0.336333,0.046310,0.490843,0.802377,1345.010864,86640.609375,-9.869127,-10.844468,103.398438,38.553589,42.707710,21.125000,26.200581,5,0.000000,1," 202"
1846," 101",610772,610772,1,1,-0.554972,2.905107,-10.486315,-0.805793,0.884801,-20.630508,-0.191296,-1.839317,-12.380812,77.922951,126.464777,260.100953,109.648326,170.549755,7.482680,-0.005801,0.104653,0.568513,0.815970,1344.294189,86661.609375,-9.521807,-10.746493,103.398438,37.836914,42.264912,21.125000,26.155416,5,0.000000,1," 202"
1847," 101",610940,610919,1,1,-0.249596,2.049862,-11.527605,3.426455,4.321935,-20.132030,0.289230,-1.839317,-10.458709,-10.389938,150.169728,229.119802,119.783186,-170.452343,41.102145,-0.341716,0.108073,0.493357,0.792559,1343.670898,86665.906250,-9.097029,-10.624310,103.398438,37.213623,41.805702,21.125000,26.182514,5,0.000000,1," 202"
1848," 101",611093,611022,1,1,-0.169495,2.692514,-12.262868,5.370727,7.244933,-18.537277,-0.671822,0.082786,-10.939234,-61.798356,152.805675,176.602860,135.392682,-165.858372,61.589824,-0.510192,0.094992,0.381832,0.764778,1343.046753,86672.539062,-8.395263,-10.459196,103.398438,36.589478,41.331501,21.125000,26.155416,5,0.000000,1," 202"
1849," 101",611274,611257,1,1,1.179781,2.331282,-9.230243,7.564127,5.441258,-12.081534,1.250281,-1.358791,-8.536605,118.034343,132.808275,78.062601,167.206268,-142.142821,93.887896,-0.711545,-0.143079,0.307502,0.615366,1342.155518,86674.304688,-7.021580,-11.498396,103.398438,35.698242,39.922749,21.125000,26.164450,5,0.000000,1," 202"
1850," 101",611662,611657,1,1,0.004195,2.032501,-11.589081,5.620584,5.590742,-1.106719,-0.671822,-2.319843,-10.939234,99.279136,77.952546,44.051821,48.698330,-35.343797,40.926149,-0.857037,-0.271363,0.396450,-0.186215,1337.967773,86717.132812,-14.746703,-10.084436,103.398438,31.510498,36.554314,21.125000,26.200581,5,0.000000,1," 202"
1851," 101",611824,611801,1,1,0.160230,1.505460,-11.433670,2.762197,5.489296,-0.040939,-0.671822,-3.280895,-9.017131,110.754693,58.797540,21.744708,54.759915,-18.859564,46.747963,-0.833983,-0.358725,0.313533,-0.278363,1337.451172,86729.179688,-14.424471,-10.847218,103.398438,30.993896,35.625580,21.125000,26.155416,5,0.000000,1," 202"
1852," 101",612072,612062,1,1,0.184486,0.841652,-10.853249,1.011354,3.306946,0.522599,-0.671822,-4.241947,-10.458709,52.702914,-72.501700,134.371842,70.014691,-9.297630,73.145732,-0.683342,-0.419653,0.394014,-0.449097,1336.422607,86738.781250,-11.425876,-11.055031,103.398438,29.965332,34.681561,21.250000,26.168966,5,0.000000,1," 202"
1853," 101",612257,612231,1,1,-0.162014,0.520712,-10.952783,1.237967,1.374746,1.008179,-0.671822,-2.319843,-9.978183,11.703847,-81.179585,97.011513,83.671327,-9.182753,91.418332,-0.556826,-0.421578,0.517554,-0.494323,1335.510254,86759.546875,-9.629162,-10.949410,103.398438,29.052979,34.169872,21.250000,26.132833,5,0.000000,1," 202"
1854," 101",612379,612360,1,1,-0.260249,0.757199,-9.644374,1.224426,0.470754,-0.212768,-2.113400,-3.280895,-7.575553,-20.321894,-37.492093,-49.189110,88.428943,-11.854410,86.067016,-0.570242,-0.456495,0.527443,-0.433866,1334.871704,86759.546875,-8.156884,-10.742557,103.398438,28.414429,33.646648,21.250000,26.132833,5,0.000000,1," 202"
1855," 101",612709,612682,1,1,0.687002,1.599643,-9.420552,1.347215,0.645231,-0.338108,-0.191296,-2.800369,-7.095027,154.046188,66.281576,-96.557968,75.522829,-8.239074,23.334865,-0.781129,-0.586687,0.179140,-0.116381,1332.130859,86777.203125,-9.209574,-10.056890,103.398438,25.673584,30.128286,21.250000,26.182514,5,0.000000,1," 202"
1856," 101",612810,612773,1,1,0.539994,1.138411,-8.727463,-0.014667,-0.689853,-1.010092,0.289230,-2.800369,-8.536605,157.915422,50.858091,-39.630178,86.299775,0.774516,20.673512,-0.716880,-0.673679,0.117862,-0.135453,1331.685059,86788.570312,-8.924929,-10.085474,103.398438,25.227783,29.278088,21.250000,26.205097,5,0.000000,1," 202"
1857," 101",612946,612913,1,1,1.068911,0.714200,-8.703514,-1.486131,-2.227027,-1.420333,1.250281,-2.319843,-8.536605,108.881255,39.603189,122.446563,96.867778,12.695189,36.364911,-0.600678,-0.729364,0.162345,-0.284356,1331.359985,86789.023438,-8.556696,-9.849967,103.398438,24.902710,29.176594,21.250000,26.146383,5,0.000000,1," 202"
1858," 101",613057,612954,1,1,1.366913,1.517812,-9.749950,-2.985401,-3.562911,-0.990393,1.250281,-0.878266,-9.017131,124.226019,28.704287,327.804247,99.673306,16.593810,47.898044,-0.538508,-0.728885,0.221906,-0.359851,1331.120239,86789.460938,-8.130741,-9.902984,103.398438,24.662964,28.808924,21.250000,26.168966,5,0.000000,1," 202"
1859," 101",613204,613198,1,1,-0.486629,2.954911,-9.646217,-5.165039,5.992570,-3.521725,-0.671822,-1.358791,-9.017131,108.211158,126.105072,452.397607,66.456286,30.967538,166.146305,0.048001,-0.285374,0.497299,-0.817894,1329.280762,86818.835938,-8.301414,-9.827065,103.398438,22.823486,27.520908,21.250000,26.146383,5,0.000000,1," 202"
1860," 101",613325,613198,1,1,-0.486629,2.954911,-9.646217,-5.165039,5.992570,-3.521725,-0.671822,-1.358791,-9.017131,108.211158,126.105072,452.397607,66.456286,30.967538,166.146305,0.048001,-0.285374,0.497299,-0.817894,1329.280762,86818.835938,-8.301414,-9.827065,103.398438,22.823486,27.520908,21.250000,26.146383,5,0.000000,1," 202"
1861," 101",613767,613740,1,1,-0.393832,1.485941,-11.378678,2.536653,4.379061,0.505632,-0.671822,-1.839317,-9.978183,-23.830301,-5.111222,-110.599546,70.589329,-5.941699,-132.137086,0.303267,0.272723,0.510241,-0.757169,1324.298340,86863.882812,-15.993146,-11.018629,103.398438,17.841064,23.086708,21.250000,26.173481,5,0.000000,1," 202"
1862," 101",613894,613833,1,1,-0.205919,1.882288,-11.694124,2.503286,4.993464,0.645857,-0.671822,-1.839317,-9.497657,-5.869984,6.469731,-131.027549,71.352719,-6.016287,-143.519377,0.224842,0.222781,0.539795,-0.780023,1323.966675,86867.632812,-15.519300,-10.974399,103.398438,17.509399,22.122854,21.250000,26.182514,5,0.000000,1," 202"
1863," 101",614050,614041,1,1,0.138491,1.042371,-9.885929,1.401402,4.064669,-0.837080,-1.632874,-2.319843,-9.017131,-35.337367,28.282553,-125.357153,71.713667,-7.573613,-167.012947,0.053020,0.119284,0.574680,-0.807900,1322.735352,86883.640625,-12.705929,-11.434882,103.398438,16.278076,21.197216,21.250000,26.137350,5,0.000000,1," 202"
1864," 101",614183,614181,1,1,0.377394,1.004123,-9.246836,0.398625,2.966406,-0.986456,-1.632874,-2.319843,-8.536605,-51.722232,-20.018759,-3.599990,77.966363,-3.338564,-166.906724,0.070381,0.094190,0.622143,-0.774024,1322.042847,86897.000000,-11.419861,-11.448611,103.398438,15.585571,20.777065,21.250000,26.119286,5,0.000000,1," 202"
1865," 101",614348,614327,1,1,-0.398477,1.434058,-9.616802,0.914125,3.227935,-0.666286,-0.671822,-1.839317,-7.095027,-3.801758,-24.575378,74.165677,77.375416,0.158556,-156.327102,0.160955,0.127157,0.612005,-0.763789,1321.611084,86895.125000,-10.015554,-11.342459,103.398438,15.153809,20.265860,21.250000,26.155416,5,0.000000,1," 202"
1866," 101",614499,614420,1,1,-0.321149,0.972079,-9.086483,1.123195,2.695497,-1.135841,-0.191296,-2.800369,-9.017131,14.630675,24.105703,54.005739,77.146980,-2.378889,-151.449855,0.180191,0.169440,0.600134,-0.760697,1320.931274,86908.484375,-9.446342,-11.402676,103.398438,14.473999,19.240763,21.250000,26.137350,5,0.000000,1," 202"
1867," 101",614886,614874,1,1,-0.611588,1.804928,-10.246823,3.146912,-2.593458,-0.209331,-1.632874,-1.358791,-9.978183,-27.078382,132.089274,-23.290546,108.410224,-7.534860,-126.074842,0.217116,0.401226,0.703963,-0.544348,1317.086548,86935.429688,-12.878976,-11.310958,103.398438,10.629272,15.550508,21.250000,26.173481,5,0.000000,1," 202"
1868," 101",615039,615000,1,1,-0.155667,2.269694,-10.957520,4.997255,-4.315657,-0.765209,-0.671822,-0.397740,-9.497657,-2.547784,133.137790,-2.327369,121.972357,-16.433138,-123.518398,0.117042,0.470614,0.729700,-0.482039,1316.837891,86941.273438,-11.791204,-11.390962,103.398438,10.380615,14.825417,21.250000,26.137350,5,0.000000,1," 202"
