index, checksum,uptime mp,uptime nav,missiontime,  errorflag mp,errorflag NAV,  accel x, accel y, accel z, accelworld x, accelworld y, accelworld z, accelhighg x, accelhighg y, accelhighg z, gyro x, gyro y, gyro z, euler x, euler y, euler z, quat w, quat x, quat y, quat z, altitude, presusre, verticalvel,filtered vvel, maxalt, altitudeagl, filtered alt, imutemp, barotemp,state,battstate,pyros fired,pyros cont,pyros state, checksum2
158, 101,4768,6369,-7372,1,1,0.132561,-0.450887,11.491457,0.088893,0.075064,1.699475,11.341324,7.125102,18.627647,5.228750,1.499190,-107.933088,89.757114,177.218889,70.407318,0.392600,-0.422370,-0.568964,-0.586300,1990.604248,80093.531250,-2.557178,0.280212,0.300293,-0.019287,0.046355,14.625000,19.554298,0,5.150000,0,0,0, 202
159, 101,6425,6421,-5715,1,1,0.007186,-0.532011,11.743340,0.002379,0.055565,1.954256,10.860798,8.086153,18.627647,-9.097021,8.047144,-116.772438,90.795262,177.623304,64.953583,0.369945,-0.389418,-0.584311,-0.608337,1990.615356,80094.125000,-1.813787,-0.682617,0.300293,-0.008179,0.021743,14.625000,19.536106,0,5.150000,0,0,0, 202
160, 101,6474,6472,-5666,1,1,-0.082220,-0.815008,12.201571,-0.109534,0.186017,2.426131,10.860798,7.605628,19.108173,-8.370209,8.744339,-118.247076,91.406175,177.420284,59.367861,0.340693,-0.359756,-0.598597,-0.629433,1990.792236,80090.351562,0.871528,-0.586696,0.300293,0.168701,-0.008927,14.625000,19.531557,0,5.150000,0,0,0, 202
161, 101,6525,6523,-5615,1,1,-0.493404,-0.978592,11.916769,0.065899,0.383593,2.159727,10.860798,7.605628,18.147121,7.725980,-6.007697,-109.163020,92.833711,177.273312,53.993414,0.314114,-0.328217,-0.606286,-0.652705,1991.360107,80081.671875,8.331851,0.721923,0.736572,0.736572,0.245807,14.625000,19.527010,0,5.150000,0,0,0, 202
162, 101,6575,6572,-5565,1,1,-0.276328,-0.692876,11.747677,0.219339,0.300887,1.964445,10.860798,7.605628,18.627647,15.312553,-25.886113,-95.895405,91.751837,177.239680,49.448063,0.284914,-0.306811,-0.624980,-0.658856,1991.576904,80080.835938,10.415820,0.814733,0.953369,0.953369,0.280575,14.625000,19.522461,0,5.150000,0,0,0, 202
163, 101,6624,6623,-5516,1,1,-0.110158,-0.552204,11.604765,0.092190,0.028899,1.817016,10.860798,8.086153,19.108173,10.037195,-27.447740,-94.524067,92.163240,177.995181,45.172102,0.265411,-0.277998,-0.635496,-0.669641,1991.198242,80091.476562,2.973979,2.646780,0.953369,0.574707,0.484062,14.625000,19.527010,0,5.150000,0,0,0, 202
164, 101,6675,6672,-5465,1,1,0.140201,-0.564025,11.507549,0.034765,0.075453,1.720917,10.860798,7.125102,18.627647,2.495144,-14.506866,-116.375864,91.313776,177.480061,40.285241,0.231785,-0.255396,-0.650631,-0.676556,1991.358887,80083.093750,-1.150104,2.729649,0.953369,0.735352,0.606537,14.625000,19.513365,0,5.150000,0,0,0, 202
165, 101,6725,6723,-5415,1,1,0.082427,-0.735850,11.625939,-0.008501,0.111994,1.847954,10.860798,7.605628,18.147121,3.260533,0.089579,-139.659473,92.216276,177.669544,34.185933,0.198296,-0.217742,-0.658231,-0.692819,1991.410645,80086.187500,1.820203,2.150023,0.953369,0.787109,0.620239,14.625000,19.508818,0,5.150000,0,0,0, 202
166, 101,6775,6772,-5365,1,1,-0.019929,-0.842905,11.558568,0.009003,0.295815,1.784499,10.380273,7.605628,18.147121,6.407539,13.987293,-157.795333,92.291661,178.134366,27.194292,0.158542,-0.174268,-0.670558,-0.703454,1991.403564,80083.093750,1.012822,2.241467,0.953369,0.780029,0.720845,14.625000,19.513365,0,5.150000,0,0,0, 202
167, 101,6824,6823,-5316,1,1,-0.222563,-0.650597,11.850642,0.084626,0.008588,2.069269,11.341324,8.086153,19.108173,5.536473,5.433500,-158.169136,93.278992,179.538817,19.782157,0.122166,-0.120821,-0.675873,-0.716710,1991.461670,80082.945312,0.496554,1.475286,0.953369,0.838135,0.674289,14.625000,19.517914,0,5.150000,0,0,0, 202
168, 101,6875,6872,-5265,1,1,-0.419210,-0.725715,11.298411,0.338620,0.178044,1.521991,10.380273,7.125102,18.627647,0.144529,-7.360238,-142.375252,93.155441,179.532397,12.913830,0.078890,-0.080243,-0.682671,-0.722010,1991.732666,80080.156250,4.231654,1.568544,1.109131,1.109131,0.743832,14.625000,19.513365,0,5.150000,0,0,0, 202
169, 101,6925,6922,-5215,1,1,-0.270008,-0.688688,10.883762,0.437639,0.135659,1.098245,10.860798,7.125102,17.666595,-0.612889,-22.473626,-129.091053,93.051512,178.680699,6.757232,0.048213,-0.036289,-0.682998,-0.727924,1991.521362,80088.828125,3.537624,2.194842,1.172363,0.897827,0.753477,14.625000,19.517914,0,5.150000,0,0,0, 202
170, 101,6975,6972,-5165,1,1,-0.040475,-0.718136,10.221481,0.114913,0.078200,0.444815,10.860798,8.086153,16.705544,0.427289,-27.254258,-123.625604,93.585381,179.505964,1.092208,0.003995,-0.009668,-0.684573,-0.728869,1991.800049,80080.835938,1.260421,2.237453,1.176514,1.176514,0.856260,14.625000,19.522461,0,5.150000,0,0,0, 202
171, 101,7025,7022,-5115,1,1,0.029109,-0.551107,9.692136,0.262699,-0.052860,-0.096864,10.860798,7.605628,17.186069,-0.115274,-19.441954,-127.146307,93.570778,178.543822,-4.726916,-0.029833,0.027411,-0.685977,-0.726495,1992.027588,80078.046875,5.491576,3.264053,1.404053,1.404053,0.998521,14.625000,19.517914,0,5.150000,0,0,0, 202
172, 101,7075,7072,-5065,1,1,0.040542,-0.644310,9.323805,0.186003,0.105577,-0.457319,11.341324,7.605628,16.225018,5.113059,-8.563728,-137.342974,93.282673,179.356615,-10.836070,-0.072488,0.060761,-0.683870,-0.723446,1991.935547,80078.875000,3.241328,3.253053,1.404053,1.312012,1.149941,14.625000,19.522461,0,5.150000,0,0,0, 202
173, 101,7125,7122,-5015,1,1,-0.054662,-0.654898,9.046619,0.380972,0.153090,-0.739840,10.860798,7.125102,16.225018,13.321561,0.692855,-143.230419,92.884753,179.152433,-17.322463,-0.101362,0.110475,-0.674574,-0.722822,1992.076660,80077.750000,1.686292,2.752347,1.453125,1.453125,1.169752,14.625000,19.527010,0,5.150000,0,0,0, 202
174, 101,7175,7172,-4965,1,1,-0.058158,-0.567937,8.912828,0.102682,0.044984,-0.870609,10.860798,8.566679,16.225018,19.695892,3.323642,-146.018899,92.888346,-178.831032,-24.051147,-0.144108,0.150788,-0.672364,-0.710227,1992.095459,80078.726562,3.332145,2.717433,1.624512,1.471924,1.298342,14.625000,19.527010,0,5.150000,0,0,0, 202
175, 101,7225,7222,-4915,1,1,-0.088490,-0.476821,8.937574,0.191431,0.020705,-0.852349,10.380273,7.605628,16.225018,14.452062,-0.220794,-148.069321,92.195656,-179.169632,-30.930129,-0.180773,0.196146,-0.664329,-0.698223,1992.105713,80076.765625,0.554971,2.039685,1.624512,1.482178,1.287430,14.625000,19.527010,0,5.150000,0,0,0, 202
176, 101,7275,7272,-4865,1,1,-0.186048,-0.419328,9.024026,0.163608,-0.153898,-0.768113,10.860798,8.086153,15.744493,-0.873969,-12.169345,-141.018340,92.362845,-178.478895,-37.610543,-0.223869,0.232236,-0.652273,-0.685922,1992.337158,80072.546875,1.511963,2.000428,1.713623,1.713623,1.382072,14.625000,19.536106,0,5.150000,0,0,0, 202
177, 101,7325,7322,-4815,1,1,-0.197357,-0.557646,9.204203,0.329860,-0.191322,-0.585695,11.821850,8.086153,16.705544,-4.834877,-13.682984,-136.274923,92.833151,-178.760052,-43.960778,-0.250811,0.277956,-0.638244,-0.672666,1992.513428,80073.828125,5.567505,3.183843,1.889893,1.889893,1.514343,14.625000,19.527010,0,5.150000,0,0,0, 202
178, 101,7375,7373,-4765,1,1,-0.135523,-0.694856,9.464749,0.160059,-0.079981,-0.311498,10.380273,6.644576,18.147121,-5.964338,-17.331629,-128.041390,92.554664,-177.223437,-49.977614,-0.290028,0.307762,-0.618888,-0.661924,1992.588135,80073.828125,5.430981,3.164447,1.989502,1.964600,1.663670,14.625000,19.527010,0,5.150000,0,0,0, 202
179, 101,7424,7423,-4716,1,1,0.014387,-0.668261,9.588573,0.137979,-0.156206,-0.191418,10.380273,8.086153,16.705544,0.204697,-15.286669,-128.655328,93.240640,-177.571299,-55.826049,-0.320649,0.341316,-0.602129,-0.646628,1992.683105,80070.585938,3.146360,3.171686,2.059570,2.059570,1.719703,14.625000,19.536106,0,5.150000,0,0,0, 202
180, 101,7474,7473,-4666,1,1,-0.034160,-0.672620,9.616518,0.171494,-0.164346,-0.163854,10.860798,8.566679,16.225018,10.821336,-9.681871,-129.016782,92.687901,-177.396706,-61.796908,-0.357977,0.368507,-0.583763,-0.628710,1992.920410,80066.960938,3.707830,3.163360,2.296875,2.296875,1.867545,14.625000,19.527010,0,5.150000,0,0,0, 202
181, 101,7525,7522,-4615,1,1,-0.053960,-0.622931,9.627135,0.277057,-0.286920,-0.161830,11.341324,7.605628,14.783442,11.560537,-13.769293,-119.142159,92.829647,-178.103863,-67.427969,-0.392505,0.392585,-0.566752,-0.608777,1992.931885,80069.757812,4.927170,3.157426,2.312988,2.308350,2.012585,14.625000,19.531557,0,5.150000,0,0,0, 202
182, 101,7575,7573,-4565,1,1,-0.010395,-0.467410,9.498240,0.005129,-0.115218,-0.291961,11.821850,7.125102,16.225018,6.371353,-8.325114,-118.165961,91.458958,-177.318623,-72.973072,-0.412541,0.428439,-0.551111,-0.585258,1993.165894,80065.835938,4.302729,3.658231,2.542358,2.542358,2.084367,14.625000,19.531557,0,5.150000,0,0,0, 202
183, 101,7624,7623,-4516,1,1,-0.109855,-0.492652,9.623855,0.057511,-0.317125,-0.169309,11.821850,8.566679,16.705544,-5.036433,-9.868530,-112.644532,91.842992,-177.339933,-78.246552,-0.440647,0.451763,-0.529006,-0.567356,1993.174927,80068.476562,4.807006,3.646989,2.582275,2.551392,2.253760,14.625000,19.540653,0,5.150000,0,0,0, 202
184, 101,7675,7672,-4465,1,1,-0.103399,-0.563499,9.701543,0.039335,-0.156168,-0.083890,10.860798,7.125102,17.186069,-8.884713,-7.896786,-109.534036,90.699332,-176.859580,-83.360854,-0.458509,0.481714,-0.511721,-0.543933,1993.080933,80067.648438,0.705060,3.665545,2.582275,2.457397,2.285259,14.625000,19.536106,0,5.150000,0,0,0, 202
185, 101,7725,7722,-4415,1,1,-0.054842,-0.540042,9.512944,-0.072207,-0.207455,-0.275114,10.860798,7.605628,16.705544,-11.548753,-4.541177,-109.156101,91.013370,-176.308383,-88.316265,-0.480484,0.504455,-0.486519,-0.527219,1993.253540,80065.390625,0.953542,3.658310,2.630005,2.630005,2.453454,14.625000,19.545202,0,5.150000,0,0,0, 202
186, 101,7775,7772,-4365,1,1,-0.117902,-0.710725,9.789515,0.014074,-0.108247,0.014381,10.860798,8.086153,16.705544,-8.471099,-5.028743,-107.370376,89.708661,-175.975507,-93.262169,-0.495312,0.532023,-0.468495,-0.502126,1993.550903,80060.484375,5.109714,3.231490,2.927368,2.927368,2.461708,14.625000,19.545202,0,5.150000,0,0,0, 202
187, 101,7825,7821,-4315,1,1,-0.163214,-0.782439,9.893271,0.020509,-0.260653,0.121062,10.860798,8.086153,17.666595,0.443103,-5.979314,-107.936557,89.932247,-175.774918,-98.142155,-0.516470,0.551254,-0.443519,-0.482358,1993.457520,80065.390625,4.807503,3.233723,2.927368,2.833984,2.610519,14.625000,19.545202,0,5.150000,0,0,0, 202
188, 101,7875,7872,-4265,1,1,-0.044406,-0.680871,10.178665,0.007865,-0.016359,0.400493,10.860798,7.605628,17.186069,7.898825,-12.642365,-103.218160,88.997993,-176.368243,-102.853059,-0.533600,0.571204,-0.427145,-0.454472,1993.777832,80060.335938,4.450291,3.606786,3.154297,3.154297,2.721643,14.625000,19.549751,0,5.150000,0,0,0, 202
189, 101,7924,7922,-4216,1,1,-0.003951,-0.526192,9.992627,-0.067067,-0.070056,0.205002,10.860798,8.086153,18.147121,9.301754,-5.518357,-100.554380,89.474966,-176.747223,-107.470930,-0.555364,0.584329,-0.403899,-0.432431,1993.786499,80059.507812,4.620592,3.625190,3.162964,3.162964,2.889240,14.625000,19.545202,0,5.150000,0,0,0, 202
190, 101,7975,7972,-4165,1,1,0.064770,-0.513646,10.103642,0.012152,-0.023138,0.315863,10.860798,6.644576,16.705544,-0.639261,-1.357456,-98.221228,89.377977,-177.233765,-112.069252,-0.573508,0.598944,-0.382999,-0.407022,1993.572998,80068.039062,0.465146,3.155302,3.162964,2.949463,2.890242,14.625000,19.554298,0,5.150000,0,0,0, 202
191, 101,8025,8022,-4115,1,1,-0.004035,-0.590907,9.907583,0.038968,-0.117771,0.123415,11.341324,7.605628,15.263968,-4.863746,6.398897,-102.004593,89.123921,-177.186677,-116.742372,-0.588103,0.615511,-0.358862,-0.382753,1993.801758,80057.250000,-0.253087,3.165366,3.178223,3.178223,3.035467,14.625000,19.554298,0,5.160000,0,0,0, 202
192, 101,8074,8072,-4066,1,1,-0.104302,-0.631911,9.901085,-0.030548,-0.016215,0.120717,11.341324,7.605628,16.225018,-1.821558,4.566532,-94.132895,87.682034,-177.015076,-121.308750,-0.594366,0.637339,-0.337629,-0.355716,1993.953979,80061.171875,4.763939,3.329622,3.380127,3.330444,3.096762,14.625000,19.554298,0,5.150000,0,0,0, 202
193, 101,8125,8121,-4015,1,1,-0.122332,-0.630665,10.010268,-0.045199,-0.054231,0.229613,11.341324,6.644576,15.263968,6.751758,0.873734,-82.902370,87.656353,-177.202346,-125.312115,-0.606849,0.648386,-0.316255,-0.333634,1994.063232,80057.250000,4.425731,3.334634,3.468750,3.439697,3.249875,14.625000,19.554298,0,5.150000,0,0,0, 202
194, 101,8175,8172,-3965,1,1,-0.116820,-0.677758,10.033855,0.028308,-0.067412,0.256132,11.341324,9.047205,16.705544,5.152005,-4.564659,-71.750864,87.444754,-177.565029,-128.798885,-0.616536,0.657947,-0.298959,-0.312429,1994.116577,80060.187500,3.150297,3.628356,3.570068,3.493042,3.299411,14.625000,19.554298,0,5.150000,0,0,0, 202
195, 101,8225,8221,-3915,1,1,-0.009177,-0.631003,9.977800,0.048819,-0.093896,0.196177,10.860798,7.125102,17.186069,11.023445,-11.083298,-61.048060,88.091279,-177.612731,-131.725785,-0.628186,0.661722,-0.280647,-0.297897,1994.130493,80061.851562,2.676190,3.640383,3.661865,3.506958,3.467115,14.625000,19.563395,0,5.150000,0,0,0, 202
196, 101,8274,8272,-3866,1,1,0.010156,-0.588463,9.793015,0.000681,-0.016723,0.009671,10.380273,8.086153,15.744493,11.257343,-8.817771,-56.127424,87.733377,-177.505511,-134.433368,-0.632685,0.670386,-0.265214,-0.282760,1994.208008,80056.117188,1.313008,2.987758,3.661865,3.584473,3.395927,14.625000,19.558847,0,5.150000,0,0,0, 202
197, 101,8325,8321,-3815,1,1,0.061893,-0.525564,9.927170,0.011285,-0.041237,0.140173,10.380273,7.125102,15.744493,10.909375,-1.089864,-56.742445,88.265585,-177.736071,-136.991629,-0.642529,0.672680,-0.250247,-0.268393,1994.204834,80056.117188,-0.076881,2.993198,3.661865,3.581299,3.533007,14.625000,19.558847,0,5.150000,0,0,0, 202
198, 101,8374,8371,-3766,1,1,0.005438,-0.451619,9.716266,-0.053637,-0.084944,-0.074762,10.860798,7.605628,15.744493,4.479813,1.972881,-55.406860,88.495920,-177.932657,-139.563468,-0.648161,0.678393,-0.238380,-0.250690,1994.590332,80054.007812,5.688751,3.955842,3.980469,3.966797,3.604463,14.625000,19.563395,0,5.150000,0,0,0, 202
199, 101,8424,8422,-3716,1,1,-0.050783,-0.508920,9.817582,-0.014940,-0.085592,0.029511,10.380273,8.086153,16.705544,-0.865843,2.800886,-52.080049,87.975999,-178.322251,-142.091267,-0.653358,0.683703,-0.224058,-0.235525,1994.606201,80053.328125,5.386427,3.950147,3.982666,3.982666,3.789987,14.625000,19.554298,0,5.150000,0,0,0, 202
200, 101,8474,8472,-3666,1,1,-0.130362,-0.659821,9.966130,-0.010614,-0.249362,0.184681,11.821850,9.047205,16.225018,-0.090201,-0.751037,-41.367710,87.922027,-178.326581,-144.171414,-0.649546,0.695198,-0.214568,-0.220794,1994.706421,80055.820312,3.692921,3.870570,4.224609,4.082886,3.784663,14.625000,19.567944,0,5.150000,0,0,0, 202
201, 101,8524,8522,-3616,1,1,-0.125940,-0.703631,9.923317,-0.001568,-0.121478,0.147287,11.341324,7.605628,17.186069,7.376159,-9.257963,-24.895609,86.945043,-178.293100,-145.553394,-0.653882,0.696120,-0.205066,-0.214018,1994.699219,80052.882812,3.091143,3.875906,4.224609,4.075684,3.965749,14.625000,19.567944,0,5.150000,0,0,0, 202
202, 101,8575,8571,-3565,1,1,-0.015727,-0.615298,9.926843,0.017098,-0.116715,0.144206,11.341324,7.125102,17.186069,13.158951,-10.440095,-16.971948,87.667677,-178.210960,-146.425513,-0.659721,0.693649,-0.197963,-0.210784,1994.997803,80046.851562,2.681181,3.885837,4.374268,4.374268,4.144654,14.625000,19.572491,0,5.150000,0,0,0, 202
203, 101,8624,8622,-3516,1,1,0.023094,-0.579980,9.944506,0.005184,-0.087114,0.160049,11.341324,8.086153,17.186069,11.487956,-9.573572,-9.273111,87.778750,-178.093262,-146.878656,-0.661000,0.693977,-0.194331,-0.209069,1995.026611,80047.828125,5.127604,3.795361,4.403076,4.403076,4.145514,14.625000,19.572491,0,5.150000,0,0,0, 202
204, 101,8675,8671,-3465,1,1,0.069834,-0.486085,9.767297,-0.000907,-0.091771,-0.021797,11.341324,7.605628,16.705544,9.418827,-7.515056,-7.372784,88.363134,-178.108548,-147.256693,-0.665249,0.691206,-0.191072,-0.207773,1995.047852,80049.789062,3.053025,3.801917,4.451904,4.424316,4.320704,14.625000,19.572491,0,5.150000,0,0,0, 202
205, 101,8724,8722,-3416,1,1,0.025642,-0.515187,9.902351,-0.018250,-0.079949,0.114438,11.341324,7.125102,17.666595,6.081781,1.319161,-8.240595,88.026105,-178.173954,-147.635359,-0.664015,0.693685,-0.189774,-0.204625,1995.368408,80040.132812,3.364126,3.336226,4.744873,4.744873,4.261026,14.625000,19.567944,0,5.150000,0,0,0, 202
206, 101,8775,8771,-3365,1,1,0.017559,-0.607309,9.879043,0.064776,-0.174895,0.094950,10.380273,8.086153,16.705544,3.957244,3.760975,-6.136275,88.085603,-178.420428,-147.942553,-0.665369,0.693456,-0.189251,-0.201462,1995.202881,80048.812500,4.186427,3.337277,4.747559,4.579346,4.413878,14.625000,19.572491,0,5.150000,0,0,0, 202
207, 101,8824,8821,-3316,1,1,-0.097322,-0.600229,10.008114,-0.025524,-0.085878,0.225169,10.860798,7.125102,16.225018,2.025068,1.983025,-1.373285,87.282837,-178.512308,-148.117720,-0.660967,0.698246,-0.190125,-0.198565,1995.628540,80043.906250,5.207535,3.985684,5.027832,5.005005,4.580557,14.625000,19.572491,0,5.150000,0,0,0, 202
208, 101,8875,8871,-3265,1,1,-0.139788,-0.584292,10.032870,-0.063287,-0.122325,0.248898,10.860798,7.125102,17.186069,4.792126,-2.746544,13.999752,87.455511,-178.527116,-147.639580,-0.661210,0.696427,-0.192819,-0.201523,1995.628906,80044.585938,6.400520,4.000635,5.057861,5.005371,4.763480,14.625000,19.581587,0,5.150000,0,0,0, 202
209, 101,8924,8921,-3216,1,1,-0.065809,-0.676826,10.050471,0.022135,-0.217401,0.270080,10.860798,7.605628,15.744493,4.970746,-9.635020,28.258533,87.817136,-178.311268,-146.522092,-0.654026,0.699371,-0.199032,-0.208608,1995.799561,80043.609375,4.585288,4.198671,5.259277,5.176025,4.790278,14.625000,19.581587,0,5.150000,0,0,0, 202
210, 101,8974,8971,-3166,1,1,0.083682,-0.612255,9.961914,0.072229,0.030718,0.179753,11.341324,8.086153,18.147121,8.184285,-6.932908,31.580500,87.216263,-178.005644,-145.070185,-0.654045,0.694193,-0.205827,-0.218989,1995.714600,80042.773438,1.603619,4.208012,5.259277,5.091064,4.985155,14.625000,19.577040,0,5.150000,0,0,0, 202
211, 101,9025,9020,-3115,1,1,0.106368,-0.551411,10.245090,0.075943,0.048489,0.459074,11.341324,7.605628,17.666595,9.034135,0.800464,27.141587,87.595954,-178.123151,-143.769376,-0.654047,0.689440,-0.213621,-0.226407,1996.174561,80034.781250,4.906291,4.221483,5.551025,5.551025,5.177434,14.625000,19.581587,0,5.150000,0,0,0, 202
212, 101,9074,9070,-3066,1,1,-0.016991,-0.529692,10.204844,-0.013489,-0.034819,0.417528,10.380273,7.605628,16.705544,5.917410,8.696170,27.351238,87.778313,-178.192792,-142.564681,-0.652871,0.685990,-0.220887,-0.233209,1996.163452,80036.742188,6.733899,4.906293,5.551025,5.539917,5.248685,14.625000,19.581587,0,5.150000,0,0,0, 202
213, 101,9125,9120,-3015,1,1,-0.112363,-0.538946,10.099254,-0.007219,-0.083724,0.312899,11.341324,8.086153,17.186069,0.523111,4.769042,35.985996,87.697730,-178.534902,-141.089701,-0.650079,0.682887,-0.231828,-0.239411,1996.241943,80033.117188,2.868810,4.923203,5.618408,5.618408,5.473457,14.625000,19.572491,0,5.150000,0,0,0, 202
214, 101,9174,9170,-2966,1,1,-0.068623,-0.603200,10.190276,0.036177,-0.006063,0.407278,10.860798,7.605628,17.666595,1.404596,0.650533,45.523983,87.220136,-178.277404,-139.147373,-0.642505,0.682066,-0.242951,-0.250896,1996.465210,80033.656250,4.555801,4.539389,5.841675,5.841675,5.450799,14.625000,19.586136,0,5.150000,0,0,0, 202
215, 101,9224,9219,-2916,1,1,-0.026047,-0.636015,10.225081,0.117564,-0.007124,0.443199,10.860798,7.605628,17.186069,4.292229,-1.898095,46.992531,87.339746,-178.333548,-136.954473,-0.638428,0.676507,-0.256000,-0.263084,1996.662476,80031.539062,6.291629,4.557725,6.038940,6.038940,5.659650,14.625000,19.590683,0,5.150000,0,0,0, 202
216, 101,9275,9269,-2865,1,1,0.014273,-0.607370,10.062477,0.173885,0.031234,0.278253,10.860798,7.125102,17.186069,4.558189,3.060223,48.340281,87.449637,-178.476641,-134.729074,-0.632982,0.671668,-0.264029,-0.280152,1996.700195,80029.046875,5.173213,4.762197,6.076660,6.076660,5.667786,14.625000,19.577040,0,5.150000,0,0,0, 202
217, 101,9325,9319,-2815,1,1,-0.004605,-0.562899,9.973789,0.058267,0.038191,0.188419,10.380273,8.566679,17.186069,5.472698,7.696897,53.854300,87.585742,-177.963994,-132.354928,-0.627811,0.665208,-0.280264,-0.291212,1996.867432,80029.875000,4.473086,4.776533,6.243896,6.243896,5.888854,14.625000,19.581587,0,5.150000,0,0,0, 202
218, 101,9374,9369,-2766,1,1,0.036167,-0.505647,9.919109,0.098589,0.148064,0.129462,11.341324,7.605628,17.666595,0.565451,5.797049,55.836120,87.438777,-178.192491,-129.794618,-0.623981,0.656152,-0.291715,-0.308246,1997.047241,80027.914062,5.670568,5.056804,6.423706,6.423706,5.952497,14.625000,19.581587,0,5.150000,0,0,0, 202
219, 101,9424,9419,-2716,1,1,-0.016463,-0.535898,10.038684,0.021868,0.061453,0.251780,11.341324,7.125102,18.147121,-6.758158,10.317255,55.103985,87.727332,-177.747149,-127.216959,-0.614304,0.651778,-0.308218,-0.320653,1997.167725,80026.492188,5.324790,5.066197,6.544189,6.544189,6.189968,14.625000,19.595232,0,5.150000,0,0,0, 202
220, 101,9475,9469,-2665,1,1,-0.095883,-0.601173,10.156021,0.029062,0.097496,0.372742,11.341324,9.047205,16.705544,-9.391614,8.675746,60.029488,87.083976,-177.680241,-124.586284,-0.605310,0.645917,-0.322339,-0.335393,1996.980957,80030.562500,1.565807,3.924589,6.544189,6.357422,6.105010,14.625000,19.590683,0,5.150000,0,0,0, 202
221, 101,9525,9519,-2615,1,1,-0.128737,-0.730396,10.233196,0.086313,0.020326,0.458654,11.341324,6.164050,17.186069,-5.340863,3.513887,66.676471,87.133475,-177.382198,-121.642623,-0.593516,0.640137,-0.339417,-0.350372,1997.099609,80026.492188,-0.305044,3.943135,6.544189,6.476074,6.289184,14.625000,19.595232,0,5.150000,0,0,0, 202
222, 101,9574,9569,-2566,1,1,-0.065235,-0.581227,10.187740,0.011224,0.162417,0.402217,11.341324,8.086153,16.705544,1.461778,-4.868167,73.295416,87.217199,-177.361448,-118.317673,-0.587804,0.625637,-0.354512,-0.370655,1997.289673,80024.382812,2.784892,3.554957,6.666138,6.666138,6.316357,14.625000,19.599779,0,5.150000,0,0,0, 202
223, 101,9624,9619,-2516,1,1,0.040231,-0.503778,9.993519,0.006248,0.158903,0.204026,11.341324,8.566679,16.705544,-0.288496,1.563240,76.253366,88.090855,-177.318514,-114.764896,-0.576356,0.614029,-0.373640,-0.388812,1997.544067,80019.773438,5.178871,3.570842,6.920532,6.920532,6.481686,14.625000,19.590683,0,5.150000,0,0,0, 202
224, 101,9674,9668,-2466,1,1,0.020449,-0.471111,9.952968,-0.022636,0.227931,0.160499,11.341324,7.605628,15.744493,-5.463718,5.442250,76.555233,87.814369,-177.302135,-111.307549,-0.562850,0.603892,-0.392889,-0.405158,1997.580811,80023.398438,5.661798,3.578821,6.957275,6.957275,6.645110,14.625000,19.599779,0,5.150000,0,0,0, 202
225, 101,9725,9718,-2415,1,1,-0.010552,-0.565909,9.871346,0.015379,0.028019,0.086508,10.860798,7.605628,17.186069,-11.439638,4.199921,71.211880,88.772433,-176.984996,-107.882387,-0.554216,0.588357,-0.405626,-0.426788,1997.725220,80022.273438,5.291852,4.503831,7.101685,7.101685,6.768670,14.625000,19.604328,0,5.160000,0,0,0, 202
226, 101,9774,9768,-2366,1,1,-0.100063,-0.559474,10.004497,-0.083867,0.026737,0.219241,10.380273,8.086153,17.186069,-9.675929,0.705579,74.027318,88.491371,-176.564707,-104.513724,-0.538353,0.579014,-0.421762,-0.443888,1997.744019,80024.085938,3.642722,4.509776,7.194824,7.120483,6.976668,14.625000,19.608875,0,5.150000,0,0,0, 202
227, 101,9825,9818,-2315,1,1,-0.075804,-0.567022,10.169065,-0.053836,0.043350,0.383908,11.341324,7.605628,17.666595,-11.767852,-3.074476,79.391435,88.736233,-176.642926,-100.861123,-0.525461,0.563865,-0.439392,-0.461391,1997.825928,80025.898438,3.811214,4.298224,7.390015,7.202393,7.014322,14.625000,19.613424,0,5.150000,0,0,0, 202
228, 101,9875,9868,-2265,1,1,-0.056495,-0.633958,10.306241,-0.078131,0.059453,0.524408,10.380273,7.125102,17.186069,-10.065222,-8.907963,81.946690,88.927390,-176.111401,-97.046941,-0.508462,0.550151,-0.454612,-0.481797,1998.159912,80013.593750,3.845598,4.315255,7.536377,7.536377,7.213243,14.625000,19.599779,0,5.150000,0,0,0, 202
229, 101,9925,9919,-2215,1,1,-0.082254,-0.557997,10.206378,-0.031191,-0.048458,0.420788,10.860798,8.086153,16.705544,-2.903677,-7.841114,82.102159,89.637661,-176.726200,-93.181921,-0.497929,0.528937,-0.472633,-0.498909,1998.121338,80020.156250,4.867544,4.072017,7.564453,7.497803,7.252615,14.625000,19.608875,0,5.150000,0,0,0, 202
230, 101,9975,9969,-2165,1,1,-0.066009,-0.634535,10.306421,0.039483,-0.048715,0.524957,11.341324,8.086153,16.225018,2.063536,-4.855504,82.472608,89.947239,-176.691789,-89.297436,-0.481962,0.511461,-0.488741,-0.516966,1998.321777,80014.421875,3.256109,4.092177,7.698242,7.698242,7.441145,14.625000,19.604328,0,5.150000,0,0,0, 202
231, 101,10955,12317,-1185,1,1,-0.096578,-0.539023,8.378507,-0.156139,0.071605,-0.478879,11.341324,6.644576,14.302916,1.319452,0.664735,-16.780844,88.912233,-175.980835,-96.617472,-0.506019,0.549020,-0.456120,-0.484227,2004.528809,79951.476562,4.607720,5.931397,13.905273,13.905273,13.305317,14.750000,19.549751,1,5.150000,0,0,0, 202
232, 101,12606,12603,466,1,1,-0.028606,-0.382749,6.713803,-0.117463,-0.087120,-3.077825,10.860798,7.125102,13.341864,3.476680,-3.474903,-14.493025,89.941215,-175.826582,-99.905102,-0.524087,0.557775,-0.435200,-0.474153,2005.621826,79942.921875,12.229734,5.436043,14.998291,14.998291,14.215546,14.750000,19.690741,2,5.150000,0,0,0, 202
233, 101,12659,12646,519,1,1,-0.011687,-0.434283,6.647032,-0.046721,-0.096363,-3.140647,11.341324,6.644576,12.861338,2.021938,-3.506931,-14.154619,90.049754,-175.940605,-100.492744,-0.527511,0.559070,-0.432444,-0.471344,2005.594971,79945.187500,11.788200,7.844790,15.005371,14.971436,14.317491,14.750000,19.681644,2,5.150000,0,0,0, 202
234, 101,12710,12704,570,1,1,-0.009041,-0.381005,6.501524,-0.056513,-0.102621,-3.289369,11.341324,7.605628,14.302916,7.274759,1.635883,-17.928169,90.164275,-176.230219,-101.366018,-0.532827,0.560732,-0.429126,-0.466397,2005.943604,79936.125000,7.080179,7.673908,15.320068,15.320068,14.731142,14.750000,19.658905,2,5.150000,0,0,0, 202
235, 101,12763,12747,623,1,1,-0.129691,-0.351769,6.511074,-0.081130,-0.225251,-3.297840,10.860798,8.566679,13.341864,3.232180,0.132697,-17.031978,90.177328,-176.359664,-101.994238,-0.535962,0.562532,-0.426630,-0.462914,2005.947998,79938.234375,6.328056,7.269100,15.324463,15.324463,14.616300,14.750000,19.654356,2,5.160000,0,0,0, 202
236, 101,12815,12807,675,1,1,-0.132072,-0.369700,6.259357,-0.065237,-0.233983,-3.534050,10.380273,8.086153,12.861338,-1.211347,-2.066246,-16.427133,90.209320,-176.376603,-102.867416,-0.539699,0.565553,-0.422287,-0.458855,2006.101562,79936.421875,5.065083,7.100565,15.478027,15.478027,14.982007,14.750000,19.649809,2,5.150000,0,0,0, 202
237, 101,12867,12864,727,1,1,-0.086493,-0.412533,6.226861,-0.042169,-0.218277,-3.563849,10.380273,7.125102,12.380812,-3.961610,-2.932610,-12.474125,90.346006,-176.112726,-103.529999,-0.541974,0.568307,-0.417151,-0.457468,2006.076660,79938.539062,3.630549,6.337447,15.478027,15.453125,14.982917,14.750000,19.645260,2,5.150000,0,0,0, 202
238, 101,12919,12907,779,1,1,-0.065730,-0.383190,6.288191,-0.087883,-0.212544,-3.505001,11.341324,8.086153,13.341864,-3.311469,-3.974253,-11.923782,90.508353,-175.961833,-104.031581,-0.544183,0.569906,-0.413258,-0.456388,2006.010864,79940.500000,1.675019,6.201052,15.478027,15.387329,15.225601,14.750000,19.645260,2,5.150000,0,0,0, 202
239, 101,12971,12965,831,1,1,-0.067525,-0.478983,6.204195,-0.008154,-0.278020,-3.584196,10.860798,7.125102,12.861338,0.993949,-6.057999,-16.202310,90.836216,-175.813140,-104.751517,-0.548093,0.571461,-0.407620,-0.454832,2006.317139,79932.500000,2.473579,4.922654,15.693604,15.693604,15.164407,14.750000,19.649809,2,5.150000,0,0,0, 202
240, 101,13023,13007,883,1,1,-0.046420,-0.450441,6.153933,-0.016979,-0.270203,-3.636371,11.341324,7.605628,12.380812,5.633570,-2.602900,-16.649833,90.984677,-175.919445,-105.380093,-0.551735,0.572593,-0.404434,-0.451839,2006.452148,79935.296875,5.045048,4.785766,15.828613,15.828613,15.351785,14.750000,19.654356,2,5.150000,0,0,0, 202
241, 101,13075,13067,935,1,1,-0.041467,-0.404005,6.266120,-0.022950,-0.281689,-3.528096,11.341324,8.086153,12.861338,8.023929,1.774968,-19.607673,91.172323,-176.355799,-106.315214,-0.558017,0.573406,-0.401244,-0.445899,2006.192261,79941.328125,2.027696,4.693511,15.828613,15.568726,15.364941,14.750000,19.649809,2,5.150000,0,0,0, 202
242, 101,13126,13125,986,1,1,-0.085931,-0.377519,6.397038,-0.026847,-0.336616,-3.401158,11.821850,9.047205,12.861338,6.603657,0.619084,-19.903730,91.269359,-176.765501,-107.377240,-0.564155,0.575171,-0.397643,-0.439076,2006.310059,79939.664062,0.030835,4.509290,15.828613,15.686523,15.611643,14.750000,19.640713,2,5.150000,0,0,0, 202
243, 101,13179,13168,1039,1,1,-0.072021,-0.343660,6.684019,-0.059558,-0.326742,-3.116010,10.380273,8.086153,13.341864,2.166643,-0.192093,-18.090417,91.299794,-176.882474,-108.061044,-0.567354,0.576970,-0.394690,-0.435241,2006.360107,79934.312500,0.598042,3.244563,15.828613,15.736572,15.456900,14.750000,19.654356,2,5.150000,0,0,0, 202
244, 101,13231,13225,1091,1,1,-0.062673,-0.398564,7.253517,-0.051126,-0.354302,-2.545096,10.860798,7.125102,14.302916,-2.433960,-0.733065,-18.147232,91.304808,-176.783191,-108.994410,-0.570540,0.580487,-0.389444,-0.431105,2006.447754,79935.296875,0.889873,3.089334,15.828613,15.824219,15.624704,14.750000,19.654356,2,5.150000,0,0,0, 202
245, 101,13283,13267,1143,1,1,-0.059396,-0.429242,7.981050,-0.088275,-0.380767,-1.817758,11.341324,7.605628,15.263968,-3.100492,-0.929039,-16.563395,91.294692,-176.610483,-109.651591,-0.572320,0.583357,-0.385249,-0.428635,2006.384766,79936.421875,0.988866,2.549838,15.828613,15.761230,15.537778,14.750000,19.649809,2,5.150000,0,0,0, 202
246, 101,13335,13326,1195,1,1,-0.080981,-0.585153,8.642043,-0.021712,-0.472654,-1.151723,10.380273,7.605628,15.263968,-1.887772,-2.331942,-11.683615,91.275096,-176.412134,-110.421626,-0.574366,0.586707,-0.380356,-0.425686,2006.427490,79934.609375,-0.158496,2.459109,15.828613,15.803955,15.673754,14.750000,19.645260,2,5.150000,0,0,0, 202
247, 101,13387,13383,1247,1,1,-0.037332,-0.596486,9.332897,-0.047532,-0.483469,-0.461613,10.380273,8.566679,17.186069,3.298400,-2.466893,-15.437698,91.434329,-176.378502,-111.097869,-0.577564,0.588253,-0.376123,-0.422978,2006.469971,79934.312500,0.695492,1.948429,15.846436,15.846436,15.654139,14.750000,19.654356,2,5.150000,0,0,0, 202
248, 101,13607,13603,1467,1,1,-0.054909,-0.457068,7.067825,0.056846,-0.369450,-2.728069,10.860798,7.125102,13.822390,-5.363984,0.589373,-16.530776,91.016430,-177.298378,-115.145761,-0.593095,0.600386,-0.361492,-0.396356,2005.989014,79941.726562,-1.120024,-0.342935,15.846436,15.365479,15.490710,14.750000,19.727123,2,5.150000,0,0,0, 202
249, 101,13658,13646,1518,1,1,-0.055630,-0.405790,6.778044,0.000849,-0.327219,-3.018481,9.899747,8.086153,13.822390,-5.377440,1.225443,-15.059230,90.850785,-177.124741,-115.762404,-0.593760,0.603734,-0.357897,-0.393527,2006.086182,79938.101562,-2.255122,-0.451771,15.846436,15.462646,15.476324,14.750000,19.718027,2,5.150000,0,0,0, 202
250, 101,13710,13706,1570,1,1,-0.078014,-0.510688,6.546166,0.085958,-0.377878,-3.245926,10.380273,6.164050,14.302916,0.380851,2.312600,-10.753107,90.700158,-177.060783,-116.508534,-0.595298,0.607036,-0.354127,-0.389515,2006.116211,79937.718750,-0.762528,-0.462819,15.846436,15.492676,15.491368,14.750000,19.699837,2,5.150000,0,0,0, 202
251, 101,13763,13748,1623,1,1,-0.051946,-0.445111,6.451537,0.065609,-0.333774,-3.342870,10.860798,8.566679,13.341864,7.870209,-0.639548,-4.206404,90.772934,-177.262479,-116.733684,-0.597123,0.606721,-0.353770,-0.387533,2006.144287,79939.148438,0.360292,-0.590424,15.846436,15.520752,15.472232,14.750000,19.686192,2,5.150000,0,0,0, 202
252, 101,13814,13809,1674,1,1,-0.083464,-0.420248,6.204179,0.055114,-0.368861,-3.593238,10.380273,6.644576,13.822390,3.036679,-4.207826,2.217895,90.967615,-177.394698,-116.799568,-0.598816,0.605493,-0.353473,-0.387111,2005.821533,79944.351562,-2.112088,-0.934039,15.846436,15.197998,15.393075,14.750000,19.677095,2,5.150000,0,0,0, 202
253, 101,13866,13852,1726,1,1,-0.036176,-0.363485,6.131982,0.034374,-0.325282,-3.666862,10.860798,7.605628,12.380812,4.038309,-2.193701,5.904375,91.215052,-177.437919,-116.606041,-0.599610,0.603466,-0.353888,-0.388665,2005.701782,79944.203125,-4.640059,-1.076000,15.846436,15.078247,15.355169,14.750000,19.681644,2,5.150000,0,0,0, 202
254, 101,13918,13913,1778,1,1,-0.022153,-0.343536,6.182663,0.041648,-0.320672,-3.617209,10.860798,7.605628,12.380812,2.911342,-1.978991,4.748865,91.373533,-177.626063,-116.354226,-0.600213,0.601260,-0.355685,-0.389511,2005.896729,79940.046875,-1.662574,-1.142192,15.846436,15.273193,15.352906,14.750000,19.658905,2,5.150000,0,0,0, 202
255, 101,13971,13956,1831,1,1,-0.045028,-0.338145,5.893480,0.040674,-0.336829,-3.907413,10.860798,9.047205,11.419760,-0.018261,-0.622459,2.828594,91.428270,-177.641554,-116.226242,-0.600116,0.600526,-0.356253,-0.390272,2005.774414,79946.617188,0.374441,-1.284984,15.846436,15.150879,15.307243,14.750000,19.667999,2,5.150000,0,0,0, 202
256, 101,14023,14016,1883,1,1,-0.098485,-0.403276,5.977331,0.050146,-0.424959,-3.824571,10.860798,7.605628,12.861338,-1.547855,-2.468761,0.736231,91.516236,-177.433288,-116.246418,-0.599953,0.600792,-0.354728,-0.391502,2005.761963,79942.546875,-0.765256,-1.034496,15.846436,15.138428,15.281050,14.750000,19.672548,2,5.150000,0,0,0, 202
257, 101,14075,14059,1935,1,1,-0.085411,-0.421236,5.866599,0.078400,-0.423965,-3.934500,11.341324,7.125102,13.341864,1.451806,-2.102129,0.546500,91.573371,-177.446006,-116.219302,-0.600202,0.600369,-0.354743,-0.391756,2005.628906,79945.335938,-1.809692,-1.190949,15.846436,15.005371,15.238721,14.750000,19.677095,2,5.150000,0,0,0, 202
258, 101,14126,14120,1986,1,1,-0.080112,-0.395348,5.728138,0.068826,-0.406064,-4.073464,11.341324,7.125102,12.861338,-0.333200,-1.319394,6.153273,91.607296,-177.487260,-115.989029,-0.599729,0.599345,-0.356054,-0.392857,2005.526611,79948.429688,-2.195547,-1.366224,15.846436,14.903076,15.154406,14.750000,19.672548,2,5.150000,0,0,0, 202
259, 101,14179,14163,2039,1,1,-0.071979,-0.380678,5.767629,0.067803,-0.402622,-4.034811,10.860798,7.605628,12.380812,5.165483,-0.127291,5.135722,91.711928,-177.579864,-115.743826,-0.599743,0.597737,-0.357473,-0.393995,2005.564209,79944.351562,-1.936951,-1.527821,15.846436,14.940674,15.099203,14.750000,19.677095,2,5.150000,0,0,0, 202
260, 101,14230,14224,2090,1,1,-0.021910,-0.452464,6.430863,0.151998,-0.410207,-3.369062,11.341324,7.125102,13.822390,2.371128,1.800109,7.389423,91.754719,-177.794674,-115.284495,-0.599103,0.595378,-0.360869,-0.395443,2005.345215,79949.406250,-2.992219,-1.830794,15.846436,14.721680,15.009401,14.750000,19.672548,2,5.150000,0,0,0, 202
261, 101,14283,14267,2143,1,1,-0.040143,-0.454642,6.583069,0.158452,-0.429339,-3.218017,10.860798,8.086153,13.822390,4.627843,1.826612,8.767590,91.747520,-177.941605,-114.980716,-0.598509,0.593976,-0.363256,-0.396263,2005.330566,79946.765625,-3.490724,-1.959518,15.846436,14.707031,14.936375,14.750000,19.663452,2,5.160000,0,0,0, 202
262, 101,14335,14328,2195,1,1,-0.105648,-0.443807,6.870993,0.146543,-0.496914,-2.934395,11.341324,6.644576,13.341864,4.359432,0.901957,14.543242,91.817249,-178.212722,-114.298776,-0.597417,0.590542,-0.367983,-0.398674,2005.086182,79951.375000,-4.003835,-2.451663,15.846436,14.462646,14.826204,14.750000,19.672548,2,5.150000,0,0,0, 202
263, 101,14386,14371,2246,1,1,-0.095477,-0.440335,8.205019,0.123044,-0.539460,-1.602269,9.899747,7.605628,16.225018,3.143898,-2.742152,19.134143,91.924224,-178.309724,-113.612766,-0.595898,0.587447,-0.371650,-0.402103,2005.075439,79951.218750,-3.850101,-2.567947,15.846436,14.451904,14.728770,14.750000,19.677095,2,5.150000,0,0,0, 202
264, 101,14608,14594,2468,1,1,-0.056506,-0.769289,9.865946,0.273127,-0.652599,0.069735,12.302376,8.086153,17.666595,14.458430,1.936272,14.421909,91.960793,-177.498844,-109.859467,-0.579693,0.577625,-0.386339,-0.425496,2004.041626,79961.578125,-6.623894,-3.736918,15.846436,13.418091,13.994767,14.750000,19.749863,2,5.150000,0,0,0, 202
265, 101,14661,14653,2521,1,1,-0.054240,-0.532973,10.316279,0.204116,-0.629234,0.507978,10.860798,8.086153,17.186069,20.271771,0.629934,19.024042,92.245243,-178.433897,-109.008603,-0.581311,0.569975,-0.394395,-0.426214,2003.904785,79962.031250,-7.101261,-4.943738,15.846436,13.281250,13.812482,14.750000,19.736219,2,5.150000,0,0,0, 202
266, 101,14712,14696,2572,1,1,-0.020766,-0.217578,9.125879,0.027525,-0.448535,-0.142955,9.899747,8.086153,17.186069,-4.003655,4.396927,17.787908,92.269633,-178.893911,-108.318058,-0.580509,0.565796,-0.400096,-0.427559,2003.738281,79960.664062,-6.316274,-4.918322,15.846436,13.114746,13.618959,14.750000,19.718027,2,5.150000,0,0,0, 202
267, 101,14765,14757,2625,1,1,-0.115844,-0.433301,10.058857,0.090457,-0.581581,0.250634,10.860798,7.605628,17.186069,-18.224888,0.812728,20.639578,91.945602,-178.357590,-107.380102,-0.573439,0.566093,-0.403200,-0.433747,2003.613647,79967.000000,-5.292325,-5.043334,15.846436,12.990112,13.537041,14.750000,19.704384,2,5.150000,0,0,0, 202
268, 101,14817,14800,2677,1,1,-0.115189,-0.694246,10.583797,0.179984,-0.614329,0.786834,10.860798,8.086153,17.666595,-20.554148,-0.490836,26.124172,91.663208,-177.548035,-106.422366,-0.565385,0.567070,-0.404886,-0.441405,2003.474365,79967.531250,-4.005410,-5.037822,15.846436,12.850830,13.338510,14.750000,19.718027,2,5.150000,0,0,0, 202
269, 101,14869,14862,2729,1,1,0.048694,-0.598736,10.209255,0.005601,-0.366677,0.419336,11.341324,7.125102,18.147121,-14.576752,1.731845,22.759273,91.446643,-176.719274,-105.058883,-0.555856,0.566319,-0.408266,-0.451250,2003.388794,79966.554688,-4.106853,-4.775768,15.846436,12.765259,13.278516,14.750000,19.718027,2,5.150000,0,0,0, 202
270, 101,14921,14905,2781,1,1,0.101273,-0.676050,10.789783,-0.006226,-0.274058,1.006941,10.860798,7.125102,19.108173,-11.038035,9.981117,15.602703,91.083714,-176.360621,-104.362914,-0.549920,0.566894,-0.411331,-0.455001,2003.359863,79966.406250,-3.117280,-4.752189,15.846436,12.736328,13.090126,14.750000,19.722576,2,5.150000,0,0,0, 202
271, 101,14973,14966,2833,1,1,-0.175018,-1.052970,11.252396,0.315374,-0.477824,1.487401,11.341324,7.605628,18.147121,13.277021,16.946099,13.376283,90.291290,-176.616794,-103.758756,-0.544606,0.567551,-0.418747,-0.453808,2003.182129,79966.703125,-3.536505,-4.421693,15.846436,12.558594,13.037306,14.750000,19.713480,2,5.150000,0,0,0, 202
272, 101,15025,15009,2885,1,1,-0.331596,-0.596354,10.774302,0.035711,-0.491882,0.983617,10.860798,8.086153,18.627647,20.495082,-0.069382,30.163488,90.191323,-177.491727,-102.843866,-0.543942,0.561398,-0.427977,-0.453646,2003.077637,79969.648438,-3.806935,-4.366723,15.846436,12.454102,12.865431,14.750000,19.713480,2,5.150000,0,0,0, 202
273, 101,15077,15070,2937,1,1,-0.121707,-0.082705,10.227671,-0.324569,-0.313076,0.417784,9.899747,7.605628,17.666595,-2.617921,-17.894119,58.183356,91.002394,-177.844097,-100.037724,-0.537975,0.545591,-0.439988,-0.468321,2002.781860,79975.000000,-4.799304,-4.529582,15.846436,12.158325,12.742779,14.750000,19.699837,2,5.150000,0,0,0, 202
274, 101,15129,15113,2989,1,1,-0.041467,-0.213836,10.230141,-0.353260,-0.342203,0.419632,11.821850,8.086153,16.225018,-30.702609,-17.010600,64.333279,91.530723,-176.864661,-97.509563,-0.525941,0.537247,-0.445004,-0.486542,2002.556152,79976.664062,-6.472906,-4.512228,15.846436,11.932617,12.566599,14.750000,19.708933,2,5.150000,0,0,0, 202
275, 101,15180,15174,3040,1,1,0.019714,-1.007362,9.515106,0.189975,-0.405836,-0.243196,10.380273,7.125102,16.225018,-21.964968,-10.917052,63.311708,92.134013,-175.100437,-93.945632,-0.505736,0.527741,-0.450487,-0.512623,2002.503784,79975.148438,-6.193467,-5.004977,15.846436,11.880249,12.453795,14.750000,19.695288,2,5.150000,0,0,0, 202
276, 101,15232,15217,3092,1,1,0.050484,-0.926642,9.464421,0.107230,-0.388261,-0.299724,11.341324,7.125102,16.705544,6.653787,-7.092340,58.900362,92.496232,-175.048104,-91.517712,-0.496166,0.516732,-0.459665,-0.524895,2002.449951,79976.132812,-4.395845,-5.023728,15.846436,11.826416,12.256566,14.750000,19.695288,2,5.150000,0,0,0, 202
277, 101,15285,15278,3145,1,1,0.048323,-0.389267,9.372624,-0.261078,-0.348042,-0.430266,11.341324,7.605628,16.705544,17.113128,6.105452,46.350319,92.477824,-176.034452,-88.661081,-0.487272,0.500910,-0.476995,-0.533039,2002.223145,79982.164062,-4.074633,-4.739164,15.846436,11.599609,12.167606,14.750000,19.690741,2,5.160000,0,0,0, 202
278, 101,15337,15321,3197,1,1,-0.045565,-0.313091,9.807219,-0.309467,-0.394337,-0.001492,11.341324,8.566679,16.705544,5.194102,9.234814,41.840404,92.132722,-176.352875,-87.048084,-0.479673,0.494183,-0.487046,-0.537106,2001.987915,79982.398438,-6.210374,-4.756961,15.846436,11.364380,11.981431,14.750000,19.713480,2,5.150000,0,0,0, 202
279, 101,15389,15382,3249,1,1,-0.211154,-0.704376,9.388641,0.101682,-0.449026,-0.394866,10.380273,6.644576,18.147121,-1.549313,2.019731,48.453939,91.856769,-176.226694,-84.607452,-0.466376,0.485392,-0.498226,-0.546497,2001.754395,79985.195312,-7.424882,-5.506512,15.846436,11.130859,11.820247,14.750000,19.718027,2,5.150000,0,0,0, 202
280, 101,15610,15603,3470,1,1,0.181759,-0.853798,9.945098,0.068375,-0.151099,0.180957,10.380273,6.644576,17.186069,13.307264,9.170369,33.596758,93.253208,-175.978950,-73.586477,-0.415796,0.431483,-0.534339,-0.596170,2001.062622,79988.007812,-6.387898,-6.356841,15.846436,10.439087,10.955297,14.750000,19.781698,2,5.150000,0,0,0, 202
281, 101,15662,15646,3522,1,1,0.088772,-0.598010,10.606333,-0.087797,-0.210244,0.820105,11.341324,7.605628,19.108173,22.998125,12.694592,24.914758,92.556515,-176.590129,-72.581306,-0.410992,0.426233,-0.544116,-0.594431,2001.101196,79991.632812,-2.197901,-6.357172,15.846436,10.477661,10.712246,14.750000,19.790794,2,5.150000,0,0,0, 202
282, 101,15713,15706,3573,1,1,-0.082392,-0.219393,10.427048,-0.350385,-0.282004,0.618978,9.899747,7.125102,18.147121,1.716100,16.006929,24.566398,91.504099,-176.788068,-71.470198,-0.402325,0.423657,-0.554446,-0.592654,2000.863281,79991.398438,-1.456789,-4.956826,15.846436,10.239746,10.715651,14.750000,19.768055,3,5.150000,3,0,3, 202
283, 101,15766,15750,3626,1,1,-0.096660,-0.289189,10.462799,-0.394592,-0.219181,0.656504,10.860798,8.566679,15.263968,-18.636408,9.761922,29.570942,91.233808,-176.170605,-70.382463,-0.392546,0.422389,-0.557535,-0.597201,2000.648438,79996.898438,-4.018442,-4.916732,15.846436,10.024902,10.517497,14.750000,19.749863,3,5.150000,3,0,3, 202
284, 101,15818,15812,3678,1,1,-0.103569,-0.819635,9.395224,-0.012084,-0.002636,-0.369531,10.860798,7.605628,15.744493,-11.477078,3.814095,35.727364,91.259715,-175.057243,-68.451698,-0.376759,0.418441,-0.560318,-0.607457,2000.504395,79997.500000,-4.839377,-4.923269,15.846436,9.880859,10.435920,14.750000,19.731672,3,5.150000,3,0,3, 202
285, 101,15869,15855,3729,1,1,-0.133244,-0.859134,10.099669,-0.037832,-0.012002,0.335942,10.860798,8.086153,16.225018,3.613933,-2.565512,41.632896,91.281462,-175.017751,-66.886929,-0.368300,0.410881,-0.565718,-0.612776,2000.377686,79998.625000,-4.865946,-4.933681,15.846436,9.754150,10.240894,14.750000,19.727123,3,5.150000,3,0,3, 202
286, 101,15921,15916,3781,1,1,-0.225389,-0.641464,10.907187,-0.197878,-0.238730,1.122957,10.860798,8.086153,20.549751,1.677923,-13.620562,60.108923,91.668843,-175.419912,-63.924854,-0.355805,0.392848,-0.575461,-0.622830,2000.164795,79998.781250,-5.107862,-4.976010,15.846436,9.541260,10.136168,14.750000,19.722576,3,5.150000,3,0,3, 202
287, 101,15974,15958,3834,1,1,0.021135,-0.464979,11.718443,-0.465805,-0.221147,1.915342,10.860798,8.086153,21.030277,-0.744522,-17.019057,67.846038,92.263889,-175.779481,-61.298236,-0.345316,0.375876,-0.582254,-0.632814,1999.987305,80002.703125,-5.292599,-4.928969,15.846436,9.363770,9.942024,14.750000,19.722576,3,5.150000,3,0,3, 202
288, 101,16026,16019,3886,1,1,0.216286,-0.342458,11.517594,-0.727390,-0.227217,1.698492,10.860798,7.125102,17.186069,-16.366354,1.076567,49.505419,92.948315,-175.501560,-58.109030,-0.328223,0.359070,-0.587733,-0.646458,1999.926758,80002.703125,-4.571525,-4.860443,15.846436,9.303223,9.857074,14.750000,19.722576,3,5.150000,3,0,3, 202
289, 101,16078,16062,3938,1,1,-0.019186,-0.355691,11.921895,-0.842760,-0.487452,2.086414,10.860798,7.605628,19.588699,-32.327917,9.313725,42.994262,93.218832,-174.473016,-56.411956,-0.313876,0.355188,-0.588130,-0.655306,1999.861206,80002.703125,-3.762109,-4.797802,15.846436,9.237671,9.668274,14.750000,19.722576,3,5.150000,3,0,3, 202
290, 101,16130,16123,3990,1,1,-0.225935,-0.905788,11.108319,-0.574117,-0.520015,1.319532,11.341324,7.605628,17.186069,-39.062473,-7.122851,54.543114,94.511472,-172.604686,-53.555807,-0.291101,0.347435,-0.583341,-0.673990,1999.575806,80005.945312,-4.158303,-4.659832,15.846436,8.952271,9.553937,14.750000,19.713480,3,5.150000,3,0,3, 202
291, 101,16182,16166,4042,1,1,0.030690,-0.975507,10.625432,-0.723621,-0.367087,0.838266,10.380273,7.605628,18.147121,-15.661745,-8.143728,51.153701,95.384883,-172.105085,-51.369289,-0.278011,0.336927,-0.583097,-0.684973,1999.513306,80007.843750,-4.284777,-4.618824,15.846436,8.889771,9.372551,14.750000,19.745316,3,5.150000,3,0,3, 202
292, 101,16234,16227,4094,1,1,0.110385,-0.728188,11.704583,-1.121218,-0.522743,1.861303,11.341324,5.683524,18.627647,7.191403,5.351408,41.059511,95.321082,-172.173127,-49.000747,-0.263989,0.324563,-0.590527,-0.690106,1999.456543,80007.156250,-3.707601,-4.387766,15.846436,8.833008,9.312452,14.750000,19.736219,4,5.150000,3,0,0, 202
293, 101,16286,16271,4146,1,1,-0.003224,-0.563196,11.493418,-1.139827,-0.578823,1.634979,10.860798,7.125102,17.186069,9.917040,13.530121,35.953423,94.785506,-172.228479,-47.618293,-0.254466,0.318291,-0.597797,-0.690345,1999.345703,80009.125000,-3.563862,-4.324574,15.846436,8.722168,9.138935,14.750000,19.736219,4,5.150000,3,0,0, 202
294, 101,16337,16332,4197,1,1,-0.141513,-0.581638,11.378630,-1.053055,-0.530509,1.532189,12.302376,7.605628,18.627647,3.387948,6.703959,44.931266,94.232780,-172.110699,-45.423493,-0.239052,0.308618,-0.606795,-0.692394,1999.049561,80008.734375,-5.479950,-4.699819,15.846436,8.426025,9.015414,14.750000,19.718027,4,5.150000,3,0,0, 202
295, 101,16389,16375,4249,1,1,-0.028038,-0.576728,11.474537,-1.187087,-0.380062,1.620242,11.341324,7.125102,18.147121,2.613824,10.245741,43.696880,93.901939,-171.978071,-43.639772,-0.226628,0.300556,-0.613167,-0.694501,1998.994385,80012.367188,-5.484269,-4.626420,15.846436,8.370850,8.831520,14.750000,19.727123,4,5.150000,3,0,0, 202
296, 101,16611,16599,4471,1,1,0.067876,-0.300743,12.667595,-1.613040,-0.275991,2.764228,11.821850,9.527731,18.147121,-6.744765,18.480224,33.323649,92.578167,-172.205011,-32.833648,-0.158763,0.241976,-0.647429,-0.705037,1998.426636,80018.804688,-1.243537,-4.817315,15.846436,7.803101,8.084282,14.875000,19.799891,4,5.150000,3,0,0, 202
297, 101,16663,16658,4523,1,1,-0.125497,-0.579919,12.597391,-1.588993,-0.186994,2.708455,11.341324,7.125102,19.108173,-21.577367,15.178736,34.310888,92.835911,-170.908832,-31.042779,-0.140592,0.239216,-0.646799,-0.710395,1998.332764,80018.125000,-1.456809,-3.699035,15.846436,7.709229,8.078004,14.875000,19.790794,4,5.150000,3,0,0, 202
298, 101,16716,16701,4576,1,1,-0.118323,-0.787633,12.771576,-1.715972,-0.077573,2.879573,10.860798,7.605628,19.588699,-16.388450,13.247308,33.982233,93.180036,-170.076082,-29.648267,-0.127707,0.235910,-0.645775,-0.714851,1998.456665,80013.812500,-1.172997,-3.589714,15.846436,7.833130,7.933145,14.875000,19.772604,4,5.150000,3,0,0, 202
299, 101,16767,16762,4627,1,1,-0.010912,-0.815926,12.721937,-1.962052,0.025902,2.795159,11.341324,6.644576,19.588699,-0.739348,10.361693,32.253902,93.144922,-169.377586,-27.763845,-0.111719,0.229484,-0.648364,-0.717272,1998.393555,80018.187500,-0.605392,-2.815137,15.846436,7.770020,7.974805,14.875000,19.758959,4,5.150000,3,0,0, 202
300, 101,16819,16806,4679,1,1,0.022721,-0.751789,12.178086,-2.008574,0.082514,2.233546,11.341324,7.605628,19.588699,4.052237,13.413646,28.095759,92.856702,-169.020025,-26.635960,-0.101960,0.225498,-0.651681,-0.716985,1998.381348,80017.351562,-0.977583,-2.716338,15.846436,7.757812,7.864568,14.875000,19.754412,4,5.150000,3,0,0, 202
301, 101,16872,16867,4732,1,1,0.012425,-0.462435,12.107932,-2.288386,-0.022129,2.097690,10.860798,7.605628,19.108173,0.921374,22.698763,24.736027,92.145447,-168.224349,-25.318307,-0.087569,0.223318,-0.657119,-0.714602,1998.163452,80021.726562,-2.803293,-2.811753,15.846436,7.539917,7.829093,14.875000,19.740768,4,5.150000,3,0,0, 202
302, 101,16924,16910,4784,1,1,-0.093785,-0.513651,12.558666,-2.442905,-0.009401,2.528836,11.341324,8.086153,17.666595,-8.728869,19.206743,24.291614,92.037229,-167.428318,-24.421808,-0.076969,0.222997,-0.657970,-0.715139,1997.863647,80026.335938,-5.275654,-2.722974,15.846436,7.240112,7.720070,14.875000,19.749863,4,5.150000,3,0,0, 202
303, 101,16976,16971,4836,1,1,-0.105624,-0.735228,12.251079,-2.565811,0.136209,2.200613,10.380273,6.644576,19.108173,-16.527241,19.874104,23.524150,92.383629,-166.117044,-23.040117,-0.061091,0.222696,-0.655911,-0.718648,1997.689453,80021.578125,-7.464000,-4.140966,15.846436,7.065918,7.573382,14.875000,19.745316,4,5.150000,3,0,0, 202
304, 101,17028,17014,4888,1,1,-0.163511,-0.911257,12.049686,-2.562531,0.285321,2.005951,11.341324,7.605628,18.147121,-4.579099,13.936501,30.100937,92.422985,-165.393468,-21.933583,-0.049859,0.220671,-0.656391,-0.719701,1997.710205,80023.835938,-5.420928,-4.053357,15.846436,7.086670,7.411004,14.875000,19.736219,4,5.150000,3,0,0, 202
305, 101,17080,17075,4940,1,1,-0.083628,-0.699189,11.694833,-2.698646,0.254532,1.597136,11.341324,6.644576,18.147121,12.424795,7.707711,34.461948,91.874609,-165.096095,-20.209316,-0.036211,0.212733,-0.662524,-0.717283,1997.568604,80028.445312,-2.427300,-3.651347,15.846436,6.945068,7.362865,14.875000,19.745316,4,5.150000,3,0,0, 202
306, 101,17131,17118,4991,1,1,-0.098701,-0.541286,11.821915,-2.791815,0.192765,1.698087,10.860798,7.125102,17.666595,10.056493,4.684294,34.423088,91.429643,-165.037151,-19.013367,-0.027565,0.206270,-0.667384,-0.715047,1997.542480,80024.671875,-2.992101,-3.588342,15.846436,6.918945,7.220927,14.875000,19.740768,4,5.150000,3,0,0, 202
307, 101,17184,17179,5044,1,1,-0.084131,-0.542618,12.034563,-2.925237,0.228232,1.883311,10.860798,7.605628,18.147121,-7.461865,4.130749,35.693619,91.303435,-164.793408,-17.084303,-0.013822,0.196485,-0.671132,-0.714692,1997.480469,80025.648438,-2.784558,-3.403693,15.846436,6.856934,7.193351,14.875000,19.740768,4,5.150000,3,0,0, 202
308, 101,17237,17222,5097,1,1,-0.113104,-0.571307,11.417799,-2.794890,0.197397,1.282995,10.860798,7.125102,18.627647,-11.113782,2.268798,36.593329,91.668816,-164.519941,-15.543526,-0.003145,0.189081,-0.670981,-0.716954,1997.596069,80022.859375,-1.212780,-3.337661,15.846436,6.972534,7.060090,14.875000,19.736219,4,5.150000,3,0,0, 202
309, 101,17289,17283,5149,1,1,-0.076193,-0.630204,10.165957,-2.548301,0.171197,0.059350,11.341324,6.644576,16.225018,-15.220986,2.231734,36.156914,92.471090,-164.257525,-13.195896,0.011900,0.176975,-0.669276,-0.721531,1997.490234,80022.710938,-0.578060,-2.596370,15.846436,6.866699,7.083902,14.875000,19.740768,4,5.150000,3,0,0, 202
310, 101,17341,17326,5201,1,1,-0.104403,-0.624344,9.329343,-2.331571,0.121829,-0.746373,11.341324,6.644576,16.225018,-10.952457,0.520446,33.444253,92.965186,-164.124337,-11.736601,0.021161,0.169346,-0.668164,-0.724176,1997.790283,80015.687500,0.771912,-2.598062,15.846436,7.166748,6.981750,14.875000,19.745316,4,5.150000,3,0,0, 202
311, 101,17393,17387,5253,1,1,-0.109402,-0.629527,8.591428,-2.129580,0.128848,-1.454193,11.341324,7.125102,14.302916,-0.861578,-3.452216,31.909875,93.248461,-164.217856,-9.826220,0.032279,0.157687,-0.669231,-0.725412,1997.750488,80022.710938,3.565529,-0.835827,15.846436,7.126953,7.098327,14.875000,19.740768,4,5.150000,3,0,0, 202
312, 101,17612,17608,5472,1,1,-0.064532,-0.428869,7.177581,-1.827585,0.205792,-2.849500,10.860798,9.527731,13.822390,1.393190,6.558638,21.010248,91.795448,-164.503426,-3.896620,0.069583,0.120204,-0.685897,-0.714321,1998.028564,80017.906250,6.958356,2.343860,15.846436,7.405029,7.236081,14.875000,19.827177,4,5.150000,3,0,0, 202
313, 101,17665,17651,5525,1,1,-0.118954,-0.494865,7.406048,-1.866357,0.274504,-2.621170,10.860798,7.605628,14.783442,4.632116,6.778699,17.537153,91.701724,-164.278057,-3.143573,0.075732,0.117025,-0.687032,-0.713132,1997.740112,80023.562500,3.928800,2.234165,15.846436,7.116577,7.326979,14.875000,19.804438,4,5.150000,3,0,0, 202
314, 101,17717,17711,5577,1,1,-0.157640,-0.468166,8.136931,-2.067389,0.257013,-1.919786,11.341324,8.086153,14.783442,3.197060,5.069673,18.123921,91.487495,-164.044465,-2.283651,0.082703,0.113156,-0.688997,-0.711083,1997.788330,80019.554688,-1.032878,1.379078,15.846436,7.164795,7.212201,14.875000,19.777151,4,5.150000,3,0,0, 202
315, 101,17769,17754,5629,1,1,-0.170815,-0.480426,8.723494,-2.223010,0.284963,-1.354915,11.341324,8.086153,14.783442,3.984381,1.445803,16.366465,91.290785,-164.025094,-1.698811,0.086636,0.109610,-0.690766,-0.709452,1997.553467,80022.640625,-2.043655,1.308031,15.846436,6.929932,7.265791,14.875000,19.772604,4,5.150000,3,0,0, 202
316, 101,17820,17816,5680,1,1,-0.078522,-0.657325,9.639122,-2.537920,0.472524,-0.490436,10.380273,7.605628,15.744493,3.590595,-4.416422,16.220403,91.131253,-164.217542,-0.745367,0.091515,0.102543,-0.692810,-0.707901,1997.338623,80024.906250,-4.709769,-0.360592,15.846436,6.715088,7.045608,14.875000,19.763508,4,5.150000,3,0,0, 202
317, 101,17873,17859,5733,1,1,-0.086997,-0.713406,10.208332,-2.659957,0.594211,0.062980,11.341324,8.086153,17.186069,14.535501,-5.215252,15.713200,90.690582,-164.392736,-0.227104,0.094033,0.097966,-0.696131,-0.704955,1997.489990,80023.093750,-3.070559,-0.374402,15.846436,6.866455,7.031284,14.875000,19.758959,4,5.150000,3,0,0, 202
318, 101,17924,17919,5784,1,1,-0.131668,-0.463520,10.697703,-2.702839,0.488821,0.549302,10.860798,8.086153,17.186069,10.575753,-6.238654,19.749017,89.866131,-164.682568,0.493532,0.097361,0.091105,-0.702016,-0.699567,1997.445068,80027.164062,0.103243,-0.228068,15.846436,6.821533,6.970547,14.875000,19.754412,4,5.150000,3,0,0, 202
319, 101,17977,17962,5837,1,1,-0.111333,-0.459114,10.629612,-2.658078,0.501582,0.489523,11.341324,7.605628,16.705544,-1.748460,-9.004120,23.280510,89.777564,-164.978206,1.360241,0.100907,0.083906,-0.703445,-0.698529,1997.297607,80026.867188,-1.481855,-0.209743,15.846436,6.674072,6.961884,14.875000,19.763508,4,5.150000,3,0,0, 202
320, 101,18029,18023,5889,1,1,-0.021038,-0.784724,11.266962,-2.858637,0.745036,1.100091,11.341324,7.125102,16.225018,-6.400210,-5.915746,13.941456,90.209607,-165.364795,2.432073,0.104790,0.075351,-0.701821,-0.700563,1997.105957,80028.828125,-3.199019,-1.076911,15.846436,6.482422,6.806978,14.875000,19.763508,4,5.150000,3,0,0, 202
321, 101,18081,18067,5941,1,1,-0.035160,-0.817707,11.420835,-2.872931,0.766166,1.256333,11.821850,7.125102,18.147121,1.191125,-1.856921,9.858021,90.270922,-165.459898,2.870166,0.106850,0.072140,-0.701789,-0.700622,1997.184814,80027.164062,-2.152381,-1.032236,15.846436,6.561279,6.764773,14.875000,19.754412,4,5.150000,3,0,0, 202
322, 101,18133,18128,5993,1,1,-0.064454,-0.602136,11.117853,-2.736664,0.620872,0.973905,11.341324,8.566679,18.627647,8.052327,-2.196003,4.060912,89.914215,-165.586161,3.096171,0.107681,0.069644,-0.704184,-0.698341,1997.211182,80027.460938,-0.721261,-0.975297,15.846436,6.587646,6.733492,14.875000,19.745316,4,5.150000,3,0,0, 202
323, 101,18185,18171,6045,1,1,-0.054959,-0.618443,11.032397,-2.706663,0.681531,0.890528,11.821850,7.605628,16.705544,6.651648,-3.053440,-0.331805,89.672994,-165.685431,3.073554,0.107082,0.068948,-0.705699,-0.696971,1997.020264,80033.734375,-1.159347,-0.936634,15.846436,6.396729,6.695411,14.875000,19.763508,4,5.150000,3,0,0, 202
324, 101,18237,18232,6097,1,1,-0.065148,-0.572376,10.706344,-2.590814,0.701562,0.579421,11.341324,7.125102,17.186069,6.148063,0.399334,-8.574137,89.300858,-165.795288,2.757795,0.104717,0.069880,-0.707836,-0.695068,1997.120483,80026.187500,-1.303836,-1.069165,15.846436,6.496948,6.654224,14.875000,19.754412,4,5.150000,3,0,0, 202
325, 101,18290,18276,6150,1,1,-0.085916,-0.581871,10.077827,-2.417824,0.731817,-0.027202,11.341324,7.125102,16.225018,3.480905,-1.175767,-11.764196,89.138852,-165.762913,2.290876,0.102185,0.072817,-0.708507,-0.694460,1997.304810,80022.945312,0.645862,-1.053260,15.846436,6.681274,6.612114,14.875000,19.763508,4,5.150000,3,0,0, 202
326, 101,18341,18337,6201,1,1,-0.092661,-0.523147,9.909282,-2.328583,0.682116,-0.178706,10.860798,8.086153,16.225018,-0.210737,-2.541295,-12.577065,89.068351,-165.959882,1.629930,0.097012,0.075643,-0.708636,-0.694767,1997.285278,80028.148438,2.577876,-0.027154,15.846436,6.661743,6.656744,14.875000,19.754412,4,5.150000,3,0,0, 202
327, 101,18393,18380,6253,1,1,-0.054960,-0.635577,9.819602,-2.320535,0.798378,-0.271610,10.860798,7.125102,15.744493,1.729378,-2.447046,-16.516683,89.027179,-166.077621,1.040655,0.092740,0.078537,-0.708570,-0.695097,1997.163330,80030.789062,0.963403,-0.035964,15.846436,6.539795,6.655597,14.875000,19.763508,4,5.150000,3,0,0, 202
328, 101,18613,18603,6473,1,1,-0.132367,-0.624183,9.924112,-2.320536,1.018827,-0.184751,9.899747,8.566679,16.225018,-3.735774,-1.760636,-24.448420,87.569691,-165.402170,-5.040029,0.061454,0.119310,-0.711536,-0.689714,1996.981934,80031.046875,2.425826,-1.296537,15.846436,6.358398,6.373474,14.875000,19.845369,4,5.150000,3,0,0, 202
329, 101,18665,18661,6525,1,1,-0.079692,-0.604311,9.215661,-2.156350,0.975019,-0.873546,10.380273,7.125102,14.783442,3.275507,-2.097868,-30.559188,87.542514,-165.550439,-6.528950,0.051586,0.127653,-0.710257,-0.690346,1997.100220,80026.054688,3.759351,0.527879,15.846436,6.476685,6.455240,14.875000,19.818081,4,5.150000,3,0,0, 202
330, 101,18717,18704,6577,1,1,-0.073548,-0.515018,8.511337,-1.968310,0.885777,-1.551475,10.380273,7.605628,15.744493,5.731241,-1.655161,-32.875514,87.327404,-165.666990,-7.848897,0.043151,0.135054,-0.710175,-0.689601,1996.728027,80033.078125,0.661150,0.490885,15.846436,6.104492,6.475650,14.875000,19.813534,4,5.150000,3,0,0, 202
331, 101,18770,18765,6630,1,1,-0.080393,-0.407378,7.531775,-1.713614,0.773641,-2.495860,11.821850,7.125102,13.822390,4.431095,0.122113,-33.089135,86.980157,-165.721016,-9.812159,0.031435,0.146788,-0.709916,-0.688102,1996.857422,80027.937500,-1.708863,-0.111190,15.846436,6.233887,6.381080,14.875000,19.790794,4,5.150000,3,0,0, 202
332, 101,18821,18807,6681,1,1,-0.080650,-0.424929,7.225565,-1.618062,0.793548,-2.790435,10.380273,8.086153,14.783442,3.001661,0.513447,-33.817588,86.803187,-165.785138,-11.132185,0.023340,0.154545,-0.709327,-0.687333,1996.945312,80030.046875,1.010865,-0.208479,15.846436,6.321777,6.375882,14.875000,19.786247,4,5.150000,3,0,0, 202
333, 101,18874,18868,6734,1,1,-0.089714,-0.511293,7.128306,-1.547983,0.883296,-2.879601,10.860798,7.605628,13.822390,4.362865,-0.460395,-36.366355,86.652629,-165.829521,-13.100340,0.011469,0.166431,-0.707536,-0.686704,1996.849365,80034.117188,1.928682,0.471631,15.846436,6.225830,6.329059,14.875000,19.781698,4,5.150000,3,0,0, 202
334, 101,18926,18911,6786,1,1,-0.074845,-0.449747,7.298052,-1.595949,0.846874,-2.715438,11.341324,7.605628,13.822390,3.836367,0.177321,-38.877331,86.529201,-165.914283,-14.598802,0.002140,0.175176,-0.706168,-0.686029,1996.638672,80032.304688,-1.361948,0.358777,15.846436,6.015137,6.346243,14.875000,19.777151,4,5.150000,3,0,0, 202
335, 101,18977,18972,6837,1,1,-0.086834,-0.477004,7.982865,-1.712380,0.936653,-2.045251,10.860798,7.605628,14.783442,5.792110,-1.849004,-39.061394,86.278629,-166.028935,-16.865445,-0.011745,0.188474,-0.704251,-0.684375,1996.535278,80034.421875,-4.757880,-1.022515,15.846436,5.911743,6.189226,14.750000,19.772604,4,5.150000,3,0,0, 202
336, 101,19030,19016,6890,1,1,-0.083768,-0.547910,8.067854,-1.673763,1.026034,-1.956049,10.860798,8.566679,15.744493,4.681085,-4.920950,-34.984017,86.127934,-166.246777,-18.292205,-0.021392,0.196009,-0.703119,-0.683188,1996.525757,80036.234375,-3.203988,-1.102957,15.846436,5.902222,6.148119,14.750000,19.777151,4,5.150000,3,0,0, 202
337, 101,19082,19077,6942,1,1,-0.042393,-0.505857,8.775364,-1.833128,1.080449,-1.272403,11.341324,7.605628,15.263968,7.069521,-1.963415,-37.091035,85.840376,-166.530530,-20.499249,-0.035827,0.207991,-0.701434,-0.680769,1996.520020,80032.453125,-1.875004,-1.266083,15.846436,5.896484,6.091140,14.750000,19.772604,4,5.150000,3,0,0, 202
338, 101,19134,19120,6994,1,1,-0.008770,-0.451618,9.309082,-1.982562,1.128864,-0.764510,11.341324,8.086153,15.744493,8.207289,1.990351,-42.924607,85.490076,-166.605526,-22.203792,-0.045759,0.218118,-0.700479,-0.677982,1996.273682,80040.687500,-2.533439,-1.314579,15.846436,5.650146,6.040655,14.750000,19.790794,4,5.150000,3,0,0, 202
339, 101,19186,19181,7046,1,1,-0.028760,-0.469336,9.643944,-2.051868,1.190325,-0.441528,10.860798,7.605628,16.705544,-2.699317,7.100781,-51.041297,85.263943,-166.389132,-24.927913,-0.060019,0.236034,-0.695997,-0.675481,1996.237671,80037.359375,-2.863796,-1.722573,15.846436,5.614136,5.931321,14.750000,19.772604,4,5.150000,3,0,0, 202
340, 101,19238,19225,7098,1,1,-0.111955,-0.486488,9.102388,-1.906359,1.105180,-0.955264,10.860798,7.125102,16.225018,-9.015423,10.507047,-52.388634,85.336684,-165.898998,-27.049557,-0.069555,0.251542,-0.690038,-0.675083,1996.259766,80040.007812,-1.747324,-1.741674,15.846436,5.636230,5.862723,14.750000,19.781698,4,5.160000,3,0,0, 202
341, 101,19290,19285,7150,1,1,-0.177109,-0.696156,10.085580,-2.061867,1.268026,0.016115,10.860798,7.605628,18.147121,-7.393855,3.165981,-44.980057,85.637834,-165.391023,-29.619109,-0.082160,0.269513,-0.681295,-0.675610,1995.869385,80040.304688,-4.645368,-2.557657,15.846436,5.245850,5.701660,14.750000,19.772604,4,5.150000,3,0,0, 202
342, 101,19342,19328,7202,1,1,-0.160078,-0.682701,10.311224,-2.124135,1.239141,0.237208,11.341324,7.125102,17.666595,-1.391788,-1.765906,-40.348140,85.801820,-165.401077,-31.209334,-0.091990,0.278756,-0.676548,-0.675364,1995.989380,80039.859375,-5.148257,-2.553311,15.846436,5.365845,5.601587,14.750000,19.786247,4,5.150000,3,0,0, 202
343, 101,19394,19389,7254,1,1,-0.013935,-0.522374,10.236028,-2.229945,1.124311,0.139453,10.380273,7.605628,19.108173,-0.954647,-9.724928,-33.300977,86.011848,-165.762681,-33.054386,-0.105654,0.287458,-0.671621,-0.674633,1995.858154,80044.226562,-1.618279,-2.289263,15.846436,5.234619,5.545190,14.750000,19.772604,4,5.150000,3,0,0, 202
344, 101,19616,19610,7476,1,1,-0.160206,-0.558503,10.252721,-2.290387,0.951810,0.164142,11.341324,9.527731,16.225018,2.794709,-2.947731,-27.643920,86.343741,-164.377969,-41.236144,-0.145925,0.341462,-0.643515,-0.669327,1995.533447,80044.187500,-1.690426,-2.034181,15.846436,4.909912,5.146791,14.750000,19.863560,4,5.150000,3,0,0, 202
345, 101,19669,19653,7529,1,1,-0.064558,-0.425925,9.893137,-2.329025,0.866947,-0.215397,10.860798,7.605628,16.705544,-1.859136,-4.102083,-28.097867,86.450859,-164.457158,-42.246438,-0.152633,0.346567,-0.640087,-0.668493,1995.684082,80041.390625,0.443477,-2.034074,15.846436,5.060547,5.068696,14.750000,19.859013,4,5.150000,3,0,0, 202
346, 101,19720,19714,7580,1,1,-0.035869,-0.626473,10.553783,-2.455375,0.995811,0.434018,10.860798,7.125102,18.627647,-10.698178,4.306078,-30.162617,86.829599,-164.071089,-43.688284,-0.159835,0.356064,-0.632305,-0.669225,1995.519531,80048.328125,1.162634,-1.120806,15.846436,4.895996,5.062770,14.750000,19.827177,4,5.150000,3,0,0, 202
347, 101,19773,19758,7633,1,1,-0.104293,-0.632368,10.269927,-2.364976,0.889944,0.173821,10.860798,7.125102,18.147121,-7.400777,-0.772889,-25.207266,87.054265,-163.811077,-44.696331,-0.164835,0.362630,-0.627037,-0.669443,1995.554932,80044.703125,-0.359514,-1.093381,15.846436,4.931396,5.018541,14.750000,19.818081,4,5.150000,3,0,0, 202
348, 101,19824,19819,7684,1,1,-0.058153,-0.561833,10.454756,-2.479496,0.840412,0.336394,11.341324,7.125102,15.263968,0.806289,-4.370024,-15.356777,87.237444,-163.868806,-45.690697,-0.171577,0.367487,-0.622979,-0.668888,1995.406250,80049.906250,-1.431357,-1.209535,15.846436,4.782715,4.968923,14.750000,19.808987,4,5.150000,3,0,0, 202
349, 101,19877,19863,7737,1,1,0.033720,-0.505323,10.203458,-2.509328,0.846413,0.065808,11.341324,8.086153,16.705544,-2.579859,-0.955575,-16.982196,87.257668,-163.850733,-46.320929,-0.175209,0.370970,-0.620773,-0.668075,1995.313599,80047.109375,-2.720456,-1.200835,15.846436,4.690063,4.921132,14.750000,19.804438,4,5.150000,3,0,0, 202
350, 101,19928,19923,7788,1,1,-0.074874,-0.668156,9.945033,-2.279491,0.851465,-0.134840,11.341324,8.086153,15.744493,-1.458078,0.528098,-18.423399,87.312617,-163.647808,-47.381842,-0.180336,0.377649,-0.616341,-0.667071,1995.313232,80046.281250,-2.926555,-1.700112,15.846436,4.689697,4.875369,14.750000,19.799891,4,5.150000,3,0,0, 202
351, 101,19980,19966,7840,1,1,-0.097874,-0.571708,9.323891,-2.121824,0.751510,-0.734332,11.341324,7.605628,17.666595,8.266978,-4.488254,-10.830505,87.218442,-163.857194,-47.903887,-0.184330,0.379540,-0.615839,-0.665368,1995.351685,80045.296875,-1.280239,-1.709715,15.846436,4.728149,4.808568,14.750000,19.799891,4,5.160000,3,0,0, 202
352, 101,20033,20028,7893,1,1,-0.068463,-0.360149,9.630814,-2.300472,0.623746,-0.462599,11.341324,8.086153,16.225018,2.228250,-7.346306,-0.574927,87.337950,-164.321005,-48.138166,-0.188892,0.378242,-0.615866,-0.664802,1995.023193,80050.203125,-2.915440,-2.047348,15.846436,4.399658,4.715964,14.750000,19.799891,4,5.150000,3,0,0, 202
353, 101,20085,20071,7945,1,1,0.030283,-0.352961,9.488454,-2.333338,0.624045,-0.618279,11.341324,7.605628,17.186069,-10.891105,-5.296074,-1.847941,87.720666,-164.305514,-48.080430,-0.189725,0.377379,-0.613783,-0.666978,1995.061279,80050.203125,-3.636372,-2.064456,15.846436,4.437744,4.635051,14.750000,19.799891,4,5.150000,3,0,0, 202
354, 101,20137,20132,7997,1,1,-0.066678,-0.755095,9.773698,-2.157249,0.753142,-0.267961,9.899747,7.125102,15.744493,-10.370198,0.509004,-5.047630,88.201095,-163.717462,-48.207185,-0.188512,0.380275,-0.608652,-0.670371,1995.061401,80048.390625,-1.802849,-1.977491,15.846436,4.437866,4.622798,14.750000,19.795343,4,5.150000,3,0,0, 202
355, 101,20189,20175,8049,1,1,-0.120525,-0.712980,9.514965,-2.081702,0.671139,-0.512646,11.341324,8.086153,15.744493,3.257240,-1.805076,-2.657235,88.231311,-163.705141,-48.315826,-0.189174,0.380865,-0.608074,-0.670374,1994.915527,80053.000000,-1.821749,-1.989636,15.846436,4.291992,4.545524,14.750000,19.804438,4,5.150000,3,0,0, 202
356, 101,20241,20236,8101,1,1,-0.016168,-0.572466,9.727964,-2.223458,0.696616,-0.338853,10.860798,7.605628,16.705544,12.254577,-5.077748,4.078309,88.022786,-164.226913,-48.170630,-0.190773,0.377763,-0.611471,-0.668584,1994.741333,80051.187500,-4.022591,-2.561805,15.846436,4.117798,4.453583,14.875000,19.799891,4,5.150000,3,0,0, 202
357, 101,20293,20280,8153,1,1,0.087223,-0.401379,9.300957,-2.242603,0.666932,-0.789760,11.341324,7.125102,16.225018,7.593832,-0.815895,-0.431072,87.878860,-164.570936,-48.106726,-0.191997,0.375895,-0.613630,-0.667307,1994.813965,80049.218750,-3.591784,-2.581905,15.846436,4.190430,4.351135,14.875000,19.799891,4,5.150000,3,0,0, 202
358, 101,20345,20340,8205,1,1,0.013662,-0.425814,9.136687,-2.165848,0.675673,-0.940237,11.341324,7.605628,16.705544,-2.031754,11.176432,-10.198009,87.520343,-164.349064,-48.629762,-0.192517,0.380432,-0.613271,-0.664911,1994.684326,80052.164062,-2.037094,-2.411888,15.846436,4.060791,4.321999,14.875000,19.799891,4,5.150000,3,0,0, 202
359, 101,20397,20383,8257,1,1,-0.156208,-0.458615,9.272500,-2.144999,0.617639,-0.788149,10.860798,8.086153,15.263968,-5.226225,13.538243,-8.926366,87.235641,-163.868929,-49.094884,-0.191364,0.385832,-0.611800,-0.663487,1994.664795,80053.828125,-1.950586,-2.446782,15.846436,4.041260,4.226980,14.875000,19.808987,4,5.150000,3,0,0, 202
360, 101,20619,20607,8479,1,1,-0.011031,-0.404460,8.796301,-2.269191,0.621480,-1.315533,11.821850,7.605628,15.263968,3.551704,7.556707,6.159616,87.610755,-163.081135,-47.108832,-0.176290,0.378612,-0.613673,-0.670060,1994.350586,80055.664062,-1.163814,-3.280249,15.846436,3.727051,3.827870,14.875000,19.872656,4,5.150000,3,0,0, 202
361, 101,20672,20666,8532,1,1,-0.031296,-0.336128,8.915542,-2.407317,0.622214,-1.232539,11.341324,8.086153,16.225018,-7.644672,13.232188,5.080815,87.226065,-162.627938,-46.901167,-0.171047,0.380390,-0.615140,-0.669066,1994.206299,80055.664062,-1.489978,-2.594986,15.846436,3.582764,3.824732,14.875000,19.872656,4,5.150000,3,0,0, 202
362, 101,20723,20709,8583,1,1,-0.045402,-0.444201,9.066747,-2.497205,0.697162,-1.101390,10.860798,6.644576,16.225018,-17.742496,15.319501,4.160756,87.200158,-161.785625,-46.735515,-0.164856,0.383809,-0.613099,-0.670539,1994.045532,80061.851562,-2.379827,-2.645066,15.846436,3.421997,3.721957,14.875000,19.863560,4,5.150000,3,0,0, 202
363, 101,20776,20770,8636,1,1,-0.118312,-0.705785,9.120579,-2.475448,0.833646,-1.033202,10.860798,6.644576,16.705544,-10.929293,16.318092,0.302556,87.158248,-160.554620,-46.700312,-0.156981,0.389884,-0.609397,-0.672296,1994.065186,80055.726562,-2.352705,-2.525763,15.846436,3.441650,3.696373,14.875000,19.840820,4,5.150000,3,0,0, 202
364, 101,20828,20813,8688,1,1,-0.231143,-0.718804,9.278320,-2.502632,0.796435,-0.870162,10.860798,6.644576,14.302916,-1.193848,6.908492,9.679869,86.995669,-160.200434,-46.488590,-0.153013,0.390753,-0.609892,-0.672258,1993.973389,80059.953125,-1.729220,-2.561512,15.846436,3.349854,3.596800,14.875000,19.831726,4,5.150000,3,0,0, 202
365, 101,20880,20874,8740,1,1,-0.198958,-0.479626,8.999322,-2.563029,0.681366,-1.185662,11.341324,7.605628,14.302916,7.048988,-5.998816,27.853409,86.769945,-160.415817,-45.430672,-0.147368,0.384312,-0.615506,-0.672116,1993.949951,80062.062500,-0.449659,-1.932590,15.846436,3.326416,3.572425,14.875000,19.827177,4,5.150000,3,0,0, 202
366, 101,20933,20917,8793,1,1,-0.092333,-0.443897,9.102087,-2.658782,0.720022,-1.113883,10.860798,7.605628,16.225018,-0.664459,-6.025901,34.546113,86.938432,-160.672250,-44.022775,-0.141235,0.375212,-0.620013,-0.674428,1993.677979,80067.656250,-1.912553,-1.983221,15.846436,3.054443,3.496066,14.875000,19.836273,4,5.150000,3,0,0, 202
367, 101,20985,20979,8845,1,1,0.038755,-0.563434,9.669058,-2.889594,0.876096,-0.598156,9.899747,7.125102,17.666595,-7.294164,1.532323,30.239990,87.315772,-160.556929,-42.081096,-0.130276,0.364818,-0.623689,-0.678931,1993.719971,80061.234375,-3.202588,-2.295447,15.846436,3.096436,3.412924,14.875000,19.822630,4,5.150000,3,0,0, 202
368, 101,21037,21022,8897,1,1,-0.067201,-0.635436,9.732598,-2.836574,0.855831,-0.508360,10.860798,7.605628,17.186069,-3.553292,2.352820,30.942919,87.421504,-160.332339,-40.825041,-0.121768,0.359014,-0.626331,-0.681169,1993.789062,80060.250000,-1.227751,-2.316297,15.846436,3.165527,3.321045,14.875000,19.822630,4,5.150000,3,0,0, 202
369, 101,21089,21083,8949,1,1,-0.088778,-0.488615,10.225617,-3.096756,0.760882,-0.072637,9.899747,7.125102,17.666595,-0.038686,-1.133996,29.412772,87.423867,-160.270566,-39.152294,-0.111436,0.350154,-0.631305,-0.682955,1993.818237,80065.304688,1.133454,-1.315761,15.846436,3.194702,3.339811,14.875000,19.818081,4,5.150000,3,0,0, 202
370, 101,21141,21126,9001,1,1,-0.117978,-0.452115,10.353669,-3.171296,0.705138,0.040872,10.860798,6.644576,16.225018,-7.425828,1.542033,30.483937,87.552602,-160.124168,-37.908964,-0.103496,0.343939,-0.633865,-0.684989,1993.659546,80064.179688,-0.367409,-1.316200,15.846436,3.036011,3.288139,14.875000,19.822630,4,5.150000,3,0,0, 202
371, 101,21193,21187,9053,1,1,-0.174804,-0.727126,10.659019,-3.183815,0.833284,0.364771,11.341324,6.644576,17.666595,-10.485992,3.436294,30.027424,88.038966,-159.588845,-36.058905,-0.090519,0.336123,-0.634868,-0.689761,1993.818359,80059.570312,-1.844392,-1.466798,15.846436,3.194824,3.291229,14.875000,19.813534,4,5.150000,3,0,0, 202
372, 101,21244,21230,9104,1,1,-0.250093,-0.787750,10.602669,-3.087783,0.808366,0.343546,11.341324,7.125102,17.186069,-2.956984,-7.618954,37.853933,88.295105,-159.575403,-34.619336,-0.082496,0.328010,-0.637456,-0.692282,1993.339844,80070.062500,-2.942962,-1.456877,15.846436,2.716309,3.233570,14.875000,19.822630,4,5.150000,3,0,0, 202
373, 101,21297,21292,9157,1,1,-0.124164,-0.495335,10.542205,-3.265485,0.599549,0.217783,11.341324,8.086153,16.225018,-2.630063,-12.373539,44.111995,88.588448,-159.960148,-32.264864,-0.071449,0.312568,-0.643329,-0.695215,1993.225464,80069.914062,-5.420008,-2.596287,15.846436,2.601929,3.060258,14.875000,19.827177,4,5.150000,3,0,0, 202
374, 101,21349,21335,9209,1,1,-0.027748,-0.476803,10.469417,-3.314240,0.567658,0.125247,11.341324,7.605628,19.108173,-9.270673,-6.131350,40.105949,89.014044,-160.096219,-30.494548,-0.062666,0.301612,-0.645848,-0.698558,1993.234009,80066.968750,-4.254465,-2.586229,15.846436,2.610474,2.959344,14.875000,19.827177,4,5.150000,3,0,0, 202
375, 101,21400,21396,9260,1,1,-0.002822,-0.882609,11.352091,-3.527820,0.846889,0.991879,11.341324,6.644576,20.069225,-8.794978,2.944046,33.180448,89.621658,-159.782495,-28.324164,-0.049022,0.290820,-0.646933,-0.703206,1993.341675,80065.304688,-0.597064,-2.025080,15.846436,2.718140,2.945627,14.875000,19.818081,4,5.150000,3,0,0, 202
376, 101,21621,21617,9481,1,1,-0.094474,-0.768358,11.013303,-3.347021,0.759475,0.692464,10.860798,9.047205,17.666595,-1.688766,-6.708806,43.092753,89.604528,-160.461689,-20.433523,-0.004690,0.241699,-0.666959,-0.704788,1992.719604,80071.453125,-2.950064,-3.719551,15.846436,2.096069,2.399990,14.875000,19.899942,4,5.150000,3,0,0, 202
377, 101,21672,21660,9532,1,1,-0.145678,-0.784714,11.405448,-3.395877,0.773121,1.088975,11.821850,7.605628,17.666595,3.901846,-7.135730,43.131501,89.594460,-160.727151,-18.782173,0.003844,0.230520,-0.670970,-0.704730,1992.622070,80074.250000,-2.374574,-3.688867,15.846436,1.998535,2.254200,14.875000,19.904490,4,5.150000,3,0,0, 202
378, 101,21724,21719,9584,1,1,-0.094101,-0.606246,11.630313,-3.503277,0.680429,1.285236,11.341324,7.605628,18.147121,6.069033,-5.695591,42.254576,89.348881,-161.179651,-16.533115,0.015333,0.214627,-0.677727,-0.703126,1992.775391,80072.500000,0.448345,-2.528723,15.846436,2.151855,2.316876,14.875000,19.868109,4,5.150000,3,0,0, 202
379, 101,21776,21762,9636,1,1,-0.030146,-0.727126,11.718819,-3.525049,0.827761,1.368117,11.341324,7.125102,18.627647,2.644910,-3.248771,38.592061,89.317093,-161.435442,-14.991408,0.023261,0.203981,-0.681206,-0.702716,1992.773193,80073.328125,1.640188,-2.479535,15.846436,2.149658,2.218260,14.875000,19.872656,4,5.150000,3,0,0, 202
380, 101,21829,21824,9689,1,1,-0.090957,-0.748591,11.824164,-3.484083,0.953534,1.483124,11.341324,4.722473,16.705544,12.506876,0.812775,31.538549,88.752824,-161.605541,-13.275121,0.033677,0.192589,-0.687922,-0.698956,1992.550781,80076.875000,-0.423075,-1.927109,15.846436,1.927246,2.186315,14.875000,19.854464,4,5.150000,3,0,0, 202
381, 101,21881,21867,9741,1,1,-0.166336,-0.670547,11.004694,-3.168028,0.927671,0.719628,10.380273,7.125102,17.666595,10.462085,-0.784787,31.728025,88.329284,-161.694743,-12.145146,0.040697,0.185122,-0.692510,-0.696063,1992.656738,80069.320312,-1.535923,-1.875515,15.846436,2.033203,2.110950,14.875000,19.845369,4,5.150000,3,0,0, 202
382, 101,21932,21928,9792,1,1,-0.153864,-0.468274,9.281479,-2.651497,0.742740,-0.923686,11.341324,8.566679,15.744493,0.767330,-4.267803,34.112799,88.001680,-161.949714,-10.417145,0.050091,0.173015,-0.697598,-0.693480,1992.634521,80073.390625,-0.582406,-1.542909,15.846436,2.010986,2.127571,14.875000,19.840820,4,5.150000,3,0,0, 202
383, 101,21985,21970,9845,1,1,-0.139511,-0.584274,8.415409,-2.357763,0.831141,-1.743078,10.380273,7.125102,15.263968,0.479228,-5.118134,33.434606,88.039929,-162.172296,-9.051365,0.056906,0.163396,-0.699701,-0.693168,1992.553223,80075.054688,-0.379034,-1.585519,15.846436,1.929688,2.067703,14.875000,19.849916,4,5.150000,3,0,0, 202
384, 101,22037,22032,9897,1,1,-0.069302,-0.599045,7.349311,-2.066281,0.846184,-2.773163,10.380273,7.605628,14.302916,6.038660,-6.470170,32.098976,87.880786,-162.555797,-7.164393,0.066124,0.149490,-0.703770,-0.691367,1992.337158,80076.335938,-2.610004,-1.847793,15.846436,1.713623,1.988862,14.875000,19.840820,4,5.150000,3,0,0, 202
385, 101,22088,22074,9948,1,1,-0.069413,-0.505765,7.082493,-1.964018,0.797739,-3.023938,11.341324,10.488783,13.822390,13.174969,-8.095240,26.741932,87.448087,-162.899506,-6.250177,0.070024,0.141570,-0.707980,-0.688345,1992.283325,80079.960938,-2.933169,-1.957715,15.846436,1.659790,1.915979,14.875000,19.849916,4,5.150000,3,0,0, 202
386, 101,22141,22136,10001,1,1,-0.035448,-0.406393,7.009630,-1.956587,0.794972,-3.104649,11.341324,7.125102,13.341864,13.532397,-1.182981,18.372961,86.642876,-163.201565,-5.226909,0.075209,0.132930,-0.714395,-0.682871,1992.312744,80073.539062,-2.494220,-2.032487,15.846436,1.689209,1.888458,14.875000,19.836273,4,5.150000,3,0,0, 202
387, 101,22192,22179,10052,1,1,-0.028688,-0.489563,7.065159,-1.979985,0.943721,-3.067055,11.341324,6.644576,13.822390,13.234152,2.033246,15.730901,86.117088,-163.167605,-4.716223,0.079061,0.129583,-0.718064,-0.679221,1992.341919,80076.039062,-1.222022,-2.153248,15.846436,1.718384,1.807905,14.875000,19.849916,4,5.150000,3,0,0, 202
388, 101,22244,22240,10104,1,1,-0.069690,-0.439864,7.075196,-1.989093,0.991859,-3.069250,10.860798,8.086153,15.263968,16.738437,6.232552,9.359236,85.270117,-162.843676,-4.304553,0.084503,0.128278,-0.723146,-0.673398,1992.153564,80076.187500,-2.075364,-2.044737,15.846436,1.530029,1.768353,14.875000,19.845369,4,5.150000,3,0,0, 202
389, 101,22297,22283,10157,1,1,-0.075762,-0.434979,7.077630,-2.016774,1.062129,-3.085921,11.341324,7.125102,14.302916,14.185802,7.767937,6.935047,84.623763,-162.577313,-4.187721,0.087615,0.128594,-0.726748,-0.669048,1991.859863,80082.078125,-4.686491,-2.165185,15.846436,1.236328,1.686640,14.875000,19.845369,4,5.150000,3,0,0, 202
390, 101,22349,22344,10209,1,1,-0.140077,-0.400899,7.102503,-2.003363,1.094274,-3.061935,10.380273,7.125102,14.302916,6.900427,5.459382,3.326746,84.049023,-162.260064,-4.157742,0.090474,0.129781,-0.729747,-0.665162,1991.950195,80083.742188,-2.282598,-2.112698,15.846436,1.326660,1.620376,14.875000,19.854464,4,5.150000,3,0,0, 202
391, 101,22401,22387,10261,1,1,-0.126449,-0.361553,7.641150,-2.200395,1.131916,-2.561463,10.860798,7.125102,15.263968,1.974596,3.854728,5.696545,83.864969,-162.130222,-4.045830,0.092167,0.129665,-0.730784,-0.663813,1991.874268,80078.984375,-1.474127,-2.228040,15.846436,1.250732,1.536529,14.875000,19.849916,4,5.150000,3,0,0, 202
392, 101,22623,22611,10483,1,1,-0.016894,-0.491449,10.892885,-3.368202,1.942596,0.386163,11.341324,8.566679,16.705544,7.883552,12.527755,-18.793366,81.898264,-161.650483,-5.543328,0.089001,0.140433,-0.739704,-0.652071,1991.606812,80084.593750,-2.263859,-2.811056,15.846436,0.983276,1.103170,14.875000,19.918133,4,5.150000,3,0,0, 202
393, 101,22675,22669,10535,1,1,-0.095132,-0.594340,11.299883,-3.525789,2.134813,0.737550,10.860798,6.644576,18.147121,-0.050677,11.035109,-20.676274,81.636060,-160.990086,-6.705526,0.087054,0.151408,-0.738809,-0.650890,1991.522095,80086.562500,2.088249,-1.066142,15.846436,0.898560,1.104234,14.875000,19.918133,4,5.150000,3,0,0, 202
394, 101,22727,22712,10587,1,1,-0.089476,-0.592141,11.446288,-3.638555,2.136788,0.855979,10.860798,7.605628,18.627647,-2.656986,7.477245,-20.984984,81.696760,-160.636282,-7.500991,0.084770,0.158538,-0.736877,-0.651684,1991.290283,80092.750000,0.005688,-1.036777,15.846436,0.666748,1.062613,14.875000,19.909039,4,5.150000,3,0,0, 202
395, 101,22778,22773,10638,1,1,-2.582130,-6.945136,13.796378,-1.181506,8.352497,3.393021,6.055540,-6.329622,19.588699,-8.603591,3.949974,-69.971764,81.992275,-160.330850,-9.354981,0.075776,0.172319,-0.732049,-0.654728,1991.269287,80083.976562,-4.199563,-1.961405,15.846436,0.645752,0.950613,14.875000,19.877203,4,5.150000,3,0,0, 202
396, 101,22830,22816,10690,1,1,-15.481566,2.470186,14.122384,6.997842,-6.804924,8.905834,6.055540,13.371938,13.341864,-48.858064,24.259792,-412.231259,83.161084,-159.207448,-25.898371,-0.014727,0.281588,-0.690196,-0.666425,1991.204834,80086.234375,-3.704876,-1.835025,15.846436,0.581299,0.874702,14.875000,19.868109,4,5.150000,3,0,0, 202
397, 101,22882,22878,10742,1,1,8.260408,6.170395,11.717609,-13.550451,1.269828,-2.160104,16.146584,13.852464,20.069225,56.459942,-30.807493,102.530428,82.513548,-161.074794,-38.223340,-0.096188,0.345224,-0.665165,-0.655075,1990.866699,80095.070312,-3.050457,-2.272563,15.846436,0.243164,0.713573,14.875000,19.868109,4,5.150000,3,0,0, 202
398, 101,22935,22921,10795,1,1,4.947435,3.364864,13.229954,-9.951901,0.986259,0.726015,18.549212,6.164050,21.991329,-78.059814,-21.378955,139.047857,83.567023,-161.051476,-32.310630,-0.064975,0.309994,-0.675935,-0.665427,1990.831421,80093.937500,-3.995076,-2.337392,15.846436,0.207886,0.623652,14.875000,19.872656,4,5.150000,3,0,0, 202
399, 101,22986,22981,10846,1,1,4.487124,-2.456673,14.205846,-8.158727,4.493712,2.082489,14.705005,5.202998,18.627647,-69.094672,33.178289,149.313796,87.746757,-158.441715,-23.151759,-0.004543,0.269085,-0.667739,-0.694044,1990.838867,80089.625000,-3.253645,-2.552872,15.846436,0.215332,0.546643,14.875000,19.854464,4,5.150000,3,0,0, 202
400, 101,23039,23025,10899,1,1,3.199493,-5.740737,13.147332,-6.589975,6.468876,1.634516,11.821850,0.878266,21.510803,-57.062358,30.029842,134.844791,89.746159,-156.247872,-16.705424,0.043997,0.244399,-0.665054,-0.704299,1990.935059,80090.312500,-0.999346,-2.483930,15.846436,0.311523,0.446448,14.875000,19.863560,4,5.150000,3,0,0, 202
401, 101,23091,23085,10951,1,1,1.134100,-3.448668,11.935642,-5.788587,3.389463,0.717691,11.341324,6.644576,18.147121,-26.773069,60.647934,100.682985,91.122899,-153.443779,-10.194481,0.098431,0.223884,-0.664162,-0.706453,1990.687988,80098.992188,-1.011980,-2.112617,15.846436,0.064453,0.385108,14.875000,19.868109,4,5.150000,3,0,0, 202
402, 101,23142,23128,11002,1,1,1.704017,-3.663844,11.792171,-6.869896,3.524078,-0.014881,12.302376,4.722473,17.666595,-4.926987,40.397857,181.598966,91.486723,-151.613452,-4.119699,0.146046,0.199818,-0.669821,-0.700060,1990.740234,80089.625000,-3.166333,-2.088329,15.846436,0.116699,0.301896,14.875000,19.854464,4,5.150000,3,0,0, 202
403, 101,23195,23190,11055,1,1,0.550730,-2.136977,10.409111,-5.735774,2.074026,-1.082119,11.821850,6.644576,17.186069,21.715979,21.149705,27.624302,90.392069,-149.716135,0.343190,0.186121,0.183297,-0.680770,-0.684334,1990.569092,80093.554688,-4.293084,-2.735607,15.846436,-0.054443,0.237818,14.875000,19.854464,4,5.150000,3,0,0, 202
404, 101,23247,23233,11107,1,1,-0.772137,-1.789330,10.512851,-4.879605,1.968517,-0.493351,8.938695,7.125102,17.666595,29.299022,20.217508,125.391550,89.218362,-148.925609,4.225682,0.215511,0.162697,-0.692367,-0.669114,1990.682373,80091.445312,-2.673838,-2.786106,15.846436,0.058838,0.129432,14.875000,19.859013,4,5.150000,3,0,0, 202
405, 101,23298,23294,11158,1,1,-0.202805,-1.305371,11.186516,-5.791467,1.349103,-0.234282,11.341324,7.125102,19.108173,-28.255712,-15.419605,59.303029,89.831912,-148.817924,8.807805,0.241987,0.136834,-0.694645,-0.663466,1990.624268,80096.203125,0.427226,-1.831941,15.846436,0.000732,0.158382,14.875000,19.863560,4,5.150000,3,0,0, 202
406, 101,23350,23337,11210,1,1,0.983338,-2.113408,10.995598,-6.750377,1.694635,-0.975059,11.821850,6.644576,17.666595,-31.683796,-10.474712,48.136677,91.151053,-149.679525,11.638108,0.252000,0.117310,-0.691063,-0.667208,1990.730957,80090.164062,0.409047,-1.846978,15.846436,0.107422,0.086907,14.875000,19.868109,4,5.150000,3,0,0, 202
407, 101,23403,23396,11263,1,1,0.127423,-2.583253,9.309365,-5.385417,2.169483,-2.078025,11.821850,6.644576,15.263968,-1.078663,6.466681,35.317211,92.291702,-149.364558,13.932981,0.266028,0.108042,-0.686385,-0.668156,1990.732422,80093.109375,0.427324,-1.186437,15.846436,0.108887,0.141803,14.875000,19.868109,4,5.150000,3,0,0, 202
408, 101,23625,23617,11485,1,1,0.542145,-1.049121,10.485245,-5.820893,0.987060,-1.055838,11.821850,7.605628,17.666595,15.095087,-4.079676,8.884795,89.047895,-150.915038,17.219175,0.278613,0.070777,-0.708697,-0.644294,1991.152344,80090.421875,3.111812,1.673034,15.846436,0.528809,0.381986,14.875000,19.949968,4,5.150000,3,0,0, 202
409, 101,23677,23673,11537,1,1,1.045289,-0.700208,10.324693,-6.024486,0.560792,-1.340900,11.821850,6.644576,15.744493,-0.032509,-8.545956,13.757002,88.576530,-151.256534,17.643265,0.279312,0.064924,-0.711811,-0.641167,1991.284180,80086.945312,4.804152,1.614060,15.846436,0.660645,0.465176,14.875000,19.936325,4,5.150000,3,0,0, 202
410, 101,23729,23716,11589,1,1,1.011468,-0.840852,10.154756,-5.974489,0.672567,-1.512315,11.341324,7.605628,16.705544,-3.019375,8.779251,8.346013,88.703107,-151.124738,18.109792,0.282606,0.063138,-0.711283,-0.640487,1991.189575,80086.562500,2.435971,1.559468,15.846436,0.566040,0.528435,14.875000,19.918133,4,5.150000,3,0,0, 202
411, 101,23780,23776,11640,1,1,0.035296,-1.574460,9.522332,-5.130212,1.597918,-1.783359,10.860798,7.125102,16.225018,-0.404702,7.775258,5.780224,89.167218,-150.674041,18.572942,0.287510,0.064168,-0.708674,-0.641094,1991.098877,80092.210938,0.132945,1.724812,15.846436,0.475342,0.541512,14.875000,19.895395,4,5.150000,3,0,0, 202
412, 101,23833,23818,11693,1,1,-0.298189,-1.231102,9.330510,-4.665415,1.406527,-1.743796,11.341324,7.125102,14.302916,3.518373,-6.558505,4.069889,88.971130,-150.696882,18.746250,0.288457,0.062464,-0.709879,-0.639502,1990.977173,80091.914062,-1.265154,1.657019,15.846436,0.353638,0.606692,14.875000,19.904490,4,5.150000,3,0,0, 202
413, 101,23884,23879,11744,1,1,0.175695,-1.040277,9.566346,-5.028954,1.021407,-1.658864,11.341324,6.164050,16.705544,-16.131281,-12.897780,-0.948007,89.349543,-151.326393,18.714017,0.284494,0.059766,-0.708102,-0.643493,1990.888184,80093.046875,-3.151643,0.551200,15.846436,0.264648,0.462614,14.875000,19.899942,4,5.150000,3,0,0, 202
414, 101,23937,23923,11797,1,1,0.237461,-1.236603,9.698911,-5.087722,1.151619,-1.527953,11.341324,6.644576,16.225018,-9.879075,-17.435955,-0.275024,89.595826,-152.120033,18.880075,0.280794,0.054488,-0.707212,-0.646558,1990.776733,80093.343750,-3.324901,0.486942,15.846436,0.153198,0.483557,14.875000,19.890846,4,5.150000,3,0,0, 202
415, 101,23989,23984,11849,1,1,0.622092,-1.565557,9.604398,-5.319664,1.268454,-1.727920,11.341324,5.683524,16.705544,-11.694892,-15.129690,7.071916,90.052554,-153.147827,19.097538,0.275981,0.047941,-0.705190,-0.651340,1990.824463,80089.718750,-3.270924,-0.766295,15.846436,0.200928,0.282569,14.875000,19.881752,4,5.150000,3,0,0, 202
416, 101,24042,24027,11902,1,1,0.615964,-1.975312,9.563881,-5.317304,1.615950,-1.747176,11.821850,6.164050,16.705544,-11.214471,-18.062377,1.923377,90.307347,-153.903546,19.373625,0.273163,0.042193,-0.704139,-0.654057,1990.944336,80089.718750,-0.824743,-0.834476,15.846436,0.320801,0.251715,14.875000,19.881752,4,5.150000,3,0,0, 202
417, 101,24093,24088,11953,1,1,0.852982,-1.628921,9.655483,-5.385683,1.209982,-1.668369,11.821850,7.125102,15.744493,0.278623,-6.929898,9.555371,90.257494,-154.437667,19.679927,0.271896,0.036894,-0.704707,-0.654293,1990.819580,80090.546875,0.738721,-0.350956,15.846436,0.196045,0.306329,14.875000,19.886299,4,5.150000,3,0,0, 202
418, 101,24145,24131,12005,1,1,1.652704,-1.657959,10.102775,-6.257342,0.990228,-1.590553,11.821850,6.644576,17.666595,6.322876,-3.094958,13.672631,89.997284,-154.547387,20.077705,0.273619,0.033148,-0.706345,-0.652005,1990.825073,80089.570312,-0.345697,-0.415760,15.846436,0.201538,0.292225,14.875000,19.886299,4,5.150000,3,0,0, 202
419, 101,24198,24192,12058,1,1,0.470522,-1.181833,9.572100,-4.971874,0.981929,-1.581542,11.341324,8.086153,16.225018,4.682916,8.704132,-2.144319,89.746958,-153.923285,20.270895,0.278340,0.035196,-0.707633,-0.648493,1990.770996,80089.414062,-0.407081,-0.432273,15.846436,0.147461,0.267289,14.875000,19.890846,4,5.150000,3,0,0, 202
420, 101,24250,24235,12110,1,1,0.663312,-1.176280,9.677318,-5.193872,0.882927,-1.571892,11.821850,6.644576,16.225018,-4.497145,1.989952,2.044140,89.934945,-153.818865,20.272784,0.278885,0.036284,-0.706536,-0.649395,1990.731445,80090.398438,-0.405934,-0.495125,15.846436,0.107910,0.249580,14.875000,19.890846,4,5.150000,3,0,0, 202
421, 101,24302,24295,12162,1,1,0.828752,-1.534210,9.590292,-5.409218,1.167091,-1.776501,10.860798,6.644576,16.705544,5.717842,2.580026,5.841648,89.864601,-153.818059,20.442935,0.279876,0.035068,-0.706987,-0.648544,1990.889893,80086.085938,1.145588,-0.352690,15.846436,0.266357,0.232675,14.875000,19.872656,4,5.150000,3,0,0, 202
422, 101,24353,24338,12213,1,1,1.061469,-1.597133,9.749413,-5.713269,1.147057,-1.752930,11.341324,7.125102,16.225018,1.661369,1.917312,8.626581,89.796518,-153.720757,20.713211,0.281976,0.033832,-0.707423,-0.647223,1990.607666,80097.117188,1.006687,-0.422648,15.846436,-0.015869,0.218160,14.875000,19.895395,4,5.150000,3,0,0, 202
423, 101,24406,24400,12266,1,1,0.932486,-1.363748,9.685616,-5.571997,0.984983,-1.768369,11.341324,6.644576,16.225018,5.885148,9.193917,3.375323,89.711659,-153.234666,20.765693,0.285052,0.036288,-0.707764,-0.645367,1990.647217,80092.210938,-0.401133,-0.054979,15.846436,0.023682,0.190658,14.875000,19.895395,4,5.150000,3,0,0, 202
424, 101,24627,24621,12487,1,1,-0.048623,-1.911579,10.077477,-5.291233,1.869191,-1.214906,11.341324,6.644576,17.186069,6.445688,5.070315,-6.308407,89.565370,-151.998128,20.823030,0.292415,0.043160,-0.708157,-0.641206,1990.801514,80093.898438,2.592973,2.337407,15.846436,0.177979,0.274616,14.875000,19.963612,4,5.150000,3,0,0, 202
425, 101,24678,24664,12538,1,1,0.185446,-0.758687,10.211157,-5.230629,0.802268,-1.033183,11.341324,7.605628,17.666595,17.576481,5.381772,-10.287048,88.991177,-151.664378,20.228218,0.291210,0.047425,-0.710985,-0.638317,1990.821777,80090.953125,0.239897,2.292701,15.846436,0.198242,0.364205,14.875000,19.963612,4,5.150000,3,0,0, 202
426, 101,24730,24725,12590,1,1,0.220684,-0.349120,9.817882,-5.014072,0.422570,-1.360508,12.302376,7.125102,15.744493,-0.222722,7.154067,-13.185591,88.873513,-151.195731,19.301807,0.288766,0.055733,-0.710990,-0.638749,1990.723389,80095.773438,-1.177182,1.403826,15.846436,0.099854,0.246188,14.875000,19.936325,4,5.150000,3,0,0, 202
427, 101,24783,24768,12643,1,1,0.308136,-1.019374,9.740578,-5.282531,1.041923,-1.614292,11.821850,7.605628,17.186069,8.419177,5.969224,-2.953847,88.749327,-150.898987,19.048843,0.289110,0.058797,-0.711392,-0.637871,1990.818359,80088.375000,-1.217993,1.348775,15.846436,0.194824,0.300754,14.875000,19.922682,4,5.150000,3,0,0, 202
428, 101,24834,24829,12694,1,1,-0.349804,-0.246249,8.950157,-4.192615,0.495008,-1.897503,11.341324,8.086153,16.705544,-8.171229,3.800733,-17.622672,88.897549,-150.441938,18.124961,0.286483,0.067680,-0.709780,-0.639968,1990.895020,80089.804688,-0.236925,0.581433,15.846436,0.271484,0.202714,14.875000,19.909039,4,5.150000,3,0,0, 202
429, 101,24886,24871,12746,1,1,-0.103177,-1.038118,9.333352,-4.759001,1.111413,-1.781245,11.821850,7.125102,15.263968,-10.828981,-4.694465,-9.216889,89.345609,-150.703835,17.856732,0.283221,0.068856,-0.707276,-0.644054,1990.638184,80093.281250,-1.176623,0.509637,15.846436,0.014648,0.224318,14.875000,19.922682,4,5.150000,3,0,0, 202
430, 101,24939,24932,12799,1,1,0.614760,-2.034927,9.573365,-5.687747,1.776355,-2.012401,11.341324,6.164050,16.225018,-10.861578,-3.270181,-9.967634,89.840968,-151.021876,17.555048,0.279411,0.069984,-0.704497,-0.648626,1990.472656,80096.671875,-3.360085,-0.012470,15.846436,-0.150879,0.128467,14.875000,19.909039,4,5.150000,3,0,0, 202
431, 101,24990,24976,12850,1,1,0.545464,-1.714324,9.558042,-5.517665,1.471347,-1.928065,11.341324,6.644576,16.705544,-1.883331,-1.454752,-3.382026,89.995829,-151.162140,17.510074,0.278266,0.069776,-0.703678,-0.650028,1990.482300,80094.023438,-2.907725,-0.092413,15.846436,-0.141235,0.127210,14.875000,19.899942,4,5.150000,3,0,0, 202
432, 101,25043,25037,12903,1,1,0.248712,-1.749012,9.663274,-5.300352,1.522068,-1.671465,11.341324,7.125102,16.225018,-10.095370,0.033185,-11.086060,90.537170,-151.303047,17.126208,0.274947,0.072568,-0.700444,-0.654611,1990.288330,80095.156250,-3.006274,-0.871666,15.846436,-0.335205,-0.005400,14.875000,19.895395,4,5.150000,3,0,0, 202
433, 101,25095,25081,12955,1,1,0.362888,-2.038528,9.744146,-5.480475,1.741764,-1.666732,11.341324,6.644576,17.666595,-5.555454,-2.575949,-10.761471,90.735648,-151.451508,16.835458,0.272317,0.073901,-0.699214,-0.656873,1989.950928,80101.875000,-4.630382,-0.937791,15.846436,-0.672607,-0.040448,14.875000,19.899942,4,5.150000,3,0,0, 202
434, 101,25148,25142,13008,1,1,0.542695,-2.254720,9.870526,-5.764853,1.890584,-1.677102,11.341324,6.644576,17.186069,5.322509,5.816371,1.544775,90.788753,-151.311503,16.770324,0.272700,0.075289,-0.698780,-0.657018,1990.387451,80093.046875,-0.822686,-1.748771,15.846436,-0.236084,-0.198002,14.875000,19.899942,4,5.150000,3,0,0, 202
435, 101,25200,25185,13060,1,1,0.278607,-1.728808,9.602276,-5.334791,1.490053,-1.764219,10.380273,6.644576,16.705544,7.204085,9.601876,-3.940441,90.616810,-150.908645,16.650922,0.274408,0.078093,-0.699427,-0.655289,1990.537109,80090.929688,3.722390,-1.817200,15.846436,-0.086426,-0.267515,14.875000,19.904490,4,5.150000,3,0,0, 202
436, 101,25252,25248,13112,1,1,0.115761,-1.534046,9.901318,-5.339723,1.353118,-1.430862,11.341324,6.644576,17.186069,3.231468,3.365083,7.647336,90.565563,-150.616750,16.742219,0.276614,0.079212,-0.699589,-0.654053,1990.708252,80088.140625,5.123218,0.128114,15.846436,0.084717,-0.077315,14.875000,19.899942,4,5.150000,3,0,0, 202
437, 101,25303,25291,13163,1,1,0.089882,-1.449377,9.855436,-5.298957,1.294234,-1.465269,10.860798,6.644576,17.666595,2.621958,3.165494,6.796357,90.449046,-150.488206,17.027349,0.279045,0.077979,-0.700364,-0.652338,1990.752197,80089.117188,4.855864,0.071451,15.846436,0.128662,-0.072813,14.875000,19.899942,4,5.150000,3,0,0, 202
438, 101,25356,25351,13216,1,1,0.250727,-1.828831,9.891232,-5.546157,1.574061,-1.554400,10.860798,6.164050,16.705544,-0.495582,1.465003,8.229645,90.674525,-150.549746,17.336682,0.280308,0.076261,-0.699327,-0.653110,1990.819580,80087.835938,3.236896,1.217036,15.846436,0.196045,0.021566,14.875000,19.909039,4,5.150000,3,0,0, 202
439, 101,25408,25394,13268,1,1,0.142356,-1.649297,9.678440,-5.319171,1.443676,-1.674816,11.341324,6.644576,15.263968,1.878064,1.302540,3.075212,90.609665,-150.476977,17.508502,0.281739,0.075502,-0.699764,-0.652114,1990.854248,80093.726562,3.298975,1.155586,15.846436,0.230713,0.068481,14.875000,19.909039,4,5.150000,3,0,0, 202
440, 101,25628,25617,13488,1,1,-0.137212,-1.310601,9.598172,-4.950511,1.252287,-1.567797,11.341324,8.566679,16.225018,1.941373,0.713791,-3.424592,90.277636,-150.505650,17.287967,0.280543,0.075859,-0.701524,-0.650695,1990.685547,80094.429688,1.381897,0.010167,15.846436,0.062012,0.059981,14.875000,19.977253,4,5.150000,3,0,0, 202
441, 101,25680,25675,13540,1,1,0.277025,-1.499378,9.995118,-5.544217,1.327402,-1.450735,11.341324,6.644576,17.186069,5.227038,1.807608,-0.368644,90.176174,-150.427226,16.983494,0.279326,0.077958,-0.701844,-0.650626,1990.797363,80093.898438,-0.681215,0.068910,15.846436,0.173828,0.064068,14.875000,19.963612,4,5.150000,3,0,0, 202
442, 101,25733,25718,13593,1,1,0.114460,-1.262537,9.806376,-5.268960,1.173172,-1.516446,11.341324,7.125102,16.225018,1.092523,0.125086,-0.868897,90.008240,-150.330674,16.945129,0.279769,0.078376,-0.702705,-0.649455,1990.761597,80090.125000,-0.626496,0.011213,15.846436,0.138062,0.066218,14.875000,19.959063,4,5.150000,3,0,0, 202
443, 101,25785,25779,13645,1,1,0.133260,-1.347286,9.735878,-5.290348,1.260174,-1.612933,9.899747,6.644576,16.705544,6.562290,4.243839,2.523175,89.935942,-150.180888,16.827397,0.280001,0.079839,-0.702930,-0.648933,1990.835938,80088.906250,-0.320339,-0.031080,15.846436,0.212402,0.090293,14.875000,19.936325,4,5.150000,3,0,0, 202
444, 101,25836,25821,13696,1,1,0.235123,-1.279785,9.786722,-5.397565,1.183275,-1.619361,10.860798,6.644576,15.263968,1.933909,1.456930,-0.753901,89.817035,-150.078271,16.806104,0.280546,0.080308,-0.703516,-0.648005,1990.691528,80093.132812,-0.113118,-0.092646,15.846436,0.067993,0.088495,14.875000,19.927229,4,5.150000,3,0,0, 202
445, 101,25889,25883,13749,1,1,0.058709,-1.445718,9.614040,-5.208293,1.377695,-1.707858,11.341324,6.644576,16.705544,-2.029562,-0.978394,-0.639368,89.923081,-150.069501,16.826125,0.280634,0.080498,-0.702924,-0.648585,1990.583984,80095.390625,-1.777081,-0.213440,15.846436,-0.039551,0.059778,14.875000,19.918133,4,5.150000,3,0,0, 202
446, 101,25941,25926,13801,1,1,0.120901,-1.501371,9.613520,-5.288064,1.420294,-1.756894,11.821850,6.644576,15.263968,2.278352,2.454991,0.060380,89.879142,-149.947159,16.698045,0.280634,0.081926,-0.702994,-0.648330,1990.609375,80092.148438,-2.009778,-0.281339,15.846436,-0.014160,0.050701,14.875000,19.927229,4,5.150000,3,0,0, 202
447, 101,25993,25987,13853,1,1,0.178064,-1.347941,9.689775,-5.359365,1.290399,-1.716913,10.860798,7.125102,17.666595,5.323810,3.982713,-0.344108,89.652708,-149.758632,16.550059,0.281032,0.083432,-0.704029,-0.646841,1990.550781,80097.054688,-0.502112,-0.465094,15.846436,-0.072754,0.060816,14.875000,19.927229,4,5.150000,3,0,0, 202
448, 101,26044,26030,13904,1,1,0.079165,-1.307378,9.800211,-5.345311,1.299891,-1.585310,10.380273,7.125102,17.186069,3.883544,3.415911,-0.993157,89.523556,-149.589776,16.439200,0.281461,0.084828,-0.704549,-0.645906,1990.749512,80090.187500,0.710341,-0.530078,15.846436,0.125977,0.042088,14.875000,19.927229,4,5.150000,3,0,0, 202
449, 101,26097,26091,13957,1,1,0.036232,-1.287981,9.828750,-5.333623,1.307050,-1.548206,11.821850,6.644576,16.225018,0.475375,2.347816,-4.557300,89.439702,-149.469729,16.264864,0.281224,0.086426,-0.704799,-0.645524,1990.651123,80091.468750,0.651565,-0.182625,15.846436,0.027588,0.091532,14.875000,19.918133,4,5.150000,3,0,0, 202
450, 101,26149,26134,14009,1,1,0.064437,-1.362866,9.769211,-5.374973,1.365408,-1.643527,10.380273,5.683524,16.225018,3.903497,4.825702,1.138230,89.477213,-149.246750,16.180957,0.281992,0.088393,-0.704349,-0.645415,1990.686279,80095.390625,0.811277,-0.244704,15.846436,0.062744,0.083753,14.875000,19.918133,4,5.150000,3,0,0, 202
451, 101,26200,26196,14060,1,1,0.089337,-1.237930,9.645752,-5.318473,1.253196,-1.755857,10.860798,6.164050,16.705544,-2.935665,2.551315,-6.559142,89.372752,-149.115652,16.040493,0.282029,0.089798,-0.704723,-0.644796,1990.790039,80093.429688,1.658379,0.059381,15.846436,0.166504,0.107633,14.875000,19.918133,4,5.150000,3,0,0, 202
452, 101,26253,26239,14113,1,1,0.140840,-1.319514,9.838366,-5.492729,1.324017,-1.638201,10.860798,6.644576,17.186069,4.286955,2.623979,-2.974429,89.348553,-148.992503,15.821892,0.281519,0.091832,-0.704584,-0.644883,1990.645996,80096.226562,0.335228,-0.008584,15.846436,0.022461,0.109289,14.875000,19.922682,4,5.150000,3,0,0, 202
453, 101,26305,26300,14165,1,1,0.103878,-1.168475,9.733727,-5.372880,1.193189,-1.687429,11.821850,6.644576,15.744493,-1.016147,0.698747,-3.285266,89.327611,-148.961686,15.545120,0.280153,0.093670,-0.704453,-0.645358,1990.659180,80095.390625,-1.591015,-0.162395,15.846436,0.035645,0.055564,14.875000,19.918133,4,5.150000,3,0,0, 202
454, 101,26357,26343,14217,1,1,0.097996,-1.240726,9.801256,-5.415816,1.268498,-1.635617,10.860798,7.125102,17.186069,1.964518,1.170343,1.228787,89.303767,-148.985277,15.530814,0.279958,0.093556,-0.704595,-0.645303,1990.473633,80091.468750,-3.206114,-0.227622,15.846436,-0.149902,0.048574,14.875000,19.918133,4,5.150000,3,0,0, 202
455, 101,26409,26404,14269,1,1,0.223139,-1.193973,9.840528,-5.545324,1.193586,-1.668590,11.821850,6.164050,16.225018,0.156951,1.992035,-0.871587,89.275743,-148.867361,15.523874,0.280614,0.094247,-0.704647,-0.644861,1990.506470,80097.359375,-2.213938,-0.807792,15.846436,-0.117065,-0.005104,14.875000,19.918133,4,5.150000,3,0,0, 202
456, 101,26630,26625,14490,1,1,0.000717,-1.136047,9.808429,-5.419828,1.198599,-1.634930,11.341324,8.566679,16.225018,0.105529,3.310267,-1.788764,89.271788,-148.247945,15.466221,0.283824,0.098355,-0.704081,-0.643460,1990.950684,80087.117188,3.017689,0.783855,15.846436,0.327148,0.067894,15.000000,19.990896,4,5.150000,3,0,0, 202
457, 101,26683,26668,14543,1,1,0.002261,-1.055371,9.847633,-5.439879,1.117234,-1.600439,11.341324,7.125102,17.186069,0.124003,2.273570,-1.447893,89.297436,-148.132296,15.456969,0.284408,0.099178,-0.703826,-0.643355,1990.708252,80095.117188,2.893538,0.719822,15.846436,0.084717,0.097948,15.000000,19.986349,4,5.150000,3,0,0, 202
458, 101,26734,26729,14594,1,1,-0.110440,-1.209912,9.792990,-5.378031,1.275856,-1.626179,11.341324,6.644576,16.705544,1.135414,5.328295,1.361291,89.435310,-147.974259,15.551246,0.285715,0.099902,-0.702992,-0.643575,1990.617676,80091.257812,-0.921719,1.240844,15.846436,-0.005859,0.073064,15.000000,19.954515,4,5.150000,3,0,0, 202
459, 101,26787,26772,14647,1,1,-0.084434,-1.244721,9.692780,-5.379059,1.297048,-1.745577,10.860798,6.164050,16.705544,0.975505,5.594693,-3.228904,89.464919,-147.797548,15.557296,0.286726,0.101013,-0.702672,-0.643302,1990.369385,80097.140625,-2.982308,1.176777,15.846436,-0.254150,0.120925,15.000000,19.954515,4,5.150000,3,0,0, 202
460, 101,26839,26834,14699,1,1,-0.189329,-1.158005,9.711812,-5.306357,1.243732,-1.677465,10.860798,6.644576,17.666595,1.510124,3.402499,-0.591859,89.455889,-147.630810,15.478672,0.287238,0.102486,-0.702501,-0.643027,1990.370117,80093.960938,-3.224759,-0.053838,15.846436,-0.253418,-0.075196,15.000000,19.931776,4,5.150000,3,0,0, 202
461, 101,26891,26877,14751,1,1,-0.214897,-1.068902,9.783035,-5.325963,1.173303,-1.606246,10.380273,7.125102,17.186069,2.907968,2.873198,-0.965893,89.400954,-147.468388,15.421811,0.287890,0.103684,-0.702607,-0.642427,1990.399902,80095.929688,-1.382554,-0.118668,15.846436,-0.223633,-0.077937,15.000000,19.931776,4,5.150000,3,0,0, 202
462, 101,26942,26938,14802,1,1,-0.137457,-1.091629,9.753514,-5.404129,1.173636,-1.691773,10.860798,6.644576,16.705544,1.974691,2.680610,-5.554983,89.408604,-147.243360,15.051859,0.287084,0.107336,-0.702011,-0.642839,1990.244141,80100.835938,-1.566728,-0.497423,15.846436,-0.379395,-0.196033,15.000000,19.931776,4,5.150000,3,0,0, 202
463, 101,26994,26981,14854,1,1,-0.107899,-1.217346,9.752773,-5.475768,1.288245,-1.740817,10.860798,7.125102,16.705544,-0.605017,3.020149,-8.457223,89.406302,-147.061131,14.761861,0.286493,0.110212,-0.701571,-0.643097,1990.357056,80093.132812,-2.288398,-0.563871,15.846436,-0.266479,-0.216198,15.000000,19.927229,4,5.150000,3,0,0, 202
464, 101,27047,27042,14907,1,1,-0.346920,-0.930594,9.601357,-5.176634,1.090114,-1.727184,10.860798,7.605628,16.225018,1.803105,7.095088,-11.776305,89.269603,-146.722914,14.116910,0.284930,0.115867,-0.701358,-0.643029,1990.543945,80091.468750,0.172570,-0.903527,15.846436,-0.079590,-0.270584,15.000000,19.918133,4,5.150000,3,0,0, 202
465, 101,27099,27085,14959,1,1,-0.519545,-0.913321,9.688705,-5.097800,1.121160,-1.571144,10.380273,7.125102,16.705544,3.694858,2.744091,-16.157497,89.221887,-146.542064,13.484609,0.282459,0.120711,-0.700781,-0.643857,1990.456909,80094.109375,1.030487,-0.969658,15.846436,-0.166626,-0.305926,15.000000,19.927229,4,5.150000,3,0,0, 202
466, 101,27151,27146,15011,1,1,-0.735836,-0.913874,9.722570,-4.973317,1.176660,-1.447164,10.380273,7.125102,17.186069,1.187734,4.975778,-14.157423,89.151570,-146.234132,12.649793,0.279599,0.127498,-0.699928,-0.644724,1990.827393,80088.226562,3.360178,-0.067217,15.846436,0.203857,-0.193273,15.000000,19.927229,4,5.150000,3,0,0, 202
467, 101,27203,27189,15063,1,1,-0.664198,-1.049722,9.826667,-5.108208,1.277323,-1.411655,10.380273,6.164050,17.186069,-2.203721,0.625560,-20.080406,89.232474,-146.197959,11.993620,0.276017,0.131916,-0.698687,-0.646722,1990.432617,80100.000000,2.523854,-0.122180,15.846436,-0.190918,-0.196431,15.000000,19.927229,4,5.150000,3,0,0, 202
468, 101,27254,27250,15114,1,1,-0.690391,-0.897262,9.823930,-5.084558,1.137162,-1.395915,10.380273,7.125102,17.186069,2.663508,4.563611,-19.139052,89.147192,-145.918782,10.935216,0.271740,0.139839,-0.697574,-0.648069,1990.561279,80093.281250,-1.201534,0.263707,15.846436,-0.062256,-0.199076,15.000000,19.922682,4,5.150000,3,0,0, 202
469, 101,27306,27293,15166,1,1,-0.599805,-0.663096,9.811025,-5.139968,0.900010,-1.444782,11.341324,7.605628,17.186069,4.257661,7.084513,-19.739178,89.025034,-145.676952,10.062395,0.268345,0.146311,-0.696864,-0.648818,1990.743286,80088.226562,0.371244,0.208678,15.846436,0.119751,-0.189238,15.000000,19.927229,4,5.150000,3,0,0, 202
470, 101,27359,27354,15219,1,1,-0.693029,-0.753599,9.640388,-5.018469,0.996003,-1.566424,9.419221,7.125102,15.744493,0.741831,5.378037,-16.578761,89.015540,-145.340360,9.166394,0.265222,0.153743,-0.695291,-0.650070,1990.484375,80099.171875,0.603473,0.630664,15.846436,-0.139160,-0.088170,15.000000,19.922682,4,5.150000,3,0,0, 202
471, 101,27411,27397,15271,1,1,-0.820266,-0.957332,9.732817,-5.001680,1.212991,-1.444632,10.380273,6.644576,17.186069,2.085137,0.383190,-18.616635,89.003635,-145.215545,8.452150,0.261904,0.158791,-0.694209,-0.651357,1990.441650,80093.429688,-2.082832,0.569230,15.846436,-0.181885,-0.064068,15.000000,19.918133,4,5.150000,3,0,0, 202
472, 101,27631,27621,15491,1,1,-0.970783,-0.712261,9.655496,-4.907357,0.974015,-1.455494,11.341324,8.566679,14.783442,-0.185563,5.098287,-15.681810,88.729662,-144.219567,4.658878,0.246478,0.186968,-0.688503,-0.655939,1990.396606,80094.515625,-1.915771,0.531579,15.846436,-0.226929,-0.107234,15.000000,20.004539,4,5.150000,3,0,0, 202
473, 101,27684,27678,15544,1,1,-0.860960,-0.692904,9.863045,-5.134849,0.948595,-1.360946,9.899747,7.125102,16.705544,0.793964,2.627720,-14.759320,88.647441,-144.034906,3.847142,0.243048,0.192749,-0.687314,-0.656792,1990.539917,80093.156250,1.509193,0.407900,15.846436,-0.083618,-0.123022,15.000000,19.986349,4,5.150000,3,0,0, 202
474, 101,27736,27722,15596,1,1,-0.892358,-0.763500,9.787142,-5.096057,1.020862,-1.425117,10.380273,7.125102,16.225018,1.269491,4.997871,-9.188198,88.599404,-143.817583,3.450822,0.242134,0.196296,-0.686536,-0.656892,1990.634033,80091.492188,3.395814,0.355009,15.846436,0.010498,-0.107448,15.000000,19.977253,4,5.150000,3,0,0, 202
475, 101,27789,27783,15649,1,1,-0.928597,-0.934663,9.855653,-5.137992,1.168083,-1.368539,10.380273,7.125102,17.186069,-2.772645,4.589717,-15.460729,88.728010,-143.615437,2.910417,0.239998,0.200981,-0.684501,-0.658381,1990.517090,80092.234375,0.609674,0.884126,15.846436,-0.106445,-0.102230,15.000000,19.954515,4,5.150000,3,0,0, 202
476, 101,27840,27825,15700,1,1,-0.967394,-0.970646,9.814242,-5.091949,1.204842,-1.385670,9.419221,7.605628,16.705544,2.457576,1.672635,-9.916140,88.687336,-143.518749,2.489196,0.238217,0.203976,-0.683815,-0.658819,1990.647461,80090.421875,0.208708,0.830182,15.846436,0.023926,-0.068570,15.000000,19.949968,4,5.150000,3,0,0, 202
477, 101,27893,27887,15753,1,1,-1.008388,-0.890973,9.789786,-5.058001,1.120180,-1.385988,9.419221,6.644576,17.666595,0.013545,2.228114,-10.042912,88.655159,-143.348103,1.809681,0.235371,0.208954,-0.682461,-0.659686,1990.527832,80095.476562,0.435522,0.732128,15.846436,-0.095703,-0.087511,14.875000,19.945419,4,5.150000,3,0,0, 202
478, 101,27944,27929,15804,1,1,-0.903489,-0.870928,9.672965,-5.080453,1.101842,-1.547758,9.899747,7.125102,15.744493,1.590623,3.129819,-11.282841,88.546436,-143.249749,1.360167,0.233563,0.211980,-0.682076,-0.659762,1990.639648,80089.585938,-0.298628,0.677177,15.846436,0.016113,-0.059858,14.875000,19.945419,4,5.150000,3,0,0, 202
479, 101,27997,27989,15857,1,1,-1.062519,-0.959675,9.609341,-4.895045,1.216291,-1.497475,9.899747,8.086153,17.186069,5.732501,-2.540233,-11.236660,88.309811,-143.327613,0.605459,0.229198,0.215544,-0.682180,-0.660030,1990.448486,80100.687500,-0.303666,0.518071,15.846436,-0.175049,-0.057306,14.875000,19.936325,4,5.150000,3,0,0, 202
480, 101,28049,28032,15909,1,1,-0.821115,-0.890624,9.499084,-4.986306,1.160214,-1.708367,9.899747,6.164050,17.186069,3.836583,-6.726378,-14.326404,88.093075,-143.525442,-0.023992,0.224805,0.217721,-0.682625,-0.660366,1990.535156,80094.882812,-0.606270,0.458742,15.846436,-0.088379,-0.037837,14.875000,19.963612,4,5.150000,3,0,0, 202
481, 101,28100,28094,15960,1,1,-0.191651,-1.703030,9.043194,-5.142510,2.000655,-2.434294,11.341324,6.644576,16.225018,8.398909,-4.180416,-24.936269,87.662329,-143.909846,-1.233033,0.216361,0.221891,-0.683553,-0.660838,1990.511963,80096.015625,-0.669968,0.038696,15.846436,-0.111572,-0.083318,14.875000,19.959063,4,5.150000,3,0,0, 202
482, 101,28153,28136,16013,1,1,0.202232,-1.015660,9.102316,-4.664279,1.825294,-2.419373,10.380273,6.644576,16.705544,-0.966137,-19.423446,-48.537069,87.310356,-144.590501,-2.542301,0.205385,0.225172,-0.684413,-0.662340,1990.691772,80090.210938,0.830357,-0.058498,15.846436,0.068237,-0.082716,14.875000,19.986349,4,5.150000,3,0,0, 202
483, 101,28205,28197,16065,1,1,-0.424747,-1.091653,9.483098,-4.935767,1.468078,-1.752136,10.860798,7.125102,16.225018,19.881431,-18.308676,-62.349109,86.991994,-145.480448,-5.741281,0.182047,0.238661,-0.681659,-0.667264,1990.914307,80086.046875,2.941411,0.234391,15.846436,0.290771,-0.023915,14.875000,19.963612,4,5.150000,3,0,0, 202
484, 101,28257,28239,16117,1,1,-0.131000,1.416202,10.501141,-5.187284,0.381914,-0.979144,10.380273,9.527731,17.666595,47.276387,-7.713476,-87.047243,85.074453,-146.524811,-9.811515,0.156058,0.254330,-0.686386,-0.663202,1990.835083,80088.312500,2.202843,0.180643,15.846436,0.211548,-0.015436,14.875000,19.954515,4,5.150000,3,0,0, 202
485, 101,28309,28301,16169,1,1,-1.425802,1.870612,10.539474,-5.002688,-0.934422,-0.276684,11.821850,10.488783,16.225018,38.929517,2.132534,-74.278177,82.403575,-147.049233,-15.610073,0.125623,0.283065,-0.689448,-0.654793,1990.737549,80092.234375,0.379549,0.820678,15.846436,0.114014,0.079029,14.875000,19.954515,4,5.150000,3,0,0, 202
486, 101,28361,28344,16221,1,1,-0.102806,1.689353,10.224344,-5.213240,-0.558787,-1.088173,9.899747,9.047205,17.666595,2.020976,1.071208,-98.051662,81.556448,-147.573381,-19.051670,0.104728,0.300183,-0.686921,-0.653500,1990.457642,80096.460938,-2.572267,0.806573,15.846436,-0.165894,0.110744,14.875000,19.945419,4,5.150000,3,0,0, 202
487, 101,28412,28405,16272,1,1,-0.951956,0.619758,10.163361,-4.919727,0.388068,-0.843885,11.341324,8.086153,15.263968,7.219700,-7.117434,-77.102372,81.438668,-147.599090,-23.659304,0.078542,0.327345,-0.675049,-0.656495,1990.616943,80092.531250,-2.906316,-0.156199,15.846436,-0.006592,-0.028770,14.875000,19.945419,4,5.150000,3,0,0, 202
488, 101,28634,28628,16494,1,1,0.765726,0.441141,10.216693,-6.063870,1.192406,-1.617516,10.860798,8.086153,16.705544,-13.008072,-2.370896,-18.924644,82.040947,-148.685350,-33.046672,0.015474,0.376432,-0.646101,-0.663787,1990.702148,80094.750000,1.985188,1.698897,15.846436,0.078613,0.179574,14.875000,20.027279,4,5.150000,3,0,0, 202
489, 101,28687,28670,16547,1,1,0.125703,-0.306875,9.720135,-5.092537,1.682106,-1.384720,10.860798,9.527731,15.263968,-4.366941,-2.770786,-22.856448,82.472519,-148.392908,-33.563116,0.012954,0.380785,-0.640927,-0.666369,1990.582153,80095.437500,-4.239571,1.637970,15.846436,-0.041382,0.243807,14.875000,20.036373,4,5.150000,3,0,0, 202
490, 101,28739,28731,16599,1,1,0.301738,0.698340,9.565928,-5.554623,0.533306,-1.994115,11.341324,10.008257,16.705544,-11.635068,-9.507222,-11.644776,83.099367,-148.432059,-34.150413,0.007184,0.383923,-0.635443,-0.669899,1990.669922,80091.718750,-3.909917,-0.251084,15.846436,0.046387,0.046876,14.875000,19.999992,4,5.150000,3,0,0, 202
491, 101,28790,28775,16650,1,1,-0.502131,-0.395830,10.242975,-4.859465,1.034710,-0.820892,10.860798,7.125102,17.186069,-11.771361,-1.122260,-10.751940,83.708579,-148.174834,-34.267780,0.006111,0.385845,-0.630618,-0.673355,1990.768188,80090.742188,-1.047473,-0.327116,15.846436,0.144653,0.036258,14.875000,19.999992,4,5.150000,3,0,0, 202
492, 101,28842,28836,16702,1,1,0.409790,1.952541,10.464906,-6.789774,-0.527667,-1.608618,11.341324,10.488783,17.666595,-12.790546,3.651989,-11.660864,84.082395,-147.902023,-34.799261,0.003473,0.390090,-0.625699,-0.675514,1990.826904,80089.523438,1.457563,-0.119043,15.846436,0.203369,0.086664,14.875000,19.977253,4,5.150000,3,0,0, 202
493, 101,28895,28879,16755,1,1,0.415527,1.584361,10.476550,-6.737671,-0.291240,-1.618095,11.821850,8.566679,17.186069,-21.006737,14.229982,-9.970649,84.590807,-147.102904,-34.915811,0.006171,0.394600,-0.619570,-0.678517,1990.842041,80090.804688,1.560587,-0.184257,15.846436,0.218506,0.081362,14.875000,19.968159,4,5.150000,3,0,0, 202
494, 101,28946,28940,16806,1,1,-0.711557,1.384896,10.028645,-5.895465,-0.939787,-1.593792,9.899747,9.527731,17.666595,-44.049003,22.316960,13.315924,85.743422,-145.039504,-33.896767,0.021406,0.399264,-0.609100,-0.684929,1990.826660,80086.195312,0.133257,0.107301,15.846436,0.203125,0.098359,14.875000,19.959063,4,5.150000,3,0,0, 202
495, 101,28999,28982,16859,1,1,-1.585327,-0.095819,10.057590,-5.108280,-0.413525,-1.018788,9.419221,7.605628,16.705544,-40.303188,20.940776,30.394653,86.921465,-143.448576,-32.158088,0.037812,0.398159,-0.602528,-0.690651,1990.791748,80091.257812,0.612896,0.045065,15.846436,0.168213,0.101887,14.875000,19.954515,4,5.150000,3,0,0, 202
496, 101,29050,29043,16910,1,1,-1.343043,-0.590886,9.293293,-4.651675,0.012535,-1.622983,9.899747,6.164050,15.263968,-51.837499,12.229468,43.448189,88.984183,-141.429380,-28.926698,0.062919,0.392291,-0.594170,-0.699365,1990.702881,80091.406250,0.225928,0.253202,15.846436,0.079346,0.128837,14.875000,19.949968,4,5.150000,3,0,0, 202
497, 101,29102,29101,16962,1,1,-1.030577,-3.219997,8.372886,-3.594999,2.330693,-1.852444,10.860798,6.164050,15.263968,-27.103181,3.207017,48.730121,91.097689,-140.209276,-25.005772,0.087347,0.379723,-0.590297,-0.706916,1990.732666,80091.554688,-0.312565,0.168563,15.846436,0.109131,0.140845,14.875000,19.945419,4,5.150000,3,0,0, 202
498, 101,29155,29144,17015,1,1,-0.687897,-3.359812,8.746041,-4.168475,2.540638,-1.774559,10.860798,5.683524,15.263968,-21.857360,-1.687015,43.737987,92.142264,-139.851320,-22.557123,0.101229,0.369870,-0.590686,-0.709957,1990.645508,80094.882812,-0.152163,0.212387,15.846436,0.021973,0.118141,15.000000,19.963612,4,5.150000,3,0,0, 202
499, 101,29207,29201,17067,1,1,0.026752,-2.649246,9.459974,-5.446239,2.140288,-1.909993,10.860798,4.722473,16.225018,1.777721,5.625376,27.740892,92.565312,-139.589122,-20.469078,0.114384,0.360896,-0.593897,-0.709899,1990.826294,80088.460938,0.518917,0.124391,15.846436,0.202759,0.127560,15.000000,19.949968,4,5.150000,3,0,0, 202
500, 101,29259,29245,17119,1,1,-0.014783,-1.627401,9.438896,-5.719275,1.222334,-2.215672,11.341324,6.164050,17.186069,1.771616,6.809211,24.830371,92.318319,-139.387031,-19.597519,0.121752,0.357214,-0.597532,-0.707482,1990.833252,80092.921875,1.963246,0.802166,15.846436,0.209717,0.150218,15.000000,19.963612,4,5.150000,3,0,0, 202
501, 101,29311,29305,17171,1,1,0.130725,-1.849065,9.701900,-6.007494,1.530305,-2.111321,10.860798,5.683524,16.225018,9.477272,12.738602,16.052775,91.957972,-139.000319,-18.848885,0.129789,0.355013,-0.600893,-0.704307,1990.695190,80094.351562,0.594324,0.680961,15.846436,0.071655,0.192717,15.000000,19.949968,4,5.150000,3,0,0, 202
502, 101,29363,29349,17223,1,1,-0.469356,-1.455094,9.512574,-5.584226,1.033529,-2.018012,10.380273,6.644576,16.705544,4.062525,6.429106,9.131996,91.431870,-138.770224,-18.706877,0.133664,0.354913,-0.603855,-0.701092,1990.821167,80088.460938,-0.616301,0.396890,15.846436,0.197632,0.166111,15.000000,19.949968,4,5.150000,3,0,0, 202
503, 101,29415,29409,17275,1,1,-0.740680,-0.873684,9.765988,-5.733471,0.425574,-1.823992,9.899747,8.086153,18.147121,3.625689,4.211527,1.097151,91.144134,-138.500308,-19.010010,0.134323,0.357633,-0.603839,-0.699596,1990.802979,80093.515625,0.508398,0.288065,15.846436,0.179443,0.185981,15.000000,19.945419,4,5.150000,3,0,0, 202
504, 101,29636,29630,17496,1,1,-0.632530,-1.259702,9.684737,-5.710542,0.833188,-1.896787,9.899747,4.241947,17.186069,-2.054170,1.236355,1.019168,91.107695,-138.153335,-18.960537,0.136820,0.359198,-0.603139,-0.698914,1990.535889,80094.750000,-2.258394,-1.605616,15.846436,-0.087646,-0.035693,15.000000,20.027279,4,5.150000,3,0,0, 202
505, 101,29687,29673,17547,1,1,-0.619635,-1.310123,9.742499,-5.760659,0.876507,-1.859766,10.380273,6.644576,17.186069,-2.674942,3.143103,-0.668796,91.171243,-138.052275,-18.907343,0.137551,0.359538,-0.602604,-0.699057,1990.547119,80093.773438,-1.325900,-1.425989,15.846436,-0.076416,0.005503,15.000000,20.027279,4,5.150000,3,0,0, 202
506, 101,29739,29734,17599,1,1,-0.630730,-1.432078,9.697174,-5.713422,0.978503,-1.871108,10.380273,7.605628,16.705544,-2.039666,2.124428,-1.422544,91.243671,-137.905358,-18.909623,0.138189,0.360427,-0.601697,-0.699254,1990.580078,80092.851562,-0.064995,-1.529427,15.846436,-0.043457,-0.076020,15.000000,19.995445,4,5.150000,3,0,0, 202
507, 101,29792,29776,17652,1,1,-0.665185,-1.403365,9.803267,-5.788342,0.943215,-1.793417,10.860798,6.644576,16.705544,-0.865476,2.257424,1.346870,91.210087,-137.754547,-18.906677,0.139216,0.361183,-0.601440,-0.698882,1990.628784,80093.000000,0.983598,-0.737535,15.846436,0.005249,0.005418,15.000000,19.990896,4,5.150000,3,0,0, 202
508, 101,29844,29838,17704,1,1,-0.745077,-1.389659,9.734136,-5.706778,0.901175,-1.809739,10.380273,6.644576,17.186069,-3.412900,1.778361,-0.997602,91.235994,-137.628694,-18.902595,0.139913,0.361869,-0.600901,-0.698851,1990.695801,80091.937500,1.172573,-0.836609,15.846436,0.072266,-0.037752,15.000000,19.963612,4,5.150000,3,0,0, 202
509, 101,29896,29881,17756,1,1,-0.778284,-1.559350,9.664855,-5.605380,1.048103,-1.805506,9.899747,6.644576,15.744493,0.858402,2.349328,1.086033,91.257748,-137.564381,-18.892004,0.140293,0.362186,-0.600601,-0.698869,1990.767578,80089.976562,1.334756,-0.145452,15.846436,0.144043,0.051893,15.000000,19.963612,4,5.150000,3,0,0, 202
510, 101,29947,29942,17807,1,1,-0.724717,-1.396644,9.686342,-5.731048,0.943794,-1.891171,9.899747,7.125102,17.186069,-0.749308,3.584047,2.398048,91.034530,-137.309984,-18.907181,0.142430,0.363355,-0.601114,-0.697387,1990.651855,80094.882812,0.564144,-0.247953,15.846436,0.028320,0.041927,15.000000,19.963612,4,5.150000,3,0,0, 202
511, 101,30000,29986,17860,1,1,-0.717469,-1.440674,9.777802,-5.814131,0.989651,-1.837823,10.860798,5.683524,16.705544,-2.860003,3.462064,3.187839,91.020119,-137.123206,-18.866630,0.143841,0.364124,-0.600742,-0.697017,1990.760254,80091.937500,0.216033,-0.042171,15.846436,0.136719,0.080327,15.000000,19.963612,4,5.150000,3,0,0, 202
512, 101,30052,30045,17912,1,1,-0.832335,-1.682496,9.666151,-5.620790,1.191050,-1.804365,11.341324,6.644576,16.225018,-0.370149,2.160555,3.065948,90.969862,-136.999784,-18.725305,0.145599,0.363979,-0.601107,-0.696413,1990.833252,80090.125000,0.521327,-0.138184,15.846436,0.209717,0.076289,15.000000,19.959063,4,5.150000,3,0,0, 202
513, 101,30104,30089,17964,1,1,-0.743702,-1.607869,9.522564,-5.609201,1.172935,-1.992118,10.380273,6.644576,16.705544,3.013899,0.168815,0.687813,90.808881,-136.939815,-18.770046,0.146198,0.364330,-0.601753,-0.695545,1990.828613,80090.656250,0.512276,0.116242,15.846436,0.205078,0.122143,15.000000,19.972706,4,5.150000,3,0,0, 202
514, 101,30155,30149,18015,1,1,-0.700442,-1.635702,9.694529,-5.750497,1.239418,-1.892419,10.860798,7.605628,15.744493,3.559094,1.564225,3.216862,90.603170,-136.931906,-18.804966,0.146688,0.364292,-0.602865,-0.694498,1990.763672,80091.937500,-0.331919,0.007351,15.846436,0.140137,0.126543,15.000000,19.963612,4,5.150000,3,0,0, 202
515, 101,30208,30192,18068,1,1,-0.789236,-1.555816,9.603215,-5.713715,1.225726,-1.998446,10.860798,7.125102,16.705544,4.405431,6.760115,-3.785821,90.330864,-136.806449,-19.063440,0.146745,0.365971,-0.603291,-0.693232,1990.816650,80093.218750,0.251358,0.108467,15.846436,0.193115,0.175183,15.000000,19.954515,4,5.150000,3,0,0, 202
516, 101,30259,30252,18119,1,1,-0.719265,-1.681494,9.567779,-5.667009,1.370085,-1.997474,11.341324,6.164050,15.263968,8.271729,6.149107,-1.034593,89.804666,-136.638768,-19.568261,0.146395,0.368842,-0.604313,-0.690890,1990.732056,80088.992188,-0.386791,0.007590,15.846436,0.108521,0.179019,15.000000,19.963612,4,5.150000,3,0,0, 202
