rkf,accel_x,accel_y,accel_z,gyro_x,gyro_y,gyro_z,yaw,pitch,roll,imutemp,pressure,altitude,bmptemp,verticalvelocity,apoogee,state,uptime(milliseconds),errorflag
0,   -3.7295,   -3.6840,    8.2413,   33.6469,   25.9462,   10.0709,   22.4820,   72.9950, -118.7534,   36.7500,87765.0469,   -0.1695,   39.0041,   -0.3835,    0.6638,0,5044,13
0,   -9.1001,    1.9223,    0.0818,    0.5207,    0.6981,    3.0420,   28.9402,   45.6147, -104.1561,   37.0000,87764.7500,   -0.1423,   39.2377,    0.7099,    1.1240,0,10079,13
0,   -9.3395,   -1.0897,    0.0492,    1.2762,    2.3584,  -67.7009,   28.8891,   44.0842,  -98.6166,   37.0000,87768.8828,   -0.5283,   39.3218,   -1.4756,    0.1786,0,15119,13
0,   -9.2847,    0.1643,    0.1077,    0.6949,    1.0328,    2.9314,   28.4602,   43.1427,  -75.2206,   37.1250,87766.6016,   -0.3149,   39.5647,    0.2551,    0.1786,0,20159,13
0,   -9.2298,    0.1659,    0.1012,   -0.8025,    1.1831,   -0.2098,   28.2379,   43.6688,  -75.5935,   37.2500,87768.4219,   -0.4853,   39.6534,   -0.5595,   -0.2153,1,23169,13
0,   -9.2607,    0.2013,    0.0593,    0.5718,    0.4902,    0.7375,   28.3298,   43.7476,  -75.4749,   37.2500,87764.5781,   -0.1258,   39.4899,   -0.1528,   -0.1258,1,23330,13
0,   -9.3227,    0.0515,    0.0802,    0.3482,    0.4164,   -2.8473,   28.3553,   43.6623,  -75.4576,   37.2500,87768.6953,   -0.5109,   39.5787,   -0.7204,   -0.1258,1,23443,13
0,   -9.3667,    0.1133,    0.0859,   -3.1489,   -1.4421,    4.0725,   28.2554,   43.6745,  -75.3596,   37.2500,87766.8203,   -0.3359,   39.6161,   -0.4802,   -0.1258,1,23556,13
0,   -9.4511,   -0.0560,    0.1199,   -0.5678,   -0.4915,    7.7612,   28.0555,   43.6687,  -74.1476,   37.2500,87765.5547,   -0.2170,   39.5040,   -0.3652,   -0.1258,1,23765,13
0,   -9.2864,    0.2349,    0.0372,   -0.3271,    1.2697,   -0.1573,   28.0221,   43.6396,  -74.8968,   37.2500,87765.8750,   -0.2471,   39.5927,    0.4806,   -0.1258,1,23878,13
0,   -9.4314,    0.0387,    0.0451,    0.7714,    1.2250,   -1.3157,   27.9944,   43.5558,  -74.6203,   37.2500,87766.3984,   -0.2963,   39.6161,    0.0987,   -0.1258,1,23991,13
0,   -9.3422,   -0.0586,    0.1226,    0.2159,   -1.1460,   -3.6101,   28.1144,   43.4033,  -75.2270,   37.2500,87765.4297,   -0.2057,   39.5133,    0.0031,   -0.1258,1,24200,13
0,   -9.5787,   -1.6255,    0.0268,    0.6498,   -3.0545,   95.7388,   28.3651,   43.1242,  -66.0677,   37.2500,87767.2500,   -0.3755,   39.6021,   -0.3213,   -0.1258,1,24313,13
0,   -9.0975,    0.6170,   -0.0174,   73.1112,    3.8759,  -26.9762,   31.7881,   43.4693,  -71.2283,   37.2500,87766.0313,   -0.2623,   39.6348,   -0.0263,   -0.1258,1,24426,13
0,   -9.1456,   -2.0623,    0.1628,    3.7262,   -0.4248,   49.1133,   33.4684,   43.6186,  -62.6769,   37.2500,87766.2578,   -0.2833,   39.5320,   -0.0267,   -0.1258,1,24635,13
0,   -8.7943,   -2.4455,    0.1228,    1.9118,    2.9928,   -8.6101,   33.9724,   44.0210,  -62.6938,   37.2500,87768.3828,   -0.4819,   39.6161,   -0.0657,   -0.1258,1,24748,13
0,   -8.8705,   -2.6729,    0.2294,    9.1912,    1.5816,   55.4129,   34.6090,   44.0664,  -54.6236,   37.2500,87766.7422,   -0.3286,   39.6581,    0.0531,   -0.1258,1,24861,13
0,   -9.1803,   -1.9386,   -0.0279,    0.0792,   -0.4136,  -28.4683,   34.6761,   43.9485,  -61.6459,   37.2500,87765.7734,   -0.2374,   39.5413,   -0.1709,   -0.1258,1,25070,13
0,   -9.5253,   -4.0569,    0.3730,   58.3113,   57.5392,   97.5056,   39.0168,   48.2418,  -49.7005,   37.1250,87769.1563,   -0.5544,   39.6301,   -0.4158,   -0.1258,1,25183,13
0,   -9.4449,   -5.7085,    1.9990,   60.2670,   60.2209,    8.5246,   41.4151,   56.5477,  -47.0947,   37.1250,87768.1172,   -0.4565,   39.6628,   -0.7079,   -0.1258,1,25296,13
0,  -12.3719,   -1.4651,    2.0548,   43.6101,   14.9351,   -5.8884,   40.7796,   54.7444,  -50.4183,   37.1250,87764.0313,   -0.0749,   39.5553,   -0.0230,   -0.0749,1,25505,13
0,  -10.4227,    1.0344,    1.8420,   37.0895,  -18.3653,  -76.8355,   45.5995,   55.7205,  -58.1156,   37.1250,87766.0938,   -0.2679,   39.6348,    0.1454,   -0.0749,1,25618,13
0,   -7.8735,    2.4189,   -0.1608,  145.6470,   35.8442,   17.1660,   55.1034,   60.3290,  -60.5219,   37.1250,87766.7344,   -0.3280,   39.6721,   -0.0109,   -0.0749,1,25731,13
0,   -5.2165,   -1.9713,    3.7416,    4.6860,   10.2270,  -11.0878,   60.7986,   65.0875,  -65.2241,   37.1250,87766.0625,   -0.2651,   39.5600,   -0.2368,   -0.0749,1,25940,13
0,   -8.2578,   -0.7273,    2.6865,   67.9536,  -15.5303,  -90.1825,   66.7614,   64.4982,  -73.5730,   37.1250,87763.2734,   -0.0041,   39.6534,    0.5950,   -0.0041,1,26053,13
0,   -8.4114,   -2.1643,    3.4448,   75.1649,  -43.9759,    0.6966,   76.7224,   60.2074,  -70.6213,   37.1250,87764.8047,   -0.1474,   39.6908,    0.4253,   -0.0019,1,26166,13
0,   -8.4897,   -1.5869,    3.3822,   13.9986,  -12.6139,   20.7368,   78.5488,   60.9754,  -72.9240,   37.1250,87763.5391,   -0.0286,   39.5740,    0.2582,   -0.0019,1,26375,13
0,   -8.2592,   -0.9928,    2.8306,   -9.2516,   30.2545,  -12.2448,   79.3146,   64.4473,  -71.6707,   37.2500,87764.4063,   -0.1095,   39.6628,   -0.2530,   -0.0019,1,26488,13
0,   -9.7116,    0.1813,    4.1989,    0.2256,   50.1748,  -17.1023,   77.9607,   70.6872,  -71.2111,   37.2500,87763.1797,    0.0049,   39.7002,    0.2395,    0.0049,1,26601,13
0,  -10.0937,    2.6801,    2.6040,    1.6521,  -13.5938,    0.6279,   79.0662,   65.1434,  -75.7729,   37.2500,87763.4141,   -0.0172,   39.5880,    0.1370,    0.0049,1,26810,13
0,   -8.4401,    0.7217,    1.1603, -112.4250,  -33.5424,  -44.5489,   70.0588,   62.8683,  -80.2379,   37.2500,87769.6094,   -0.5963,   39.6815,   -1.1015,    0.0751,1,26923,13
0,   -6.2021,    2.1723,   -0.3722, -178.6752,  -41.8830,   90.2731,   53.0101,   57.6169,  -77.8159,   37.2500,87764.6719,   -0.1350,   39.7235,   -0.6441,    0.0751,1,27036,13
0,   -9.0109,    0.1322,    2.9336, -176.7278,  -16.3920,   80.9459,   17.7932,   58.8217,  -62.3750,   37.2500,87761.4844,    0.1629,   39.6067,   -0.4170,    0.1629,1,27245,13
0,   -9.0691,   -0.2602,    2.4951,  -88.4182,  -63.8301,  -13.4226,    0.6217,   61.2674,  -58.3187,   37.2500,87767.5078,   -0.3999,   39.6955,   -0.1060,    0.1629,1,27358,13
0,  -10.6566,   -2.0652,    2.1055,    0.1957,  -11.6894,   73.1632,   -3.9629,   57.4212,  -53.7365,   37.2500,87763.2813,   -0.0047,   39.7375,   -0.1490,    0.1629,1,27471,13
0,   -8.8857,   -1.5610,   -3.0521,   30.1586,  -17.7343,   29.0069,    3.2468,   47.0584,  -48.0107,   37.2500,87766.2734,   -0.2844,   39.6348,   -0.4775,    0.1629,1,27680,13
0,   -9.1657,   -3.4844,   -0.4496,    8.2871,   61.6618,   34.9437,    6.6090,   54.2149,  -43.5748,   37.2500,87762.1563,    0.1000,   39.7235,    1.1490,    0.1629,1,27793,13
0,   -9.5426,   -2.8695,   -0.7451,  -27.7174,   -1.7184,   -8.2818,    2.1238,   54.5323,  -44.7362,   37.2500,87761.4141,    0.1696,   39.7562,    0.5299,    0.3943,1,27906,13
0,   -8.1192,   -1.3855,    0.4329, -104.0551,  104.5528,   -6.8890,  -18.1839,   70.2250,  -49.4576,   37.2500,87761.0469,    0.2041,   39.6348,    0.8767,    0.3943,1,28115,13
0,   -8.9439,   -0.8525,    3.5396, -137.9189,  144.5144,  -12.9105,  -31.5313,   83.6335,  -47.4514,   37.2500,87766.0391,   -0.2629,   39.7375,   -0.6695,    0.3943,1,28228,13
0,   -9.1018,    0.2779,    2.7483,  -93.9153,   86.4735,  -45.7219,  -41.5378,   90.4213,  -45.3408,   37.2500,87762.1719,    0.0989,   39.7936,   -0.0606,    0.3943,1,28341,13
0,   -5.3436,    1.9743,    6.8168, -147.4686, -101.4709,   27.2565,  -69.4225,   81.3438,  -45.7398,   37.2500,87761.8594,    0.1283,   39.6815,   -0.2417,    0.3943,1,28550,13
0,   -7.2500,    4.5738,    0.2918,   62.3842,    6.0389,   65.5497,  -76.1065,   75.6727,  -36.0459,   37.2500,87766.0313,   -0.2623,   39.7702,    0.0318,    0.3943,1,28663,13
0,   -5.0179,    3.2044,    4.1873,  -38.5672,  -82.1501,   84.9627,  -77.1145,   74.5151,  -27.9204,   37.2500,87765.0469,   -0.1695,   39.8029,   -0.2788,    0.3943,1,28776,13
0,  -10.5164,   -2.3363,    2.6952,   -2.6555,  -28.1646,   28.7758,  -71.1304,   64.6551,  -18.9074,   37.2500,87768.0313,   -0.4486,   39.7142,   -0.7561,    0.3943,1,28985,13
0,  -10.6297,   -3.9291,    1.6611,  -13.8726,  -23.9051,   13.0669,  -70.5836,   63.7010,  -16.9416,   37.2500,87769.0156,   -0.5408,   39.8029,   -0.2762,    0.3943,1,29098,13
0,  -11.5570,   -2.2198,    2.2954,    8.0849,   80.7267,  -37.4406,  -71.0619,   70.2753,  -21.3848,   37.2500,87768.3203,   -0.4763,   39.8590,   -0.4288,    0.3943,2,29211,13
0,   -8.9748,    0.4271,    0.9988,   -1.2738,  -58.1345,    4.9248,  -71.2671,   60.9085,  -20.5913,   37.2500,87770.3359,   -0.6642,   39.7282,   -0.0611,    0.3943,2,29372,13
0,   -8.9989,    0.6920,    0.6422,   21.8770,  -36.6124,   -8.8627,  -67.0332,   54.0445,  -21.0262,   37.2500,87765.7031,   -0.2312,   39.7142,    0.7557,    0.3943,2,29581,13
0,   -9.1405,    1.3122,    1.3827,   23.5050,   66.6441,  -19.5344,  -62.9306,   62.7224,  -23.2170,   37.2500,87766.6016,   -0.3149,   39.7188,    0.9626,    0.3943,2,29790,13
0,   -8.9147,    0.4351,    0.7083,   -5.1403,  -36.8662,   -3.3735,  -62.6979,   58.4403,  -24.8594,   37.2500,87765.7031,   -0.2312,   39.7002,    1.0704,    0.3943,2,29999,13
0,   -9.3293,    1.2854,    1.0330,    6.4314,   -7.8881,   -3.2547,  -62.0031,   57.1234,  -25.0746,   37.2500,87761.5781,    0.1543,   39.6908,    0.8340,    0.3943,2,30208,13
0,   -9.2057,    1.4227,    0.3284,    2.9020,   -4.2535,   -0.4653,  -61.2899,   55.5635,  -25.0411,   37.3750,87763.2578,   -0.0025,   39.6955,    0.0321,    0.3943,2,30417,13
0,   -8.4123,    1.3088,   -0.9570,    3.1011,  -31.2053,   -4.1862,  -60.8059,   50.8968,  -25.9059,   37.3750,87765.0625,   -0.1711,   39.7002,   -0.0941,    0.3943,2,30626,13
0,   -9.2136,    1.4283,   -0.4657,    3.2276,   -1.8475,    7.3380,  -60.2534,   50.6316,  -24.9260,   37.3750,87762.0625,    0.1096,   39.6955,   -0.1838,    0.3943,2,30835,13
0,   -9.3689,    1.0731,   -0.5979,   -0.4808,    1.6675,   -0.8892,  -60.4316,   50.4867,  -24.6754,   37.3750,87763.6719,   -0.0416,   39.7048,    0.0927,    0.3943,2,31044,13
0,   -8.9787,    1.1288,   -0.9260,    0.8919,   -1.8080,   12.2686,  -60.3844,   49.8424,  -23.2924,   37.3750,87766.4297,   -0.2991,   39.7048,   -0.0936,    0.3943,2,31253,13
0,   -8.9694,    0.9092,   -0.8944,    3.2299,   78.9883,    0.3551,  -59.6329,   60.9482,  -23.1151,   37.3750,87763.0781,    0.0139,   39.7048,   -0.0484,    0.3943,2,31462,13
0,  -10.6438,   -3.5213,  -11.7756, -141.0466,   18.5090,  137.6071,  -77.5400,   65.0608,   -2.8512,   37.3750,87764.6328,   -0.1310,   39.7048,   -0.2119,    0.3943,2,31671,13
0,   -8.9900,   -0.3920,   -2.5133,   -3.8474,  -27.1763,   12.1935,  -82.9276,   57.3630,    3.0792,   37.3750,87760.6172,    0.2438,   39.7235,    0.0448,    0.3943,2,31880,13
0,   -9.1700,   -0.3926,   -1.9450,   -5.3442,   17.3754,   15.5343,  -82.8326,   54.3707,    2.9729,   37.3750,87763.1875,    0.0037,   39.7282,   -0.7350,    0.3943,2,32089,13
0,   -8.3101,   -0.8671,   -2.6497,   -3.0959,  -15.8982,    3.1918,  -83.8081,   52.7250,    4.9350,   37.3750,87762.1641,    0.0994,   39.7282,   -0.4768,    0.3943,2,32298,13
0,   -9.2062,   -1.4644,   -2.4571,    0.4897,   -2.1363,  -16.6379,  -83.5346,   52.3497,    2.9428,   37.3750,87762.7578,    0.0444,   39.7329,   -0.8894,    0.3943,2,32507,13
0,   -8.9341,   -0.8020,   -2.5323,   13.9562,   -9.0802,  -34.6944,  -81.5620,   50.9586,   -2.8997,   37.3750,87765.0313,   -0.1683,   39.7422,   -0.4975,    0.3943,2,32716,13
0,  -10.0210,    0.3617,   -3.2961,    5.3039,    0.3635,  -18.9968,  -80.4724,   50.8162,   -7.3001,   37.3750,87766.2891,   -0.2861,   39.7375,   -0.6083,    0.3943,2,32925,13
0,   -8.9578,    0.9791,   -2.6610,    1.2415,   -2.2557,  -29.1074,  -80.0858,   50.5911,  -13.3031,   37.3750,87764.7891,   -0.1457,   39.7469,   -0.1960,    0.3943,2,33134,13
0,   -9.8252,    0.3141,   -2.4723,    1.2741,    3.9303,   31.9003,  -79.8706,   51.1069,  -10.7980,   37.3750,87767.6094,   -0.4095,   39.7469,   -0.4762,    0.3943,2,33343,13
0,   -8.4566,    0.8920,   -2.8751,   -5.5640,  -10.8726,  -15.8039,  -80.6120,   48.3850,  -14.1732,   37.3750,87764.0078,   -0.0727,   39.7609,    0.0791,    0.3943,2,33552,13
0,   -8.1008,    0.6625,   -2.8552,   -1.9921,   -0.7860,    7.5026,  -80.9752,   48.2962,  -12.2348,   37.3750,87757.1016,    0.5726,   39.7609,    0.6267,    0.5726,2,33761,13
0,   -9.5065,    1.6809,   -2.7344,    3.3683,    5.0095,  -25.1253,  -80.6508,   48.8366,  -16.9591,   37.3750,87760.2188,    0.2816,   39.7655,    0.6616,    0.5726,2,33970,13
0,   -9.1200,    1.4959,   -2.8758,    3.6941,    7.7726,   10.8690,  -80.2264,   50.0943,  -16.0670,   37.3750,87761.4766,    0.1640,   39.7749,    0.0735,    0.5726,2,34179,13
0,   -8.8561,    0.9843,   -1.6256,   22.3662,    7.3718,   21.2231,  -76.8665,   51.6266,  -12.2279,   37.3750,87759.0781,    0.3881,   39.7796,   -0.5302,    0.5726,2,34388,13
0,   -8.9924,    0.2287,   -2.1495,    4.7874,   14.4480,   33.3314,  -75.6175,   53.8618,   -6.0987,   37.3750,87763.8047,   -0.0541,   39.7889,   -0.7449,    0.5726,2,34597,13
0,   -9.2505,    0.3970,   -4.0527,    0.6797,    9.5492,  -32.6224,  -75.4226,   55.5142,  -11.2284,   37.3750,87762.6016,    0.0586,   39.7936,   -0.2399,    0.5726,2,34806,13
0,   -9.6310,    0.8339,   -1.8927,    1.5017,    0.4838,  -16.8568,  -75.6034,   55.7273,  -13.3453,   37.3750,87760.8594,    0.2217,   39.7936,    0.0578,    0.5726,2,35015,13
0,  -10.1907,    0.7274,   -1.8662,   -1.0364,   -0.4869,   -1.5157,  -75.8343,   55.2913,  -13.0930,   37.3750,87760.7344,    0.2330,   39.8029,    0.5618,    0.5726,2,35224,13
0,  -10.2447,    0.3754,   -2.0520,   -0.9238,    5.1858,   -0.1159,  -76.1576,   55.7345,  -12.9489,   37.3750,87758.5703,    0.4357,   39.8076,    0.2836,    0.5726,2,35433,13
0,   -9.0174,    0.7553,   -1.9054,    0.7874,   -1.8473,    1.7487,  -76.2009,   55.3904,  -13.0977,   37.3750,87761.6875,    0.1442,   39.8076,   -0.2863,    0.5726,2,35642,13
0,   -8.7786,   -0.2008,   -2.5282,    3.3241,    0.0708,   12.1289,  -75.3909,   55.4190,   -9.6324,   37.3750,87761.9297,    0.1215,   39.8169,   -0.3098,    0.5726,2,35851,13
0,   -9.8557,    0.6896,   -1.6450,   12.8798,    0.7577,    3.4324,  -72.4226,   56.0694,   -8.8526,   37.3750,87769.3047,   -0.5680,   39.8169,   -1.0293,    0.5726,2,36060,13
0,   -9.3970,    0.1255,   -1.9190,    4.0883,    1.7924,   13.6192,  -71.6236,   56.2993,   -5.9601,   37.3750,87768.7031,   -0.5113,   39.8263,   -0.5719,    0.5726,2,36269,13
0,  -11.0109,   -0.2891,   -1.9763,    2.6307,   -7.2562,   32.5180,  -71.1249,   55.1585,   -0.9630,   37.3750,87773.0781,   -0.9206,   39.8263,   -0.9447,    0.5726,2,36478,13
0,   -7.5002,   -2.3206,   -2.4264,   -6.5746,   -4.4108,  131.5723,  -72.1210,   53.7189,   24.4455,   37.5000,87772.3672,   -0.8544,   39.8356,   -0.1433,    0.5726,2,36687,13
0,   -7.2984,   -3.7627,   -3.8074,    5.9703,    1.5808,  -53.3362,  -71.6486,   54.1050,   23.3730,   37.5000,87768.3359,   -0.4774,   39.8496,    0.4771,    0.5726,2,36896,13
0,   -6.7847,   -6.2977,   -2.3117,    0.2508,    2.5904,   33.7064,  -71.4693,   54.5082,   29.9642,   37.5000,87769.0469,   -0.5442,   39.8496,    0.7106,    0.5726,2,37105,13
0,   -6.4012,   -6.9122,   -2.1659,    9.8363,   -4.0413,   -1.3689,  -71.4198,   54.5203,   31.1056,   37.5000,87769.1641,   -0.5549,   39.8496,    0.6577,    0.5726,2,37314,13
0,   -7.8693,   -6.0255,   -2.6284,    1.6310,    0.3626,  -12.2510,  -70.3781,   54.4246,   28.7713,   37.5000,87770.0625,   -0.6388,   39.8543,    0.0168,    0.5726,2,37523,13
0,   -7.2167,   -6.2834,   -2.6418,  -17.8069,    7.3758,    5.8035,  -72.9313,   55.7151,   29.0184,   37.5000,87768.8594,   -0.5261,   39.8636,    0.3463,    0.5726,2,37732,13
0,   -7.4010,   -5.7810,   -2.1696,    2.3008,   -1.5007,    6.0536,  -72.7172,   55.5347,   29.1246,   37.5000,87770.4766,   -0.6772,   39.8777,    0.1431,    0.5726,2,37941,13
0,   -7.4937,   -5.7597,   -2.0753,    0.3094,    1.0753,   -5.4407,  -72.5311,   55.5922,   28.2536,   37.5000,87771.4922,   -0.7723,   39.8683,    0.0294,    0.5726,2,38150,13
0,   -6.7926,   -6.1630,   -2.3038,   -0.2281,    1.4721,    2.0177,  -72.3991,   55.8291,   28.0251,   37.5000,87769.9922,   -0.6326,   39.8777,   -0.0523,    0.5726,2,38359,13
0,   -8.0755,   -6.3296,   -2.5068,    0.4196,   -1.3840,    2.1350,  -72.3230,   55.9539,   29.1674,   37.5000,87767.2891,   -0.3795,   39.8870,    0.0322,    0.5726,2,38568,13
0,   -6.9142,   -6.5789,   -2.0987,   13.9787,   -6.7069,    8.1263,  -70.1347,   54.9316,   32.8919,   37.5000,87769.1484,   -0.5532,   39.8917,   -0.1266,    0.5726,2,38777,13
0,   -6.7454,   -6.4974,   -2.5608,   -1.4073,    0.6557,   -8.3729,  -70.2407,   54.8703,   31.1627,   37.5000,87767.3984,   -0.3896,   39.8963,    0.0532,    0.5726,2,38986,13
0,   -6.7777,   -6.8462,   -2.4211,   -2.4559,    2.9340,    5.9899,  -70.6313,   55.2453,   32.4020,   37.5000,87769.9688,   -0.6302,   39.8963,   -0.4571,    0.5726,2,39195,13
0,   -5.8888,   -6.3958,   -2.7527,    8.8558,   -0.9348,   79.2998,  -68.9977,   55.1256,   44.1005,   37.5000,87767.6250,   -0.4112,   39.9104,   -0.0472,    0.5726,2,39404,13
0,   -6.0389,   -6.7779,   -2.1652,    4.1421,    3.2269,   29.8556,  -68.6927,   55.6453,   47.9388,   37.5000,87769.2422,   -0.5624,   39.9104,   -0.5241,    0.5726,2,39613,13
0,   -6.8020,   -6.4962,   -2.2490,    4.6235,   -0.0408,    6.4736,  -67.6520,   55.8223,   47.5491,   37.5000,87771.0469,   -0.7305,   39.9104,   -0.1440,    0.5726,2,39822,13
0,   -6.7562,   -6.3413,   -2.0151,   -3.7579,    4.9706,    9.6529,  -68.2752,   56.7896,   48.6313,   37.5000,87771.0469,   -0.7305,   39.9197,   -0.2086,    0.5726,2,40031,13
0,   -7.5260,   -5.9741,   -1.8834,    4.3370,   -2.6991,    2.2358,  -67.8792,   56.5769,   47.3369,   37.5000,87769.7109,   -0.6053,   39.9244,    0.0449,    0.5726,2,40240,13
0,   -7.5413,   -4.9277,   -2.3234,   -3.2457,   -0.0902,  -37.6490,  -68.7048,   56.6358,   38.7067,   37.5000,87769.4141,   -0.5781,   39.9337,    0.1705,    0.5726,2,40449,13
0,   -7.4635,   -4.2640,   -2.0537,    1.1328,    2.7031,   12.8824,  -68.4672,   57.2543,   42.3181,   37.6250,87767.6094,   -0.4095,   39.9337,    0.0624,    0.5726,2,40658,13
0,   -7.1760,   -4.8841,   -1.6505,    6.6248,    3.2072,   32.6523,  -67.8799,   58.0109,   43.7214,   37.6250,87767.9688,   -0.4429,   39.9337,   -0.1192,    0.5726,2,40867,13
0,   -7.5057,   -5.2296,   -2.0348,   -2.0815,   -0.8479,  -28.2259,  -67.4854,   57.8575,   40.6080,   37.6250,87772.0391,   -0.8232,   39.9430,   -0.5829,    0.5726,2,41076,13
0,    9.5727,   -3.0978,    3.3991,  -56.2030,  -37.4418,  -59.7718,   15.4884,   13.7289,  170.6216,   37.7500,87761.5469,    0.7028,   40.1626,    0.0194,    0.8874,0,5039,13
0,   -9.2935,   -1.5423,   -0.0266,    2.5211,    1.0152,   -2.6547,   21.3265,   76.0324,    3.3823,   37.7500,87763.7500,    0.4968,   40.4008,    0.2692,    1.6199,0,10074,13
0,   -8.4257,   -4.1441,    0.2312,   -8.6387,   -6.9909,   23.5995,   19.6175,   75.9088,   21.0980,   37.8750,87759.8750,    0.8591,   40.4008,   -0.3328,    1.6199,0,15114,13
0,   -9.2234,   -1.3728,   -0.0595,    1.5311,   -0.5693,    1.8560,   19.0848,   76.5154,    4.1482,   37.7500,87762.2500,    0.6371,   40.5689,    0.2059,    1.6199,1,17787,13
0,   -9.2482,   -1.4156,   -0.0561,   -4.0044,   -0.0756,    2.5065,   18.4377,   76.5031,    4.5532,   37.8750,87763.4531,    0.5251,   40.3821,   -0.3078,    1.6199,1,17948,13
0,   -9.2376,   -1.3658,   -0.0434,    1.1985,    0.5609,    0.7177,   18.4305,   76.5970,    4.5772,   37.8750,87762.9922,    0.5676,   40.4755,   -0.0490,    1.6199,1,18061,13
0,   -9.1920,   -1.3752,   -0.0754,   -0.0556,    0.6369,   -2.2933,   18.4910,   76.5307,    4.3718,   37.8750,87762.2266,    0.6395,   40.5082,    0.9747,    1.6199,1,18174,13
0,   -8.8403,   -2.4809,    0.1398,  -80.7651,  -16.3952,  123.3822,    6.6473,   74.0888,   22.1819,   37.8750,87764.9531,    0.3847,   40.3868,   -0.0026,    1.6199,1,18383,13
0,   -9.5185,   -1.4348,    0.2472,    2.2205,    0.8518,   14.8676,    6.2138,   74.0614,   23.3395,   37.8750,87766.1016,    0.2772,   40.4662,   -0.5486,    1.6199,1,18496,13
0,   -8.9187,   -2.3728,   -0.7716,    6.2841,    3.6000,   20.8298,    8.6418,   75.1062,   22.4919,   37.8750,87762.3906,    0.6242,   40.5035,   -0.1228,    1.6199,1,18609,13
0,   -9.6183,   -3.8198,    0.6803,   19.7125,    6.8979,   19.7675,   16.0513,   77.7083,   17.6077,   37.8750,87759.5469,    0.8902,   40.3868,    0.8843,    1.6199,1,18818,13
0,  -10.0949,   -2.7058,   -0.0649,   -6.3330,   89.1587,  112.0827,   15.9965,   82.0338,   23.6637,   37.8750,87760.9375,    0.7601,   40.4568,    0.9995,    1.6199,1,18931,13
0,   -6.4205,   -3.1981,    2.4073,    4.3528,   10.4208,   -5.2972,   13.6975,   95.0099,   24.4967,   37.8750,87762.6328,    0.6015,   40.4942,   -0.0564,    1.6199,1,19044,13
0,   -7.0494,   -0.8591,    3.2074,   -7.4327,   -5.1142,   -2.7160,   13.3557,   94.4654,   24.1942,   37.8750,87758.8906,    0.9514,   40.3868,   -0.1467,    1.6199,1,19253,13
0,   -8.3296,   -3.1512,    2.3960,  -12.7106,   21.4059,  -19.7134,   10.9772,   90.9629,   21.5300,   37.8750,87760.6406,    0.7878,   40.4708,   -0.3340,    1.6199,1,19366,13
0,  -12.8059,   -3.5455,    1.6447,   25.4627,  -44.0155,  -33.1406,   14.2218,   83.2272,   21.0898,   37.8750,87759.0859,    0.9327,   40.5082,    0.3176,    1.6199,1,19479,13
0,  -10.8284,   -0.7048,    1.3681,    0.9706,    6.4205,  -14.3839,   15.9639,   86.0350,   17.8666,   37.8750,87759.6016,    0.8851,   40.4008,   -0.4216,    1.6199,1,19688,13
0,  -10.4129,    1.7424,    0.8602,    2.9707,  -14.9555,   -1.2418,   15.7439,   82.7284,   15.8748,   37.8750,87763.8125,    0.4911,   40.4755,   -0.8220,    1.6199,1,19801,13
0,   -8.4745,    4.5856,    0.4385,   61.9854,   -6.0027,   -5.9922,   21.4214,   80.6301,   14.7648,   37.8750,87763.3984,    0.5302,   40.5316,   -0.9733,    1.6199,1,19914,13
0,  -10.8965,    0.1727,    0.6249,   58.1894,    4.6937,  -10.4221,   34.4050,   80.6056,   11.2736,   37.8750,87761.7578,    0.6837,   40.3961,   -0.5712,    1.6199,1,20123,13
0,  -10.6023,   -1.1617,    0.6862,   62.8073,    3.2698,    6.2075,   40.7162,   81.2161,   10.6375,   37.8750,87761.5938,    0.6983,   40.4802,    0.4864,    1.6199,1,20236,13
0,  -10.0090,   -2.4735,    0.7264,   65.1168,   29.2878,   -4.6249,   48.4560,   84.2760,   10.1775,   37.8750,87761.2422,    0.7317,   40.5082,    0.5663,    1.6199,1,20349,13
0,   -6.8561,   -0.5968,    0.6834,   55.0383,   35.7665,  -41.2737,   59.6438,   92.5182,    4.1076,   37.8750,87763.1563,    0.5523,   40.3868,    0.3973,    1.6199,1,20558,13
0,   -7.8576,   -0.9867,    2.3061,   57.6976,    1.5163,  -26.4895,   65.1977,   93.9619,   -0.7847,   37.8750,87756.9219,    1.1353,   40.4708,    1.2595,    1.6199,1,20671,13
0,   -8.7567,   -0.4665,    2.7781,   25.0803,   -0.8745,    3.7970,   67.8446,   94.1318,   -4.5150,   37.8750,87757.1719,    1.1121,   40.5035,    1.0416,    1.6199,1,20784,13
0,  -10.4305,   -2.7492,    1.9839, -102.4651,  -56.5544,  -14.4137,   52.5916,   85.2776,   -6.0981,   37.8750,87760.9141,    0.7623,   40.3961,    0.6182,    1.6199,1,20993,13
0,   -8.7942,   -3.0757,   -0.0309, -170.9655, -128.5574,   36.6629,   41.9496,   78.5051,    4.4623,   37.8750,87760.2031,    0.8286,   40.4942,   -0.1667,    1.6199,1,21106,13
0,   -8.8612,   -2.6467,   -1.5578,  -66.8976,    2.7089, -126.0758,   35.6060,   73.2809,   -4.7581,   37.8750,87759.8984,    0.8569,   40.5362,    0.0311,    1.6199,1,21219,13
0,  -10.0062,   -3.4918,   -1.6818, -249.6772,   11.2935,   -1.2382,   -4.5006,   76.7695,   -2.8505,   37.8750,87754.4063,    1.3708,   40.4241,    0.7688,    1.6199,1,21428,13
0,  -10.9089,   -0.6180,   -1.5749,  -77.0331,    1.4462,  -60.1576,  -18.6379,   74.4016,   -3.6168,   37.8750,87760.2266,    0.8262,   40.5129,   -0.4023,    1.6199,1,21541,13
0,  -10.7264,   -2.3879,   -2.7786,  -96.4035,  -76.4732,  185.8719,  -28.1544,   66.0489,    7.7768,   37.8750,87757.4688,    1.0844,   40.5596,    0.0121,    1.6199,1,21654,13
0,   -7.4267,   -7.4500,   -2.2760,  -22.8474,  -21.7111,  -33.3554,  -32.8497,   62.8666,   10.0881,   37.8750,87758.2891,    1.0074,   40.4335,   -0.3402,    1.6199,1,21863,13
0,   -7.3753,   -4.2032,   -1.8383,  -10.0534,   -8.3067,   -3.2358,  -34.6287,   63.3100,    9.7565,   37.8750,87757.5781,    1.0737,   40.5176,    0.6636,    1.6199,1,21976,13
0,   -6.4870,   -5.0926,   -1.1010,   -7.0774,  -45.2966,  -74.9852,  -35.5871,   63.1504,    4.7507,   37.8750,87762.1406,    0.6474,   40.5643,   -0.6074,    1.6199,1,22089,13
0,   -9.3853,   -1.9390,   -0.7344,  -99.9973,  -52.9494,  -79.9423,  -50.7785,   53.4799,   -7.1424,   37.8750,87759.0000,    0.9412,   40.4615,   -0.1299,    1.6199,1,22298,13
0,  -12.0411,   -3.9863,   -3.6865,  -33.8211,  106.6040,  -61.6930,  -56.8765,   57.8722,  -13.4968,   37.8750,87762.4141,    0.6219,   40.5502,   -0.9228,    1.6199,1,22411,13
0,   -7.7299,   -1.9876,    1.9607,  -58.0515,   59.3357,  -39.7325,  -65.2800,   67.6182,  -12.5825,   37.8750,87759.4063,    0.9033,   40.5783,    0.3105,    1.6199,1,22524,13
0,   -7.5250,   -1.1963,    1.4534,  -45.6433,  -78.8326,   18.5490,  -74.7733,   57.3437,   -8.9244,   37.8750,87759.3203,    0.9112,   40.4755,   -0.2199,    1.6199,1,22733,13
0,   -8.0944,   -1.2112,   -0.9960,  -43.2865,  -37.1746,   53.7984,  -81.8519,   46.5969,   -1.4598,   37.8750,87759.8203,    0.8647,   40.5596,    0.3278,    1.6199,1,22846,13
0,   -8.1011,   -1.7301,   -1.6209,   -9.8073,  -34.8329,  -55.9963,  -82.8759,   41.1696,   -4.3769,   37.8750,87761.0703,    0.7476,   40.5970,   -0.3970,    1.6199,1,22959,13
0,   -8.8036,   -8.2400,    3.2996,  -19.1505,   62.0377,   90.7409,  -88.1662,   47.2167,    5.7788,   37.8750,87758.7734,    0.9627,   40.4895,    0.0739,    1.6199,1,23168,13
0,   -8.7542,   -5.4108,   -1.9926,   -8.6479,   -8.9244,  -10.1690,  -88.3140,   48.0911,    8.4104,   37.8750,87755.5859,    1.2604,   40.5736,    0.9077,    1.6199,1,23281,13
0,  -10.1954,   -4.5197,   -1.4511,  -27.2556,  -28.0549,   -5.7079,  -90.0024,   44.2758,    7.1817,   37.8750,87762.9297,    0.5738,   40.6203,   -0.0585,    1.6199,1,23394,13
0,   -5.9779,   -1.3357,   -0.7361,  -34.6539,  100.1950,   10.8336,  -95.7859,   60.3549,    8.3296,   37.8750,87761.5859,    0.6994,   40.4895,   -0.1683,    1.6199,1,23603,13
0,   -8.4034,   -1.4447,    0.5064,  -62.4362,  -54.6916,  -12.9969, -104.2285,   61.9680,    7.6402,   37.8750,87761.8984,    0.6706,   40.5783,   -1.0541,    1.6199,1,23716,13
0,   -6.7867,    0.1271,   -1.7709,   61.5474,  -19.2801,  -45.5860, -103.6213,   55.5723,    2.8888,   37.8750,87762.5469,    0.6094,   40.6250,   -0.1982,    1.6199,1,23829,13
0,   -9.9561,   -1.4454,    1.5686,   17.4721,   32.2424,    5.8033,  -98.1110,   66.8812,    3.3498,   37.8750,87759.5938,    0.8857,   40.4989,   -0.1372,    1.6199,1,24038,13
0,  -10.4079,    0.7957,    0.7756,  -42.7774,   18.5006,   28.7386,  -99.4300,   69.2337,    4.5867,   37.8750,87761.3984,    0.7164,   40.6016,   -0.1990,    1.6199,1,24151,13
0,   -8.7690,   -0.5938,    1.9066,  -10.0500,  -38.5586,    3.2335, -101.4274,   65.7069,    5.3561,   37.8750,87761.7500,    0.6841,   40.6296,    0.1011,    1.6199,1,24264,13
0,   -8.4162,   -0.7533,   -1.4234,  -44.2563,   -5.6638,    8.5243, -109.5520,   59.5440,    5.5940,   38.0000,87760.6563,    0.7861,   40.5129,   -0.0108,    1.6199,1,24473,13
0,  -11.8441,   -1.5003,    3.9394,   27.7194,   36.0151,  -11.1022, -108.6450,   61.6129,    6.1101,   38.0000,87762.7656,    0.5890,   40.5970,   -0.2264,    1.6199,1,24586,13
0,   -8.3144,   -4.0115,    0.6211,   25.1211,  -48.8281,  -35.3482, -104.3516,   60.4593,    3.7738,   38.0000,87762.8438,    0.5822,   40.6156,   -0.4222,    1.6199,1,24699,13
0,   -8.5603,    2.4394,   -8.7377,   -1.1579,    0.9474,  -30.0852, -106.0512,   61.4097,   -2.3002,   38.0000,87760.0000,    0.8477,   40.5035,   -0.2505,    1.6199,1,24908,13
0,   -9.7968,    0.9649,   -1.9607,   -0.8701,   -1.9996,   -2.8174, -106.0198,   60.9875,   -3.3426,   38.0000,87763.0156,    0.5659,   40.5970,   -0.3792,    1.6199,1,25021,13
0,   -9.4234,    0.5203,   -1.1420,   -0.6475,   -0.7717,    2.2673, -106.1099,   60.8816,   -2.9681,   38.0000,87761.6953,    0.6893,   40.6250,    0.1072,    1.6199,1,25134,13
0,   -9.6995,    0.3557,   -1.3003,    2.6432,    4.9840,   -1.9360, -105.7982,   61.3553,   -3.1824,   38.0000,87761.5625,    0.7017,   40.5129,   -0.2156,    1.6199,1,25343,13
0,   -9.5909,    0.7362,   -1.1254,    0.9549,    1.6174,    1.9282, -105.4774,   61.7018,   -3.4139,   38.0000,87764.3281,    0.4431,   40.6063,   -0.2119,    1.6199,1,25456,13
0,   -9.3675,    1.1490,   -0.7407,   -2.7241,   -1.2348,    0.4885, -105.6055,   61.3609,   -3.0438,   38.0000,87761.5078,    0.7068,   40.6437,   -0.1040,    1.6199,1,25569,13
0,   -9.3573,   -0.3920,   -1.1875,   -7.7671,   -3.5473,   12.8866, -106.6922,   60.7538,   -0.4150,   38.0000,87761.3125,    0.7255,   40.5176,   -0.1630,    1.6199,1,25778,13
0,   -9.5265,   -0.7321,   -0.8484,    7.8956,   -8.1592,    5.7631, -106.2056,   60.4243,    0.1705,   38.0000,87763.1797,    0.5506,   40.6016,    0.1489,    1.6199,1,25891,13
0,   -8.6910,   -1.0120,   -0.9836,    1.3089,   -1.8770,    9.6531, -106.2701,   59.8822,    0.6808,   38.0000,87759.9453,    0.8528,   40.6437,    0.3351,    1.6199,1,26004,13
0,   -9.1211,    0.1060,   -1.5428,    6.5130,   -0.9572,    8.8692, -105.0841,   59.6264,    2.5169,   38.0000,87761.7734,    0.6819,   40.5222,   -0.0502,    1.6199,1,26213,13
0,   -9.4563,   -0.8435,   -1.9471,    1.2255,   -4.1757,   17.6703, -104.8515,   59.3732,    4.5638,   38.0000,87762.8750,    0.5794,   40.6110,   -0.1174,    1.6199,1,26326,13
0,   -9.2280,   -1.7589,   -1.2334,   -7.1221,   -4.4422,   13.4918, -105.9592,   58.6351,    4.9393,   38.0000,87759.7578,    0.8704,   40.6437,   -0.1872,    1.6199,1,26439,13
0,  -10.0102,   -0.8081,   -2.0594,    1.0147,   -0.5801,  -12.9410, -105.8622,   58.4172,    4.2360,   38.0000,87758.4688,    0.9904,   40.5269,    0.2397,    1.6199,1,26648,13
0,  -10.9021,   -0.2321,   -2.8359,   -6.7141,   -8.9950,   14.2990, -106.2054,   57.8856,    4.5573,   38.0000,87759.9219,    0.8546,   40.6250,    0.3617,    1.6199,1,26761,13
0,   -7.4782,   -3.9461,    0.0705,   -1.9511,    1.9831,   12.7391, -106.9010,   57.4209,    5.8851,   38.0000,87759.5625,    0.8885,   40.6577,    0.1017,    1.6199,1,26874,13
0,   -9.6844,   -0.9746,   -1.5582,    1.8696,    3.4087,    8.5131, -106.1756,   57.7377,    6.4773,   38.1250,87762.1875,    0.6429,   40.5316,   -0.0991,    1.6199,1,27083,13
0,  -10.3192,   -1.3160,   -1.7562,    2.8332,    0.1135,    5.6510, -105.9546,   57.8128,    6.9377,   38.1250,87761.2344,    0.7322,   40.6250,    0.4017,    1.6199,1,27196,13
0,   -9.2417,   -0.7385,   -2.2002,    2.8404,    3.6818,    2.3105, -105.4209,   57.4628,    6.0009,   38.1250,87762.3750,    0.6253,   40.6623,    0.0754,    1.6199,1,27309,13
0,   -8.2460,    0.7946,   -0.3507,   -6.7837,   -0.9908,    0.3227, -106.5117,   57.4566,    6.0419,   38.1250,87762.5391,    0.6105,   40.5456,    0.3321,    1.6199,1,27518,13
0,   -8.0646,   -2.0879,   -1.8775,    3.7611,    0.3137,   52.0097, -106.7190,   57.4893,    7.7672,   38.1250,87763.5000,    0.5206,   40.6343,   -0.0211,    1.6199,1,27631,13
0,   -9.1005,   -1.8861,   -1.2973,   11.0567,    0.5246,   16.2767, -105.0146,   56.6111,    9.0045,   38.1250,87762.4297,    0.6208,   40.6670,    0.1813,    1.6199,1,27744,13
0,   -9.3539,   -1.8994,   -1.6195,    3.2717,    0.2239,    9.0185, -104.0723,   56.6739,   10.9970,   38.1250,87759.5859,    0.8863,   40.5502,    0.4988,    1.6199,1,27953,13
0,   -8.6394,   -1.7981,   -1.2489,    3.9812,   -2.9163,  -11.7210, -103.5589,   56.3487,    9.7189,   38.1250,87762.2422,    0.6378,   40.6437,    0.1209,    1.6199,1,28066,13
0,  -10.2137,   -2.0929,   -1.6381,   -2.7915,    5.0675,    0.3349, -103.0081,   56.8665,   10.0056,   38.1250,87762.8359,    0.5828,   40.6763,   -0.0251,    1.6199,1,28179,13
0,   -9.3955,   -3.1642,   -2.1897,    7.6439,   -3.6918,   14.1815, -101.7326,   56.4919,   14.7720,   38.1250,87759.6953,    0.8766,   40.5643,   -0.2063,    1.6199,1,28388,13
0,   -9.2146,   -2.5111,   -1.4829,   -0.9128,    1.1278,    9.3808, -101.6440,   56.5693,   15.7006,   38.1250,87766.9688,    0.1962,   40.6483,   -1.1544,    1.6199,1,28501,13
0,   -8.4636,   -2.9260,   -1.5703,   -1.7503,   -3.1257,    1.4847, -101.6479,   56.2722,   16.4703,   38.1250,87760.1328,    0.8353,   40.6717,   -0.0214,    1.6199,1,28614,13
0,   -9.1400,   -1.9568,   -1.8248,    3.6735,   -3.5675,   10.5332, -101.2316,   55.6802,   17.4685,   38.1250,87759.7500,    0.8715,   40.5689,   -0.3397,    1.6199,1,28823,13
0,   -8.3261,   -1.8084,   -1.1294,    2.5375,   -5.1136,    2.3959, -100.7269,   55.0596,   18.8390,   38.1250,87762.4063,    0.6225,   40.6530,    0.6857,    1.6199,1,28936,13
0,   -9.4224,   -2.8951,   -2.4223,   -3.7275,   -2.9477,   -1.7833, -101.0549,   55.0438,   18.8220,   38.1250,87763.3047,    0.5386,   40.6904,   -0.4803,    1.6199,1,29049,13
0,   -8.5332,   -3.4170,   -1.6490,    2.5307,    0.8215,    8.2788, -102.1498,   55.8551,   21.0820,   38.1250,87761.4141,    0.7153,   40.5689,   -0.3142,    1.6199,1,29258,13
0,   -8.9000,   -2.8383,   -1.6396,    0.9794,   -4.3092,   -3.8498, -102.0724,   55.3828,   21.1445,   38.1250,87761.3125,    0.7255,   40.6530,    0.1144,    1.6199,1,29371,13
0,   -8.8555,   -3.1714,   -1.6818,    0.9151,   -1.2904,    0.0011, -102.0791,   55.1928,   21.3256,   38.1250,87763.3594,    0.5336,   40.6950,   -0.1704,    1.6199,1,29484,13
0,   -8.6651,   -2.8414,   -1.8557,    4.0151,   -2.1697,   -4.5100, -101.4877,   54.8463,   20.6225,   38.1250,87762.2578,    0.6367,   40.5783,   -0.1253,    1.6199,1,29693,13
0,   -9.0068,   -2.6734,   -1.7927,   -2.7777,    1.5544,   -3.2526, -101.5820,   54.8808,   19.6089,   38.1250,87762.8125,    0.5851,   40.6670,   -0.2771,    1.6199,1,29806,13
0,   -8.6124,   -2.8680,   -1.8204,    4.8485,   -3.0201,    7.8295, -101.1920,   54.7201,   20.2885,   38.1250,87759.1484,    0.9271,   40.6904,    0.8493,    1.6199,1,29919,13
0,   -8.8865,   -2.6392,   -1.8406,    2.8166,   -1.4301,   -0.1726, -100.4988,   54.4613,   20.9240,   38.1250,87762.2266,    0.6395,   40.5876,    0.3624,    1.6199,1,30128,13
0,   -8.6699,   -2.9724,   -2.1795,    1.3973,   -2.3200,   -1.7419, -100.4231,   54.3137,   20.8649,   38.1250,87762.6250,    0.6026,   40.6763,    0.3703,    1.6199,1,30241,13
0,   -9.1862,   -2.9713,   -1.9412,   -0.9142,   -1.7417,   -9.2919, -100.4933,   54.2441,   20.1929,   38.1250,87759.9063,    0.8563,   40.7044,    0.0046,    1.6199,1,30354,13
0,   -8.3123,   -1.2793,   -1.4611,    8.4110,    2.9345,   -5.3109,  -99.5502,   54.4857,   17.9252,   38.1250,87764.3359,    0.4424,   40.5923,    0.0168,    1.6199,1,30563,13
0,   -9.1520,   -1.1560,   -2.2663,   10.7992,    2.5991,   -2.6868,  -98.3487,   54.2281,   17.6674,   38.1250,87760.0234,    0.8455,   40.6763,    0.8571,    1.6199,1,30676,13
0,   -7.9566,    4.2583,    2.3085,   -2.2875,   10.1192,  -51.7185,  -97.9212,   54.7360,   15.2040,   38.1250,87766.9297,    0.1996,   40.7137,   -0.7972,    1.6199,1,30789,13
0,  -10.2635,   -2.5208,   -2.2778,    2.0103,    6.9033,    2.2007,  -97.4315,   56.0880,   14.0948,   38.1250,87763.7891,    0.4933,   40.6016,    0.1297,    1.6199,1,30998,13
0,   -8.7917,   -2.9753,   -3.2317,    8.2107,    4.4980,  -20.0024,  -96.9704,   56.5892,   13.1312,   38.1250,87763.4922,    0.5212,   40.6904,   -0.6648,    1.6199,1,31111,13
0,  -12.1530,   -1.8575,   -0.7994,   34.9886,   12.4637,  -40.5375,  -93.6122,   59.4031,    8.5265,   38.1250,87762.4219,    0.6213,   40.7231,    0.9050,    1.6199,1,31224,13
0,   -7.9137,    0.6529,   -5.9517,   36.7249,   12.2919,  -23.0543,  -85.6515,   61.2365,    4.0487,   38.1250,87765.1484,    0.3666,   40.6016,    0.1517,    1.6199,1,31433,13
0,   -8.8543,   -0.9750,   -3.4034,   52.8939,   30.3876,  -51.9392,  -80.3811,   64.1529,   -0.1843,   38.1250,87764.2031,    0.4549,   40.6997,    0.1272,    1.6199,1,31546,13
0,  -10.1310,   -1.6138,    0.8963,   63.5833,   -7.3975,   10.6314,  -73.6112,   64.6914,   -0.9508,   38.1250,87761.9297,    0.6672,   40.7371,    0.2290,    1.6199,1,31659,13
0,   -4.6094,    1.4733,    0.7379,   20.3905,   60.4712,   38.0559,  -66.6756,   72.3191,   10.5738,   38.1250,87760.6406,    0.7878,   40.6156,    0.3651,    1.6199,1,31868,13
0,   -9.4934,   -0.6144,    1.9671,   -2.8996,   51.7697,   20.6807,  -66.5153,   78.9603,   12.7070,   38.1250,87767.9219,    0.1074,   40.7090,   -0.8815,    1.6199,1,31981,13
0,  -10.3856,   -2.3110,   -0.3479,   -0.5799,  -64.4242,   45.0377,  -66.9689,   73.8308,   16.0980,   38.1250,87762.9922,    0.5676,   40.7417,   -0.3180,    1.6199,1,32094,13
0,   -9.7667,   -2.0346,   -0.1174,   -1.4076,   -0.7111,  -11.4646,  -67.8326,   72.8309,   15.1424,   38.1250,87763.3438,    0.5353,   40.6250,   -0.2387,    1.6199,1,32303,13
0,   -9.4951,   -1.1899,   -0.0282,   -4.9182,    3.0009, -147.3218,  -68.0487,   73.0890,    3.0717,   38.1250,87766.1172,    0.2754,   40.7090,    0.6065,    1.6199,1,32416,13
0,   -8.7784,    3.0300,   -0.0328,   -5.1022,    3.3615, -184.2711,  -68.6448,   73.5580,  -17.4690,   38.1250,87764.4922,    0.4277,   40.7464,   -0.1430,    1.6199,1,32529,13
0,   -9.8668,    3.2433,   -2.8941,   20.3885,  -22.5205,   73.3456,  -66.0265,   70.5803,  -13.2763,   38.1250,87762.9609,    0.5704,   40.6390,   -0.0832,    1.6199,1,32738,13
0,   -9.5368,    4.1301,    0.7136,   40.1398,   69.5781,   14.2255,  -62.2362,   75.7482,   -9.9212,   38.1250,87767.2344,    0.1713,   40.7231,   -0.3276,    1.6199,1,32851,13
0,   -8.2342,    3.1288,    4.5039,   68.0042,  112.8929,  -37.5389,  -55.2597,   87.7791,  -13.6909,   38.1250,87760.8906,    0.7646,   40.7511,    0.5071,    1.6199,1,32964,13
0,   -6.3174,    1.8907,    3.4486,   78.9582,   66.2287,    8.1276,  -38.5005,  104.6740,  -15.1153,   38.1250,87762.0547,    0.6558,   40.6437,    0.2613,    1.6199,1,33173,13
0,   -9.2089,    2.2389,    4.6768,   48.2563,  -20.9787,  -40.8080,  -31.9441,  105.1836,  -18.5063,   38.1250,87761.7109,    0.6876,   40.7277,    1.1737,    1.6199,1,33286,13
0,   -7.4740,    1.9204,    6.3341,   26.7206,  -31.7839,   -9.0918,  -28.4266,  101.1878,  -18.4394,   38.1250,87761.6484,    0.6938,   40.7604,    0.2653,    1.6199,1,33399,13
0,   -6.9518,    1.5561,    8.0462,    7.1821,  -13.9642,  -70.0277,  -26.3095,   98.0405,  -32.2701,   38.1250,87765.5781,    0.3264,   40.6530,   -0.0492,    1.6199,1,33608,13
0,   -6.8502,    3.2763,    6.0770,   -8.5873,  -31.0521,  -73.0358,  -26.8887,   94.9855,  -40.7194,   38.1250,87761.8203,    0.6773,   40.7371,    0.3828,    1.6199,1,33721,13
0,   -6.4292,    5.6304,    5.1003,   -8.0845,  -10.6658,  -58.4219,  -27.5524,   93.4594,  -46.4650,   38.1250,87762.0547,    0.6558,   40.7651,    0.2935,    1.6199,1,33834,13
0,   -4.3066,    5.4855,    5.4825,    1.3115,  -19.3440,  -18.1060,  -28.1359,   89.7276,  -53.1045,   38.1250,87762.6250,    0.6026,   40.6437,    0.5064,    1.6199,1,34043,13
0,   -5.4569,    4.7596,    5.3267,   15.0472,  -17.9805,  -10.6434,  -26.9979,   87.7604,  -55.1010,   38.1250,87763.7891,    0.4933,   40.7464,   -0.4072,    1.6199,1,34156,13
0,   -5.8309,    5.4483,    5.4994,   32.0955,   -4.0138,   22.7487,  -23.6591,   86.8067,  -52.6582,   38.1250,87764.9766,    0.3824,   40.7744,   -0.6982,    1.6199,1,34269,13
0,   -5.8615,    4.0439,    6.6024,   35.8732,   12.4420,   67.0428,  -16.4190,   88.7115,  -40.9446,   38.1250,87759.8672,    0.8597,   40.6577,    0.0624,    1.6199,1,34478,13
0,   -4.8138,    1.9144,    5.3864,   35.7084,   -0.3941,   50.3441,  -12.2040,   88.6469,  -33.3864,   38.1250,87764.1406,    0.4605,   40.7464,   -0.3364,    1.6199,1,34591,13
0,   -6.8168,    2.1842,    5.8204,    3.4438,  -25.6941,  -40.8936,  -10.3756,   86.9945,  -39.1941,   38.1250,87765.8828,    0.2982,   40.7791,   -0.4314,    1.6199,1,34704,13
0,   -8.9714,    1.8021,    5.3279,   -5.3750,  -30.8081,   70.9487,  -11.5910,   80.5581,  -26.9904,   38.1250,87763.9375,    0.4792,   40.6717,   -0.6371,    1.6199,1,34913,13
0,   -9.9492,    0.8040,    4.8153,  -15.3036,  -56.3410,  113.1646,  -13.1425,   75.2217,  -16.6536,   38.1250,87770.3672,   -0.1213,   40.7557,   -1.2513,    1.6199,1,35026,13
0,   -7.2889,   -2.3907,    3.5146,  -22.3916,  -53.4370,   68.7196,  -15.4670,   68.3838,   -7.1038,   38.1250,87765.9844,    0.2879,   40.7791,   -0.3638,    1.6199,1,35139,13
0,   -9.4578,   -3.0667,    1.4870,  -23.2755,  -58.2885,   41.6337,  -20.7064,   57.5265,    1.8857,   38.1250,87763.7422,    0.4974,   40.6763,   -0.5159,    1.6199,1,35348,13
0,   -9.6207,   -2.6638,    1.7483,  -33.8572,   -8.9263,   -3.9777,  -24.3129,   54.8888,    0.7076,   38.1250,87767.3594,    0.1600,   40.7651,    0.0983,    1.6199,1,35461,13
0,   -7.9770,   -2.1611,    3.8694,  -28.5368,   31.7209,  -30.8311,  -27.9006,   57.5884,   -2.2860,   38.1250,87765.3281,    0.3497,   40.7931,   -0.1477,    1.6199,1,35574,13
0,   -7.5854,   -2.9555,    2.3058,    9.5935,   15.1383,   38.4714,  -27.1355,   62.0972,    2.9455,   38.1250,87763.1953,    0.5489,   40.6810,   -0.1118,    1.6199,1,35783,13
0,   -8.9751,   -3.0907,    2.5598,   13.4893,  -23.3866,   10.8164,  -26.0139,   60.4295,    3.6170,   38.2500,87764.9531,    0.3847,   40.7604,    0.2642,    1.6199,1,35896,13
0,   -9.1682,   -3.4350,    2.7987,   22.2847,  -33.3999,   22.8608,  -23.8016,   56.4783,    5.9553,   38.2500,87767.0469,    0.1889,   40.8024,   -0.2935,    1.6199,1,36009,13
0,   -7.8195,   -4.1938,    1.7426,   19.1291,   -8.0073,   13.4314,  -19.3870,   54.0334,    8.5024,   38.2500,87766.6641,    0.2250,   40.6857,   -0.3581,    1.6199,1,36218,13
0,   -8.2285,   -4.6509,    1.4507,   24.7581,   -4.4915,   16.3657,  -17.0662,   53.4425,   10.3139,   38.2500,87766.2656,    0.2619,   40.7791,    0.0170,    1.6199,1,36331,13
0,   -7.9547,   -4.9466,    0.9456,   22.1154,   20.4160,   13.7436,  -14.3947,   54.9090,   12.0721,   38.2500,87764.3438,    0.4418,   40.8071,    0.6574,    1.6199,1,36444,13
0,   -7.1505,   -4.1503,    1.2280,  -38.5316,   -8.3590,  -31.4498,  -19.2455,   53.9607,    7.9785,   38.2500,87769.4766,   -0.0381,   40.6904,    0.2560,    1.6199,1,36653,13
0,   -8.8350,   -5.8181,    2.2514,  -19.5098,   -0.1602,  -24.9142,  -22.8268,   53.9323,    5.3318,   38.2500,87767.2734,    0.1679,   40.7791,    0.3947,    1.6199,1,36766,13
0,   -8.5315,   -4.4677,    1.4597,   21.4139,   -2.7065,   16.3534,  -21.3690,   53.6108,    7.3318,   38.2500,87768.0547,    0.0949,   40.8165,   -0.2147,    1.6199,1,36879,13
0,   -8.4788,   -3.6750,    1.9969,    2.5867,   10.1784,   -5.9225,  -20.1239,   55.5484,    8.4386,   38.2500,87766.8203,    0.2098,   40.7090,    0.2165,    1.6199,1,37088,13
0,   -7.5997,   -4.5874,    1.4220,    3.8084,   37.5505,  -29.4198,  -19.9752,   59.2572,    5.4723,   38.2500,87765.8281,    0.3032,   40.7838,    0.0125,    1.6199,1,37201,13
0,   -6.9895,   -4.0851,    1.4311,   22.3868,   10.2270,    4.0045,  -17.2349,   61.7014,    5.2939,   38.2500,87764.8047,    0.3983,   40.8258,    0.4023,    1.6199,1,37314,13
0,   -8.1581,   -6.3533,    1.7009,   24.9848,   22.9327,   10.2337,  -12.7635,   65.1256,    7.4047,   38.2500,87763.1641,    0.5517,   40.7090,    0.2289,    1.6199,1,37523,13
0,   -6.9067,   -4.2798,    1.8495,   -2.9489,  -15.9598,   29.6630,  -11.9591,   64.3953,    9.8293,   38.2500,87767.7891,    0.1192,   40.7978,   -0.5751,    1.6199,1,37636,13
0,   -7.7119,   -5.8512,    3.6145,    3.8409,  -21.5833,  -11.5512,  -11.9375,   61.7090,    8.7955,   38.2500,87764.2578,    0.4498,   40.8351,   -0.1934,    1.6199,1,37749,13
0,   -7.6413,   -5.3934,    2.5924,   -2.1813,   10.1862,   -6.6238,  -12.2138,   63.7156,    7.1154,   38.2500,87763.2109,    0.5478,   40.7184,   -0.0308,    1.6199,1,37958,13
0,   -7.4357,   -5.1753,    2.7425,  -12.6129,    8.9023,  -19.8196,  -13.5695,   64.8696,    5.6792,   38.2500,87765.0859,    0.3723,   40.8118,    0.4750,    1.6199,1,38071,13
0,   -7.6871,   -4.8859,    2.6701,   -3.2308,   -5.4053,  -33.7020,  -14.5940,   64.6774,    3.4605,   38.2500,87764.1172,    0.4628,   40.8351,    0.0688,    1.6199,1,38184,13
0,   -8.3185,   -4.1162,    3.0057,   -6.5624,    3.9440,  -25.2395,  -15.2965,   64.9595,   -1.2523,   38.2500,87764.9297,    0.3870,   40.7184,   -0.0955,    1.6199,1,38393,13
0,   -7.8402,   -3.5245,    2.7799,   -3.0275,   -4.7883,  -10.5011,  -15.7458,   64.7698,   -2.0304,   38.2500,87763.6875,    0.5025,   40.8071,    0.4924,    1.6199,1,38506,13
0,   -8.5186,   -3.4399,    2.6033,    3.2456,  -15.3850,   -5.4085,  -15.4354,   63.3500,   -3.7766,   38.2500,87767.7813,    0.1204,   40.8445,   -0.2685,    1.6199,1,38619,13
0,   -8.3377,   -3.6672,    2.2762,    4.9356,    3.5976,   -1.3878,  -14.2585,   63.6738,   -3.2732,   38.2500,87763.4297,    0.5274,   40.7277,    0.2584,    1.6199,1,38828,13
0,   -8.2815,   -3.9604,    3.2583,    4.1175,    7.2653,    4.1737,  -13.8872,   64.5029,   -2.5371,   38.2500,87763.3359,    0.5358,   40.8211,    0.0073,    1.6199,1,38941,13
0,   -8.3110,   -3.8699,    2.2727,   -0.3438,   -3.3488,   12.6048,  -13.6243,   64.3901,   -1.2943,   38.2500,87766.0781,    0.2795,   40.8538,    0.2050,    1.6199,1,39054,13
0,   -8.0211,   -4.2762,    2.4803,    1.3706,   -3.8810,    1.6634,  -13.6325,   63.3609,    0.3436,   38.2500,87765.0938,    0.3716,   40.7464,   -0.2052,    1.6199,1,39263,13
0,   -8.0252,   -4.1910,    2.4945,    2.9869,   -0.5830,   -2.1093,  -13.2496,   63.2125,    0.0609,   38.2500,87767.4609,    0.1503,   40.8211,   -0.6423,    1.6199,1,39376,13
0,   -8.2978,   -3.8647,    2.4912,    7.2048,   -0.6538,  -11.5625,  -12.6194,   63.2437,   -1.6040,   38.2500,87766.0781,    0.2795,   40.8585,   -0.0110,    1.6199,1,39489,13
0,   -8.0977,   -4.1226,    2.3583,   -0.1921,   -0.6338,   -1.7056,  -12.2144,   62.9754,   -2.0858,   38.2500,87765.4453,    0.3383,   40.7464,    0.2296,    1.6199,1,39698,13
0,   -8.4633,   -4.0858,    2.3059,    0.4907,   -0.7409,   -3.3527,  -12.2160,   62.7804,   -2.6877,   38.2500,87767.4609,    0.1503,   40.8258,    0.1194,    1.6199,1,39811,13
0,   -8.3526,   -3.7524,    2.3434,   -2.6005,    0.9998,    1.1938,  -12.6211,   62.8084,   -2.4906,   38.2500,87767.4453,    0.1520,   40.8725,   -0.1103,    1.6199,1,39924,13
0,   -8.2685,   -4.1075,    2.4801,   -1.4571,    3.3256,    2.0108,  -12.8138,   63.5403,   -2.3061,   38.2500,87765.6016,    0.3242,   40.7651,   -0.1996,    1.6199,1,40133,13
0,   -8.1336,   -3.9926,    2.5596,  -11.4533,    1.2138,    0.9911,  -13.7898,   63.8115,   -2.4154,   38.2500,87766.6094,    0.2302,   40.8445,    0.1598,    1.6199,1,40246,13
0,   -8.4990,   -5.5102,    2.4129,    4.9010,    0.9424,   10.8445,  -14.4993,   64.2729,   -2.4503,   38.2500,87768.1484,    0.0864,   40.8772,   -0.0969,    1.6199,1,40359,13
0,   -7.6351,   -3.4450,    2.2844,  -11.3799,    6.8787,   -0.1509,  -16.3373,   65.0614,   -1.6556,   38.2500,87765.0547,    0.3751,   40.7651,    0.2275,    1.6199,1,40568,13
0,   -8.0852,   -3.6448,    2.9293,   -9.5004,    2.5568,   10.6389,  -17.4874,   65.4764,   -1.0601,   38.2500,87766.4141,    0.2482,   40.8398,    0.1179,    1.6199,1,40681,13
0,   -8.3165,   -3.7021,    2.9323,   -7.8532,   -3.6705,    2.0295,  -18.5981,   65.3532,   -1.0636,   38.2500,87766.7031,    0.2211,   40.8772,    0.3596,    1.6199,1,40794,13
0,   -8.1172,   -3.6596,    3.1384,  -10.6200,    1.2440,    1.8274,  -20.7103,   65.3074,   -0.5821,   38.2500,87766.5625,    0.2342,   40.7744,   -0.2952,    1.6199,1,41003,13
0,   -8.1210,   -3.4650,    3.3518,   -2.3002,    1.5812,    1.2468,  -21.3802,   65.6208,   -0.5848,   38.2500,87768.9766,    0.0088,   40.8538,   -0.4648,    1.6199,1,41116,13
0,   -8.0106,   -3.7044,    2.9371,    1.7563,   -1.8797,    7.2629,  -21.3706,   65.5973,    0.0011,   38.2500,87764.0469,    0.4697,   40.8865,    0.2291,    1.6199,1,41229,13
0,   -8.4346,   -3.9652,    3.1694,    1.9726,    6.3438,    1.3378,  -20.8478,   66.3724,    0.2293,   38.2500,87764.8594,    0.3932,   40.7791,    0.3154,    1.6199,1,41438,13
0,   -8.2135,   -4.0257,    3.4060,    1.2216,   10.4813,    0.9538,  -20.8151,   67.6207,    0.3779,   38.2500,87766.6250,    0.2285,   40.8585,    0.4335,    1.6199,1,41551,13
0,   -7.9748,   -3.9724,    3.3684,   -4.6941,   11.7715,    0.9060,  -21.1438,   68.8026,    0.5170,   38.2500,87767.8125,    0.1175,   40.9005,   -0.4836,    1.6199,1,41664,13
0,   -7.9399,   -3.8513,    3.8323,    5.6912,   14.3565,    2.2545,  -20.3626,   71.7014,    0.7208,   38.2500,87767.7813,    0.1204,   40.7884,   -0.0834,    1.6199,1,41873,13
0,   -7.2672,   -5.2863,    4.3665,   -7.2520,   23.1742,   19.4303,  -20.3300,   73.8924,    2.6573,   38.2500,87764.6328,    0.4147,   40.8632,    0.7466,    1.6199,1,41986,13
0,   -6.7969,   -4.1103,    4.5593,   -1.9711,   16.8779,    0.7807,  -20.7160,   76.1431,    2.5831,   38.2500,87763.5547,    0.5154,   40.9052,    1.1234,    1.6199,1,42099,13
0,   -6.6047,   -4.9291,    4.7918,  -17.2130,   14.0255,    7.3681,  -23.4572,   79.4339,    3.2874,   38.3750,87761.7109,    0.6876,   40.7884,    0.8347,    1.6199,1,42308,13
0,   -7.7564,   -3.7618,    6.5717,   -8.2453,   24.3366,   15.0856,  -23.8462,   81.8643,    4.5573,   38.3750,87766.1875,    0.2692,   40.8725,   -0.4059,    1.6199,1,42421,13
0,   -6.7321,   -4.4895,    7.3339,  -27.6435,   51.4718,   27.4275,  -26.1420,   86.9043,    7.3062,   38.3750,87765.1641,    0.3654,   40.9099,   -0.5188,    1.6199,1,42534,13
0,   -3.9627,   -2.7258,    6.2330,  -65.2641,   72.1405,   -0.4039,  -38.2737,  101.1913,    7.9480,   38.3750,87763.6719,    0.5041,   40.7931,   -0.3938,    1.6199,1,42743,13
0,   -2.8801,   -1.8498,    7.1365,  -55.0016,   67.3849,   -3.5533,  -45.1803,  109.3860,    7.6406,   38.3750,87763.6406,    0.5075,   40.8912,    0.4067,    1.6199,1,42856,13
0,   -1.6199,   -1.3482,    7.8507,  -36.5354,   41.9667,   22.7122,  -49.6625,  114.7465,    8.9696,   38.3750,87765.9219,    0.2941,   40.9145,   -0.0129,    1.6199,1,42969,13
0,   -1.3152,   -0.3772,    9.6628,   -6.4938,   10.9108,    6.4668,  -52.3775,  118.2484,   10.7596,   38.3750,87760.6641,    0.7855,   40.8071,    0.4127,    1.6199,1,43178,13
0,   -0.8073,    0.2045,   10.7246,    2.1172,   25.8302,  -30.1077,  -52.2434,  119.9568,    7.8898,   38.3750,87766.1484,    0.2726,   40.8818,   -0.6365,    1.6199,1,43291,13
0,   -0.6967,   -0.5232,    9.6223,    2.4902,   10.3600,  -12.7959,  -51.9608,  121.2232,    6.3231,   38.3750,87764.4688,    0.4294,   40.9192,   -0.0698,    1.6199,1,43404,13
0,   -0.4084,   -0.5872,    9.6145,   -4.8926,   14.8161,   18.8282,  -52.7556,  123.9636,    8.6408,   38.3750,87762.2266,    0.6395,   40.8024,   -0.4408,    1.6199,1,43613,13
0,    0.0063,   -0.8181,    9.7287,  -10.8455,    9.8104,    8.1382,  -54.0119,  125.2197,   11.3178,   38.3750,87764.0469,    0.4697,   40.9005,    0.0756,    1.6199,1,43726,13
0,    0.4714,   -0.1825,    9.7694,  -17.3823,    5.4475,   41.5040,  -55.7444,  125.9934,   15.4714,   38.3750,87763.6250,    0.5092,   40.9379,   -0.0385,    1.6199,1,43839,13
0,    0.2449,    0.6970,    9.8019,    0.3066,   -5.1224,  -56.6979,  -56.2310,  125.3711,    6.6142,   38.3750,87762.6328,    0.6015,   40.8165,   -0.1738,    1.6199,1,44048,13
0,   -0.3311,    0.3308,    9.6916,    8.4378,   -8.1823,  -89.2739,  -55.5016,  124.4492,   -0.1208,   38.3750,87763.5000,    0.5206,   40.8959,    0.1131,    1.6199,1,44161,13
0,   -0.2614,    0.4361,    9.7578,   20.8816,   -8.6682, -151.9807,  -53.2610,  123.3317,  -16.9523,   38.3750,87763.7266,    0.4991,   40.9426,    0.0310,    1.6199,1,44274,13
0,    0.1107,   -0.1984,    9.7517,   10.6566,   -2.4705,  -49.7665,  -51.2146,  122.7003,  -27.7824,   38.3750,87765.4453,    0.3383,   40.8165,   -0.1359,    1.6199,1,44483,13
0,   -0.4433,   -0.6868,    9.8196,   10.6019,   -6.2087,  -53.7713,  -49.8184,  122.1001,  -34.7807,   38.3750,87763.5547,    0.5154,   40.9052,    0.3275,    1.6199,1,44596,13
0,   -0.5753,   -0.6030,    9.6380,    8.9229,   -1.3582,   -3.8221,  -48.9498,  121.9182,  -35.4717,   38.3750,87763.7813,    0.4940,   40.9426,    0.2979,    1.6199,1,44709,13
0,   -0.3042,   -0.8030,    9.7193,   -0.1919,    1.4954,    1.8397,  -48.6709,  122.1896,  -34.9252,   38.3750,87761.8906,    0.6711,   40.8258,    0.3560,    1.6199,1,44918,13
0,   -0.4206,   -0.6245,    9.7148,   -1.9555,   -0.2338,    4.2158,  -48.8805,  122.1102,  -34.7277,   38.3750,87763.0000,    0.5670,   40.9192,   -0.3224,    1.6199,1,45031,13
0,    0.1216,    0.0076,    9.8145,    0.9724,   -8.8610,    4.7767,  -49.1551,  121.4902,  -34.0695,   38.3750,87762.6328,    0.6015,   40.9519,   -0.0561,    1.6199,1,45144,13
0,   -0.6652,   -0.8109,    9.7098,    1.6523,   -7.7472,  -11.5718,  -48.5699,  119.7245,  -36.1579,   38.3750,87760.1328,    0.8353,   40.8351,    0.2561,    1.6199,1,45353,13
0,   -1.0144,   -0.7289,    9.6573,    0.3138,   -3.3842,   -5.1457,  -48.3314,  119.1611,  -37.4529,   38.3750,87762.2578,    0.6367,   40.9285,    0.3922,    1.6199,1,45466,13
0,   -1.7757,   -1.4126,    9.5402,   -6.6661,    6.1921,  -10.7262,  -48.8937,  119.5764,  -39.0577,   38.3750,87761.7266,    0.6865,   40.9612,    0.4213,    1.6199,1,45579,13
0,   -0.1814,   -0.1959,    9.8227,   -7.3976,    8.4192,    3.2222,  -50.3433,  121.2587,  -38.3809,   38.3750,87762.7031,    0.5953,   40.8351,   -0.2301,    1.6199,1,45788,13
0,   -0.6400,   -0.0792,    9.6740,  -15.4068,   20.2448,    1.2083,  -51.8950,  123.1892,  -39.1520,   38.3750,87765.6719,    0.3173,   40.9332,   -0.6531,    1.6199,1,45901,13
0,   -0.2594,   -0.0515,    9.7279,   -4.2817,   10.9683,   -0.4866,  -53.2074,  125.2650,  -39.0412,   38.3750,87763.0938,    0.5585,   40.9659,   -0.4039,    1.6199,1,46014,13
0,   -0.2777,   -0.0307,    9.7508,   13.1138,  -19.6135,    1.0918,  -51.4017,  122.5339,  -38.5180,   38.3750,87765.7578,    0.3094,   40.8492,   -0.3836,    1.6199,1,46223,13
0,   -0.6814,    0.0910,    9.7820,    8.1631,   -2.5946,  -14.5616,  -50.1374,  121.3986,  -39.6076,   38.3750,87765.3750,    0.3450,   40.9379,    0.2276,    1.6199,1,46336,13
0,   -0.5187,   -0.3519,    9.6914,    0.8661,    2.9552,    8.0021,  -49.8862,  121.6093,  -39.2259,   38.3750,87762.2969,    0.6326,   40.9706,    0.2959,    1.6199,1,46449,13
0,   -0.2264,   -0.5479,    9.6760,    3.9487,   11.7927,    0.2307,  -49.2527,  123.3077,  -39.2338,   38.3750,87762.7500,    0.5908,   40.8538,    0.6166,    1.6199,1,46658,13
0,    0.2076,   -0.1547,    9.6059,   11.9814,   13.3972,    0.8842,  -48.0583,  125.3034,  -39.2518,   38.3750,87763.8672,    0.4860,   40.9426,    0.5520,    1.6199,1,46771,13
0,   -0.0180,   -0.7558,    9.7426,    1.4804,   -2.0033,   -4.8905,  -47.9405,  125.3204,  -39.7226,   38.3750,87763.2500,    0.5438,   40.9753,    0.1653,    1.6199,1,46884,13
0,    0.4034,   -0.3152,    9.8209,   -7.5200,    7.0640,    2.6506,  -49.2661,  126.3652,  -39.2846,   38.3750,87763.1094,    0.5568,   40.8632,    0.0779,    1.6199,1,47093,13
0,   -0.1325,   -0.3294,    9.6992,   -4.9622,   -0.8996,    1.3845,  -50.0018,  126.6122,  -39.2706,   38.3750,87763.1250,    0.5556,   40.9519,    0.1274,    1.6199,1,47206,13
0,    0.3297,   -0.1600,    9.6929,   -4.3860,    5.1805,   -0.4213,  -50.5033,  127.1378,  -39.1460,   38.3750,87763.9531,    0.4781,   40.9893,   -0.0792,    1.6199,1,47319,13
0,    0.0477,   -0.1705,    9.9491,   -3.5490,    1.2751,   -0.9863,  -51.1665,  127.4479,  -39.1457,   38.3750,87763.1563,    0.5523,   40.8678,    0.2359,    1.6199,1,47528,13
0,    0.2075,    0.1115,    9.7982,   -1.0210,    2.1858,    0.4203,  -51.4372,  127.4791,  -39.0283,   38.3750,87765.6875,    0.3162,   40.9472,   -0.0365,    1.6199,1,47641,13
0,    0.3507,    0.0695,    9.7898,   -1.2887,    1.1341,   -1.3868,  -51.6412,  127.6082,  -39.0695,   38.3750,87764.0078,    0.4730,   40.9893,    0.2494,    1.6199,1,47754,13
0,    0.1287,   -0.0751,    9.7971,   -3.1505,   -0.3449,    1.5223,  -52.1236,  127.7814,  -38.8609,   38.3750,87762.1641,    0.6451,   40.8772,    0.0487,    1.6199,1,47963,13
0,    0.4716,    0.3899,    9.5200,   -2.6992,    7.8033,    1.4195,  -52.3368,  128.3451,  -38.7990,   38.3750,87763.9375,    0.4792,   40.9659,    0.1077,    1.6199,1,48076,13
0,    0.4464,    0.1474,    9.8631,   -3.4894,    7.8384,    0.3760,  -52.8307,  129.1939,  -38.7833,   38.3750,87761.0547,    0.7492,   40.9939,    0.4357,    1.6199,1,48189,13
0,    0.5752,    0.2113,    9.7186,   -1.2316,    0.9220,   -1.4568,  -52.9163,  129.6036,  -39.0605,   38.3750,87760.3125,    0.8183,   40.8818,    0.2685,    1.6199,1,48398,13
0,    0.5930,    0.1987,    9.9342,   -3.7311,    1.6427,   -0.3399,  -53.1757,  129.6915,  -39.3527,   38.3750,87763.3359,    0.5358,   40.9612,   -0.0538,    1.6199,1,48511,13
0,    0.6739,    0.2919,    9.7419,   -2.5329,   -0.1627,   -1.8937,  -53.3603,  129.7640,  -39.3908,   38.3750,87762.3125,    0.6315,   40.9986,   -0.2650,    1.6199,1,48624,13
0,    0.5273,    0.4218,   10.4818,   -0.9583,   -0.7216,    0.7311,  -53.7110,  129.6078,  -39.2791,   38.3750,87763.4766,    0.5229,   40.8959,   -0.2526,    1.6199,1,48833,13
0,    0.6097,    0.3194,    9.8158,   -1.0904,   -1.4035,   -2.2101,  -53.7615,  129.4734,  -39.4424,   38.3750,87761.9375,    0.6666,   40.9706,    0.4781,    1.6199,1,48946,13
0,    0.6690,    0.3651,    9.6478,   -1.1807,   -2.3405,    1.1576,  -53.8432,  129.3035,  -39.4440,   38.3750,87762.4688,    0.6168,   41.0126,    0.0241,    1.6199,1,49059,13
0,    0.6242,    0.3984,    9.6364,    0.2269,   -2.6184,    0.2758,  -54.0062,  128.8625,  -39.5345,   38.3750,87759.8672,    0.8597,   40.8959,    0.2763,    1.6199,1,49268,13
0,    0.5793,    0.4115,    9.8125,   -1.6705,   -1.1795,   -0.4739,  -54.0258,  128.7653,  -39.5412,   38.3750,87761.9375,    0.6666,   40.9799,   -0.0923,    1.6199,1,49381,13
0,    0.3372,    0.2480,    9.6642,    0.6945,    0.2704,    3.0146,  -53.7911,  128.6968,  -39.4363,   38.3750,87760.0625,    0.8415,   41.0126,    0.3313,    1.6199,1,49494,13
0,    0.5519,    0.3586,    9.7783,   -0.6465,   -1.6316,   -0.7005,  -53.9268,  128.3892,  -39.3283,   38.3750,87764.1797,    0.4572,   40.9052,   -0.1311,    1.6199,1,49703,13
0,    0.4642,    0.3050,    9.6727,   -0.8674,    0.8311,    3.1576,  -53.9803,  128.3710,  -39.2268,   38.3750,87762.1016,    0.6513,   40.9893,    0.4475,    1.6199,1,49816,13
0,    0.5763,    0.4626,    9.8733,    1.6058,   -0.1330,    0.3555,  -54.0279,  128.2984,  -39.1307,   38.3750,87762.0781,    0.6536,   41.0220,    0.0848,    1.6199,1,49929,13
0,    0.3772,    0.2850,    9.7684,   -0.0393,    2.2047,   -1.6670,  -54.1805,  128.6651,  -39.3925,   38.5000,87760.4297,    0.8076,   40.9052,    0.7779,    1.6199,1,50138,13
0,    0.5292,    0.3940,    9.8155,    0.2713,   -0.4513,   -1.5224,  -54.1767,  128.6634,  -39.5041,   38.5000,87762.8594,    0.5806,   40.9986,   -0.0236,    1.6199,1,50251,13
0,    0.5245,    0.4101,    9.7066,    0.1878,   -0.9308,    0.7714,  -54.2783,  128.5890,  -39.4347,   38.5000,87759.5625,    0.8885,   41.0313,    0.5063,    1.6199,1,50364,13
0,    0.7476,    0.4867,    9.7823,    0.2528,    0.1923,   -0.5764,  -54.3261,  128.6347,  -39.5207,   38.5000,87759.4766,    0.8964,   40.9145,    0.2480,    1.6199,1,50573,13
0,    0.5222,    0.3627,    9.7459,    2.4020,   -1.1221,    2.5912,  -54.0968,  128.6484,  -39.1970,   38.5000,87761.0000,    0.7543,   40.9986,    0.5206,    1.6199,1,50686,13
0,    0.4084,    0.3122,    9.8262,    1.1343,   -1.2121,   -2.3160,  -53.9354,  128.4732,  -39.4181,   38.5000,87758.4688,    0.9904,   41.0313,    0.4507,    1.6199,1,50799,13
0,    0.5310,    0.4218,    9.7438,   -2.5648,    2.2048,    0.5242,  -54.2305,  128.8554,  -39.3044,   38.5000,87759.6328,    0.8823,   40.9192,   -0.1369,    1.6199,1,51008,13
0,    0.5001,    0.4071,    9.8078,    0.2204,   -0.6808,    0.5514,  -54.2147,  128.7811,  -39.3642,   38.5000,87762.3125,    0.6315,   41.0079,   -0.4112,    1.6199,1,51121,13
0,    0.4586,    0.3102,    9.7388,    0.9990,    0.0385,   -0.0256,  -54.1157,  128.8356,  -39.5802,   38.5000,87761.9844,    0.6620,   41.0360,   -0.8992,    1.6199,1,51234,13
0,    0.4763,    0.4130,    9.7785,   -1.4821,    2.0220,   -4.5762,  -54.3835,  129.2787,  -40.1620,   38.5000,87759.7344,    0.8726,   40.9332,   -0.2786,    1.6199,1,51443,13
0,    0.5268,    0.4491,    9.7592,   -0.3571,    2.1835,   -1.8103,  -54.3902,  129.3398,  -40.1501,   38.5000,87760.2578,    0.8234,   41.0126,    0.0035,    1.6199,1,51556,13
0,    0.5765,    0.4390,    9.7502,    0.6075,   -0.4882,    0.6196,  -54.3343,  129.5335,  -40.1703,   38.5000,87760.0781,    0.8404,   41.0546,    0.2638,    1.6199,1,51669,13
0,    0.6491,    0.3557,    9.7385,    1.6852,    4.1177,    1.1542,  -53.9990,  130.2056,  -40.3000,   38.5000,87756.9766,    1.1302,   40.9379,    0.2784,    1.6199,1,51878,13
0,    0.6809,    0.3032,    9.7550,    0.9099,   -1.8812,    1.6698,  -53.9698,  130.2443,  -40.1747,   38.5000,87762.7656,    0.5890,   41.0220,   -0.4532,    1.6199,1,51991,13
0,    0.6227,    0.3399,    9.7574,   -1.0875,    0.0021,    1.0951,  -54.0893,  130.2578,  -39.9515,   38.5000,87761.1875,    0.7368,   41.0593,   -0.4698,    1.6199,1,52104,13
0,    0.6107,    0.4029,    9.7581,    1.5865,    0.6044,    0.2544,  -53.9268,  130.3453,  -39.9248,   38.5000,87761.2891,    0.7272,   40.9379,   -0.5930,    1.6199,1,52313,13
0,    0.6642,    0.3692,    9.7345,    1.0774,   -0.9922,    0.7331,  -53.7261,  130.2519,  -40.0162,   38.5000,87761.3125,    0.7255,   41.0313,    0.4220,    1.6199,1,52426,13
0,    0.5666,    0.2842,    9.8106,   -0.4560,   -1.1486,    2.5055,  -53.5964,  130.2156,  -40.1467,   38.5000,87764.0000,    0.4736,   41.0687,   -0.1647,    1.6199,1,52539,13
0,    0.6037,    0.2730,    9.7762,    2.4266,   -0.5837,   -3.5926,  -53.2509,  130.1289,  -40.6609,   38.5000,87760.8516,    0.7679,   40.9519,    0.3675,    1.6199,1,52748,13
0,    0.5184,    0.2160,    9.7836,    1.9647,    0.0493,   -0.3015,  -52.8994,  130.1435,  -40.5478,   38.5000,87761.1172,    0.7436,   41.0406,    0.1206,    1.6199,1,52861,13
0,    0.7093,    0.2634,    9.7163,    1.4059,   -1.5276,    0.4760,  -52.6678,  130.0096,  -40.3838,   38.5000,87758.2813,    1.0085,   41.0780,    1.0507,    1.6199,1,52974,13
0,    0.4728,    0.1530,    9.7781,    3.3925,   -3.3732,    1.6666,  -52.1348,  129.4691,  -39.8008,   38.5000,87760.8984,    0.7634,   40.9519,    0.0341,    1.6199,1,53183,13
0,    0.7489,    0.2710,    9.7773,   -0.7527,    0.6586,   -1.8358,  -51.9429,  129.3468,  -39.8855,   38.5000,87760.5703,    0.7945,   41.0453,    0.3140,    1.6199,1,53296,13
0,    0.3737,    0.2269,    9.7760,    0.7390,   -1.9927,    3.9141,  -51.6852,  129.0713,  -39.5425,   38.5000,87761.0469,    0.7498,   41.0733,   -0.1989,    1.6199,1,53409,13
0,    0.4285,   -0.0599,    9.8131,    0.6966,   -1.3466,    3.0341,  -51.5400,  128.8784,  -38.9117,   38.5000,87762.5625,    0.6083,   40.9612,    0.2144,    1.6199,1,53618,13
0,    0.4124,    0.1522,    9.7503,   -2.3030,   -0.2708,    0.4849,  -51.6281,  128.9626,  -38.7414,   38.5000,87764.0391,    0.4702,   41.0453,   -0.2300,    1.6199,1,53731,13
0,    0.2359,    0.0359,    9.7919,   -0.4946,    2.7282,    0.4009,  -51.6751,  129.2444,  -38.5506,   38.5000,87760.8516,    0.7679,   41.0967,    0.2941,    1.6199,1,53844,13
0,    0.4882,    0.1147,    9.7487,   -0.0579,    0.5023,    2.7121,  -51.7951,  129.3458,  -38.3402,   38.5000,87758.8438,    0.9559,   40.9659,    0.5509,    1.6199,1,54053,13
0,    0.9513,    0.5223,    9.7350,   -4.0257,    1.2943,   -1.5360,  -52.0225,  129.4837,  -38.5639,   38.5000,87758.5156,    0.9865,   41.0500,    0.8446,    1.6199,1,54166,13
0,    1.2446,    0.3899,    9.7303,   -1.6178,   -0.0197,   -5.0185,  -52.0528,  129.3794,  -38.9261,   38.5000,87763.3594,    0.5336,   41.0967,   -0.4520,    1.6199,1,54279,13
0,    0.4087,    0.1529,    9.7429,   -2.5105,   -1.5161,    3.6809,  -52.1949,  128.8554,  -38.1390,   38.5000,87762.6641,    0.5987,   40.9753,   -0.5899,    1.6199,1,54488,13
0,    0.3434,    0.1316,    9.7559,   -0.9948,   -0.9341,    3.2393,  -52.2264,  128.6604,  -37.9728,   38.5000,87761.3281,    0.7238,   41.0593,   -0.3503,    1.6199,1,54601,13
0,    0.2456,    0.4977,    9.8034,   -2.4164,   -4.0485,   38.1334,  -52.3143,  128.3615,  -34.9044,   38.5000,87760.8984,    0.7634,   41.0920,    0.5794,    1.6199,1,54714,13
0,   -0.9258,    0.0077,    9.7293,   -1.3722,    0.0379,  134.6693,  -52.3691,  127.9381,  -11.5310,   38.5000,87760.2578,    0.8234,   40.9799,    0.2307,    1.6199,1,54923,13
0,    0.8861,   -0.2203,    9.7687,   -5.7931,    8.9253,   49.0488,  -52.9564,  129.0373,   -2.4475,   38.5000,87763.2422,    0.5444,   41.0687,   -0.3800,    1.6199,1,55036,13
0,    1.7500,    1.6263,    9.8841,   -0.4062,   -9.8241,   61.3046,  -53.3840,  128.5136,    3.4464,   38.5000,87759.5547,    0.8897,   41.0967,    0.2081,    1.6199,1,55149,13
0,    0.8554,   -1.0651,    9.5334,   10.6756,  -30.0549,   29.3766,  -50.7544,  122.4705,   10.3608,   38.5000,87761.2109,    0.7346,   40.9846,    0.2875,    1.6199,1,55358,13
0,   -7.2100,   -1.8804,    9.9241,   31.4328,  -61.9306,   40.6861,  -48.7688,  116.5909,   14.1356,   38.5000,87764.9531,    0.3847,   41.0687,   -0.0389,    1.6199,1,55471,13
0,   -4.5378,   -4.2913,    7.8102,   24.4246,  -47.4051,    3.3957,  -45.3311,  110.7635,   14.8598,   38.5000,87763.2656,    0.5427,   41.1154,   -0.4755,    1.6199,1,55584,13
0,   -3.1393,   -1.9168,    7.3412,   60.2480,  -67.1213,  -14.4739,  -33.6160,   96.9046,   12.9598,   38.5000,87760.7188,    0.7803,   40.9986,   -0.3519,    1.6199,1,55793,13
0,   -4.2618,   -3.5943,    5.6333,   56.9134,  -75.9637,   21.8779,  -27.1157,   88.5742,   14.3790,   38.5000,87763.0469,    0.5624,   41.0873,    0.1034,    1.6199,1,55906,13
0,   -6.8315,   -6.3525,    5.0375,   50.6287,  -56.1785,   19.8658,  -21.0634,   81.5947,   17.5030,   38.5000,87764.5781,    0.4199,   41.1200,   -0.4208,    1.6199,1,56019,13
0,   -4.6181,   -6.9942,    1.8418,   32.0216,  -22.5531,    1.7312,  -13.1944,   72.3448,   18.2473,   38.5000,87762.8203,    0.5845,   41.0033,   -0.5469,    1.6199,1,56228,13
0,   -5.5750,   -7.9917,    1.3534,   27.7436,  -29.9869,    7.3373,  -10.1325,   69.7454,   19.2322,   38.5000,87763.0938,    0.5585,   41.0873,   -0.4195,    1.6199,1,56341,13
0,   -6.3018,   -7.4740,    0.6256,   22.2526,  -34.6549,    7.7840,   -6.7584,   65.5843,   21.0401,   38.6250,87763.3750,    0.5324,   41.1294,   -0.0629,    1.6199,1,56454,13
0,   -5.4080,   -7.7643,   -0.0275,   24.4549,  -40.7491,   15.1166,   -1.9048,   57.4509,   25.0532,   38.6250,87762.9297,    0.5738,   41.0033,    0.0040,    1.6199,1,56663,13
0,   -7.6405,   -9.8650,   -0.3768,    5.8436,   -9.7422,  -13.2031,   -2.4487,   57.2128,   26.1139,   38.6250,87765.9609,    0.2907,   41.0920,   -0.3075,    1.6199,1,56776,13
0,   -5.0280,   -8.3113,    0.2168,   -9.7653,    4.5256,   13.0500,   -3.1596,   57.5675,   29.2832,   38.6250,87763.6719,    0.5041,   41.1294,   -0.0938,    1.6199,1,56889,13
0,   -5.1474,   -7.7793,    0.1743,   -3.3550,    0.2504,   -6.7526,   -3.9457,   57.8801,   28.5979,   38.6250,87763.6328,    0.5081,   41.0220,   -0.0074,    1.6199,1,57098,13
0,   -5.1489,   -8.0640,    0.0454,   -0.8396,    0.4067,    3.3559,   -4.1613,   57.9537,   28.5529,   38.6250,87766.9688,    0.1962,   41.0967,   -0.1284,    1.6199,1,57211,13
0,   -5.2222,   -8.1015,    0.1121,    0.3280,   -0.6341,    1.5160,   -4.0155,   57.9591,   28.7528,   38.6250,87763.7266,    0.4991,   41.1387,    0.1425,    1.6199,1,57324,13
0,   -5.1648,   -8.1164,    0.0039,   -0.3182,    1.7407,   -0.4103,   -4.1125,   58.2113,   28.9242,   38.6250,87765.2422,    0.3575,   41.0266,   -0.2989,    1.6199,1,57533,13
0,   -5.2455,   -8.1475,    0.0390,    1.1938,    0.5083,    0.2356,   -4.0675,   58.2056,   28.9842,   38.5000,87766.3672,    0.2523,   41.1013,    0.0994,    1.6199,1,57646,13
0,   -5.2471,   -8.0605,    0.0590,    1.5178,   -1.0078,    1.0136,   -4.0263,   58.1566,   28.9850,   38.5000,87765.4375,    0.3394,   41.1434,   -0.4506,    1.6199,1,57759,13
0,   -5.2578,   -8.1106,    0.0489,    0.4102,   -0.4139,   -1.0586,   -4.0838,   58.0859,   28.7622,   38.5000,87765.0469,    0.3762,   41.0220,    0.0740,    1.6199,1,57968,13
0,   -5.2555,   -8.0937,    0.0292,    1.9091,   -0.4433,    0.6271,   -3.9444,   57.9951,   28.8889,   38.5000,87767.9766,    0.1022,   41.1154,   -0.2603,    1.6199,1,58081,13
0,   -5.2727,   -8.1300,    0.0627,   -1.2643,   -0.8404,    0.2717,   -4.0921,   57.8415,   28.9424,   38.5000,87769.1016,   -0.0036,   41.1480,   -0.6796,    1.6199,1,58194,13
0,   -5.2809,   -8.1879,    0.0199,   -0.3671,    1.0941,    1.3655,   -4.1331,   57.9374,   29.3345,   38.5000,87762.8906,    0.5777,   41.0360,   -0.2583,    1.6199,1,58403,13
0,   -5.2376,   -8.1411,    0.0164,    2.1675,    1.1513,    0.8393,   -4.0509,   57.9522,   29.4352,   38.5000,87767.4766,    0.1492,   41.1200,   -0.5884,    1.6199,1,58516,13
0,   -5.2129,   -8.1153,    0.0070,   -1.4131,    1.7427,    0.7437,   -4.2308,   58.0227,   29.6429,   38.5000,87765.5469,    0.3293,   41.1574,    0.1422,    1.6199,1,58629,13
0,   -5.2293,   -8.1368,    0.0597,    0.1367,    0.7426,    0.2045,   -4.1101,   58.2354,   29.9139,   38.5000,87767.3594,    0.1600,   41.0406,   -0.4020,    1.6199,1,58838,13
0,   -5.2945,   -8.1629,    0.0430,   -0.2822,    1.3552,    0.3651,   -4.1989,   58.3682,   30.0402,   38.6250,87766.3281,    0.2562,   41.1200,    0.5129,    1.6199,1,58951,13
0,   -5.2718,   -8.1380,    0.0280,    0.3482,    0.1163,   -1.9220,   -4.2205,   58.3821,   29.9112,   38.6250,87767.7031,    0.1277,   41.1621,   -0.0851,    1.6199,1,59064,13
0,   -5.2242,   -8.1352,    0.0633,    2.5726,   -1.1399,   -0.6814,   -3.8149,   58.1870,   29.7815,   38.6250,87770.0703,   -0.0936,   41.0453,   -0.2975,    1.6199,1,59273,13
0,   -5.2263,   -8.1449,    0.0644,    0.0960,   -0.4067,    0.5772,   -3.8382,   58.1926,   29.7316,   38.6250,87767.6875,    0.1288,   41.1387,   -0.1514,    1.6199,1,59386,13
0,   -5.2450,   -8.1593,    0.0571,   -0.6086,    1.8626,   -0.4062,   -3.6724,   58.3700,   29.5587,   38.6250,87765.0469,    0.3762,   41.1667,    0.5802,    1.6199,1,59499,13
0,   -5.2637,   -8.1301,    0.0323,    1.9881,    1.0649,    1.1012,   -3.4529,   58.6243,   29.6235,   38.6250,87767.0625,    0.1872,   41.0546,    0.5387,    1.6199,1,59708,13
0,   -5.2859,   -8.1425,    0.0258,    1.2767,   -2.9921,   -0.3986,   -3.3977,   58.4515,   29.6926,   38.6250,87770.3984,   -0.1242,   41.1387,   -0.3538,    1.6199,1,59821,13
0,   -5.2821,   -8.1491,    0.0395,   -1.6283,    0.8175,   -1.0691,   -3.4904,   58.4474,   29.7142,   38.6250,87766.6016,    0.2308,   41.1714,   -0.2291,    1.6199,1,59934,13
0,   -5.9033,   -8.0507,   -0.2335,   10.9759,  -14.7442,   13.0383,   -1.9237,   56.1981,   31.0910,   38.6250,87767.4141,    0.1548,   41.0546,   -0.2883,    1.6199,1,60143,13
0,   -3.9925,   -9.1545,   -0.0103,    3.3844,    0.0737,  -32.4664,   -1.3198,   55.9457,   29.1002,   38.6250,87767.1406,    0.1804,   41.1480,    0.3637,    1.6199,1,60256,13
0,   -5.9033,   -6.6099,   -0.6601,    1.6056,   -2.2366,  -31.4480,   -0.1913,   56.1163,   28.0133,   38.6250,87770.0703,   -0.0936,   41.1761,   -1.0617,    1.6199,1,60369,13
0,   -5.2096,   -7.5939,   -0.0978,    3.3176,    3.1016,   -4.8696,    0.3059,   56.6790,   26.0480,   38.6250,87765.4609,    0.3372,   41.0733,   -0.0928,    1.6199,1,60578,13
0,   -5.5376,   -7.7841,   -0.4731,   -2.1401,    0.4413,   15.7140,    0.2993,   56.7293,   26.5391,   38.6250,87765.3828,    0.3445,   41.1434,   -0.2218,    1.6199,1,60691,13
0,   -6.4241,   -7.1707,   -0.2092,    0.5604,   -0.5446,  -18.0215,    0.3538,   56.7338,   27.7639,   38.6250,87766.8125,    0.2104,   41.1854,    0.4122,    1.6199,1,60804,13
0,   -6.0805,   -7.9110,    0.2254,   -6.1571,   -1.1453,   -2.2683,   -0.7702,   56.4240,   26.7583,   38.6250,87767.0156,    0.1917,   41.0640,   -0.3868,    1.6199,1,61013,13
0,   -6.1397,   -7.4191,   -0.5540,  -19.5059,   20.8548,  -24.4844,   -2.8103,   58.3210,   24.9073,   38.6250,87768.1953,    0.0818,   41.1480,   -0.5736,    1.6199,1,61126,13
0,   -6.0541,   -7.0321,    0.4510,  -12.5713,   16.0001,  -13.8652,   -4.7046,   60.7594,   23.3392,   38.6250,87766.2578,    0.2624,   41.1994,   -0.2367,    1.6199,1,61239,13
0,   -6.7595,   -6.9141,    0.2769,    6.0409,   -4.1245,  -15.1726,   -4.0100,   60.2714,   20.1692,   38.6250,87764.6094,    0.4164,   41.0733,    0.1505,    1.6199,1,61448,13
0,   -6.8487,   -6.9388,    0.3685,    0.1368,    3.1755,   -0.6540,   -3.6658,   60.3826,   19.8007,   38.6250,87765.1875,    0.3632,   41.1621,    0.3909,    1.6199,1,61561,13
0,   -6.6940,   -6.6742,    0.3715,    2.2030,   -0.1987,   -3.9830,   -3.6141,   60.5721,   19.5260,   38.6250,87768.3672,    0.0655,   41.2041,   -0.3242,    1.6199,1,61674,13
0,   -6.9959,   -6.4649,    0.2848,    3.9718,    4.7175,   -6.3406,   -2.6548,   61.3947,   17.7230,   38.6250,87766.6250,    0.2285,   41.0827,   -0.1699,    1.6199,1,61883,13
0,   -6.8430,   -6.5679,    0.4539,    1.9411,    1.0605,   17.2923,   -2.4379,   61.5043,   19.2712,   38.6250,87767.4531,    0.1509,   41.1714,   -0.2158,    1.6199,1,61996,13
0,   -6.7431,   -6.7164,    0.3388,   -0.9637,   -0.4286,   14.3535,   -2.4083,   61.5342,   20.5842,   38.6250,87767.3203,    0.1634,   41.2041,    0.2686,    1.6199,1,62109,13
0,   -6.1914,   -6.9838,    0.3647,   -1.6190,    4.6322,   15.1469,   -2.5161,   62.1318,   23.2731,   38.6250,87766.9766,    0.1956,   41.0873,   -0.0619,    1.6199,1,62318,13
0,   -6.0824,   -7.6325,    0.4878,    3.1657,    6.7776,   20.4479,   -2.2930,   62.8431,   25.5523,   38.6250,87765.2422,    0.3575,   41.1761,    0.4428,    1.6199,1,62431,13
0,   -5.7546,   -8.4554,    0.8914,    8.5421,   -9.9505,   -1.3062,   -1.2782,   62.1922,   26.4192,   38.6250,87766.4688,    0.2432,   41.2088,    0.2147,    1.6199,1,62544,13
0,   -5.8891,   -8.0291,    0.0433,   -0.5461,   -5.1665,   -3.2413,   -0.9558,   59.9100,   25.5120,   38.6250,87769.1328,   -0.0064,   41.0967,    0.0432,    1.6199,1,62753,13
0,   -5.4923,   -7.3857,   -0.2953,    1.7384,   -0.5079,    8.1409,   -0.6352,   59.7900,   26.2264,   38.6250,87766.9063,    0.2018,   41.1714,   -0.1882,    1.6199,1,62866,13
0,   -5.1954,   -7.5880,   -0.3036,   11.4564,    2.6123,   17.7362,    0.2098,   59.9043,   27.2931,   38.6250,87765.5625,    0.3276,   41.2134,    0.3855,    1.6199,1,62979,13
0,   -4.4146,   -7.9863,    0.3145,  -25.0465,   20.8447,    8.8622,   -3.1631,   63.3798,   30.2990,   38.6250,87767.5781,    0.1391,   41.0967,    0.5005,    1.6199,1,63188,13
0,   -6.0377,   -9.5317,    1.2641,  -43.8178,   32.7071,    0.9314,   -8.1388,   67.1329,   31.5126,   38.6250,87767.6641,    0.1312,   41.1947,    0.4465,    1.6199,1,63301,13
0,   -4.0970,   -7.1911,    1.6657,   -0.4691,    1.7103,  -21.6228,   -9.6038,   67.9777,   29.2033,   38.6250,87766.6250,    0.2285,   41.2228,    0.2643,    1.6199,1,63414,13
0,   -5.1278,   -7.9959,    0.1590,   37.2774,  -21.2857,   -9.3015,   -2.7036,   63.8768,   26.4864,   38.6250,87768.0391,    0.0960,   41.1154,    0.1870,    1.6199,1,63623,13
0,   -5.9034,   -8.3421,    0.1898,   -5.6031,    1.7954,    2.5223,   -3.0247,   63.6527,   26.6909,   38.6250,87767.0625,    0.1872,   41.1994,    0.2688,    1.6199,1,63736,13
0,   -5.1401,   -7.9506,    0.3275,    5.1975,    1.3731,   13.5783,   -2.6447,   63.9478,   27.7975,   38.6250,87769.7891,   -0.0670,   41.2274,   -0.3215,    1.6199,1,63849,13
0,   -5.1935,   -7.8112,    0.8562,  -36.4034,   19.4602,   -0.0321,   -7.8784,   67.0297,   28.6467,   38.6250,87767.4844,    0.1481,   41.1154,   -0.0049,    1.6199,1,64058,13
0,   -5.5304,   -8.4316,    1.6081,  -40.6976,   20.6250,   -4.7948,  -13.2062,   69.5408,   29.0862,   38.6250,87768.7734,    0.0275,   41.1994,   -0.4313,    1.6199,1,64171,13
0,   -4.2779,   -7.1766,    2.4376,   13.6994,  -15.6667,   -0.6943,  -12.6412,   68.5490,   28.5712,   38.6250,87764.0156,    0.4725,   41.2321,    0.9236,    1.6199,1,64284,13
0,   -5.6340,   -8.0498,    1.2795,    2.1104,  -13.1121,    9.2675,  -11.2835,   64.8213,   29.3095,   38.6250,87765.9766,    0.2885,   41.1200,    0.3457,    1.6199,1,64493,13
0,   -5.3088,   -7.9465,    1.2915,    8.1079,    4.0720,    2.7714,  -10.4998,   64.9633,   30.0418,   38.6250,87769.6719,   -0.0562,   41.1994,   -0.1286,    1.6199,1,64606,13
0,   -5.2390,   -8.3564,    1.4176,    3.5291,   19.9145,   11.8669,   -9.4715,   66.6654,   31.7825,   38.6250,87769.8906,   -0.0772,   41.2414,   -1.1649,    1.6199,1,64719,13
0,   -5.2538,   -8.4061,    2.5374,   11.7355,   45.7695,    1.4998,   -7.9907,   75.2126,   32.7384,   38.6250,87767.0391,    0.1894,   41.1200,   -0.6075,    1.6199,1,64928,13
0,   -4.0544,   -8.3147,    1.8422,   -1.2222,   -9.6607,   -4.7550,   -8.2274,   75.1656,   31.8096,   38.6250,87770.2734,   -0.1129,   41.2181,   -0.5246,    1.6199,1,65041,13
0,   -3.5911,   -8.4214,    1.8787,    0.3229,  -44.1992,    0.0079,   -7.9984,   71.3819,   30.8910,   38.6250,87767.4844,    0.1481,   41.2508,   -0.0855,    1.6199,1,65154,13
0,   -5.7381,   -8.1466,    1.4247,   -7.0261,   -3.3495,   -2.8241,   -9.6834,   67.2778,   29.4852,   38.6250,87767.1406,    0.1804,   41.1387,   -0.1042,    1.6199,1,65363,13
0,   -5.1764,   -7.7645,    1.5413,    3.8807,   16.3953,   -2.1956,   -9.5079,   68.7211,   29.0082,   38.6250,87764.6641,    0.4113,   41.2228,    1.0863,    1.6199,1,65476,13
0,   -5.0209,   -8.3268,    1.2681,    6.6559,   27.1912,    4.7480,   -8.6123,   71.5626,   28.9912,   38.6250,87768.5938,    0.0445,   41.2555,    0.1930,    1.6199,1,65589,13
0,   -5.2529,   -8.7896,    2.1360,    5.1711,   14.4143,  -17.5513,   -7.1935,   75.6815,   26.7968,   38.6250,87767.1406,    0.1804,   41.1387,    0.1536,    1.6199,1,65798,13
0,   -4.6261,   -8.4354,    1.9629,  -17.5871,    3.9566,   -5.0444,   -8.8167,   76.1300,   25.4696,   38.6250,87770.8359,   -0.1655,   41.2321,   -1.0628,    1.6199,1,65911,13
0,   -5.3143,   -8.1188,    2.2579,  -21.4501,   13.7388,   -6.9091,  -11.2999,   77.4476,   24.8906,   38.6250,87764.8828,    0.3915,   41.2555,    0.4653,    1.6199,1,66024,13
0,   -4.6920,   -7.8362,    2.8087,    6.4893,    3.9425,    2.6524,  -11.2533,   78.8250,   25.2823,   38.6250,87765.0859,    0.3723,   41.1434,   -0.0760,    1.6199,1,66233,13
0,   -4.8608,   -8.2911,    2.5653,   -2.4661,   -3.1061,    9.4072,  -11.0997,   78.5888,   25.7243,   38.6250,87766.5703,    0.2336,   41.2414,    0.3654,    1.6199,1,66346,13
0,   -4.3984,   -8.5364,    2.7672,  -21.1829,    0.4525,   20.3124,  -12.7904,   78.3865,   29.8276,   38.6250,87764.9297,    0.3870,   41.2695,   -0.1704,    1.6199,1,66459,13
0,   -3.9961,   -7.6787,    3.5422,  -42.6439,  -16.2506,  -12.9424,  -21.1704,   76.2634,   28.8395,   38.7500,87764.5391,    0.4232,   41.1527,   -0.1041,    1.6199,1,66668,13
0,   -4.3014,   -7.2956,    4.0971,    0.4837,  -38.3287,   -9.8532,  -22.0761,   72.5103,   28.2827,   38.7500,87767.5234,    0.1441,   41.2414,   -0.5184,    1.6199,1,66781,13
0,   -6.7733,   -7.7124,    5.4075,   27.2158,  -66.8962,  -27.4339,  -19.6640,   66.0550,   25.1779,   38.7500,87766.2891,    0.2596,   41.2695,   -0.6682,    1.6199,1,66894,13
0,   -8.0777,   -7.4303,    2.1555,    5.8577,    7.7861,   -2.4259,  -17.8606,   62.4324,   22.4150,   38.7500,87765.4922,    0.3343,   41.1667,   -0.3840,    1.6199,1,67103,13
0,   -6.0419,   -6.8577,    2.4025,  -32.0485,   34.6835,    4.4845,  -21.0548,   65.8640,   22.1520,   38.7500,87768.1797,    0.0829,   41.2461,   -0.1711,    1.6199,1,67216,13
0,   -5.4442,   -7.1380,    3.6216,    1.9459,   46.4641,  -14.7926,  -21.9548,   70.8813,   21.5096,   38.7500,87768.5547,    0.0479,   41.2788,   -0.6301,    1.6199,1,67329,13
0,   -5.1377,   -6.8635,    2.9938,   26.6310,   26.2407,   14.0852,  -16.6505,   77.1701,   23.2720,   38.7500,87765.2969,    0.3525,   41.1621,   -0.3508,    1.6199,1,67538,13
0,   -4.8216,   -7.3855,    3.5325,   14.9427,    3.9772,   -1.7983,  -14.5118,   78.0037,   22.9686,   38.7500,87767.1328,    0.1810,   41.2414,   -0.1851,    1.6199,1,67651,13
0,   -5.2074,   -7.6478,    3.3913,    6.2868,  -15.0275,   -2.5186,  -13.6595,   76.8565,   23.3166,   38.7500,87762.7344,    0.5925,   41.2788,    0.9023,    1.6199,1,67764,13
0,   -5.6882,   -7.8360,    2.5441,   -0.9581,   -8.9161,    0.9421,  -13.3631,   74.1736,   23.2557,   38.7500,87766.1953,    0.2686,   41.1667,    0.1703,    1.6199,1,67973,13
0,   -5.6729,   -7.2099,    2.8324,  -12.3638,    3.1178,   -2.5645,  -14.8692,   74.2921,   22.7593,   38.7500,87765.3281,    0.3497,   41.2555,    0.7228,    1.6199,1,68086,13
0,   -5.6647,   -7.2047,    2.5907,    5.9478,   -1.3614,   -8.8314,  -14.5126,   74.1001,   22.1391,   38.7500,87766.1484,    0.2726,   41.2881,   -0.3098,    1.6199,1,68199,13
0,   -5.5868,   -6.9999,    2.9423,  -10.1206,    9.7671,   -2.6048,  -15.8987,   75.7834,   21.9560,   38.7500,87764.7969,    0.3995,   41.1761,    0.5928,    1.6199,1,68408,13
0,   -5.8321,   -7.6772,    3.7998,    5.3635,   10.9172,   -1.7222,  -16.0423,   76.9798,   21.3267,   38.7500,87767.5391,    0.1424,   41.2508,   -0.0459,    1.6199,1,68521,13
0,   -5.6392,   -6.9088,    3.1223,    4.5002,    1.8220,    1.5238,  -15.6732,   77.2238,   20.9087,   38.7500,87766.8516,    0.2070,   41.2928,    0.2033,    1.6199,1,68634,13
0,   -5.8925,   -7.3042,    4.0869,    0.7464,    2.7247,   -0.9106,  -15.1968,   77.8437,   20.5741,   38.7500,87765.1953,    0.3615,   41.1854,    0.3381,    1.6199,1,68843,13
0,   -5.7966,   -7.0380,    2.9280,    6.5110,   -0.9234,   -3.8879,  -14.5675,   77.8770,   19.9555,   38.7500,87766.6875,    0.2228,   41.2695,    0.4427,    1.6199,1,68956,13
0,   -5.7700,   -6.9812,    3.1631,   -0.2393,    1.7500,    4.0865,  -14.2003,   78.2052,   19.7944,   38.7500,87765.0469,    0.3762,   41.3022,    0.6290,    1.6199,1,69069,13
0,   -5.9885,   -6.9461,    3.2150,   -5.2080,    1.3275,    4.4958,  -15.1260,   78.6672,   20.3736,   38.7500,87764.7500,    0.4034,   41.1854,    0.2717,    1.6199,1,69278,13
0,   -5.8035,   -6.8722,    3.3714,   -2.7051,   -3.0542,   -2.4801,  -15.2409,   78.6091,   20.0936,   38.7500,87763.7813,    0.4940,   41.2741,    0.6093,    1.6199,1,69391,13
0,   -5.9024,   -6.8454,    3.0997,   -1.3800,   -2.4131,   -4.3749,  -15.2875,   78.3573,   19.9335,   38.7500,87765.7500,    0.3106,   41.3115,   -0.0024,    1.6199,1,69504,13
0,   -5.9470,   -6.7740,    3.1603,    2.7824,   -0.5964,   -1.8303,  -15.0236,   78.2448,   19.6449,   38.7500,87763.4922,    0.5212,   41.1994,    0.1487,    1.6199,1,69713,13
0,   -5.9921,   -6.6826,    2.4837,    8.8593,    1.4212,   -8.7374,  -14.1357,   78.3446,   18.8610,   38.7500,87770.2031,   -0.1060,   41.2741,   -1.1854,    1.6199,1,69826,13
0,   -5.7800,   -6.8797,    3.4258,    4.2972,   -2.6967,   -0.4237,  -13.2531,   78.1403,   18.7865,   38.7500,87768.3594,    0.0660,   41.3255,   -0.5962,    1.6199,1,69939,13
0,   -6.0890,   -6.7881,    2.9338,   -0.6166,   -0.0658,    2.5610,  -13.5388,   77.9504,   19.1931,   38.7500,87763.0000,    0.5670,   41.1947,   -0.3912,    1.6199,1,70148,13
0,   -6.1613,   -6.8112,    3.0424,   -1.8425,    1.4143,    0.7805,  -13.7331,   78.1636,   19.5368,   38.7500,87766.5391,    0.2364,   41.2881,    0.3727,    1.6199,1,70261,13
0,   -6.2020,   -6.8655,    3.1033,    2.5507,    2.0944,   -0.1527,  -13.5032,   78.5178,   19.6110,   38.7500,87765.5000,    0.3332,   41.3162,    0.3866,    1.6199,1,70374,13
0,   -5.9758,   -6.9013,    3.2893,   -2.0404,    5.5254,    3.4292,  -13.7943,   79.6165,   20.4987,   38.7500,87764.2500,    0.4504,   41.2088,   -0.0553,    1.6199,1,70583,13
0,   -5.6286,   -6.8140,    3.3162,   -4.6584,   12.3617,    4.3733,  -14.3034,   80.8694,   21.1446,   38.7500,87763.9375,    0.4792,   41.2928,    0.6330,    1.6199,1,70696,13
0,   -5.3817,   -6.9471,    3.6325,    0.2910,    7.9706,   13.3783,  -14.3096,   81.9677,   22.1357,   38.7500,87766.8047,    0.2115,   41.3302,   -0.0664,    1.6199,1,70809,13
0,   -5.3809,   -7.3405,    3.5186,   -5.8070,    4.7272,    8.4707,  -14.9594,   82.9558,   23.9008,   38.7500,87765.1563,    0.3660,   41.2134,    0.1360,    1.6199,1,71018,13
0,   -4.9384,   -7.2863,    3.7776,   -1.6296,    4.4030,    9.0136,  -15.3213,   83.3433,   24.7556,   38.7500,87769.4063,   -0.0319,   41.2975,   -0.8041,    1.6199,1,71131,13
0,   -5.0614,   -7.4006,    3.8134,   -0.5574,    3.1009,    8.4905,  -15.5383,   83.5840,   26.1075,   38.7500,87765.7578,    0.3094,   41.3302,    0.2244,    1.6199,1,71244,13
0,   -4.7731,   -7.6382,    3.8654,   -1.2401,    0.8588,    2.1521,  -15.9935,   83.9595,   26.8928,   38.7500,87763.7500,    0.4968,   41.2134,    0.1509,    1.6199,1,71453,13
0,   -4.6780,   -7.6070,    4.1213,   -4.5002,    2.5637,    3.5304,  -16.3455,   84.1034,   27.4819,   38.7500,87766.8516,    0.2070,   41.3068,    0.3575,    1.6199,1,71566,13
0,   -4.3456,   -7.3248,    4.0970,   -1.6726,    0.6691,   -3.9681,  -16.7373,   84.3435,   27.8645,   38.7500,87765.5625,    0.3276,   41.3348,    0.0572,    1.6199,1,71679,13
0,   -4.4228,   -7.3534,    4.1726,    0.7896,    0.3327,    1.6772,  -16.6290,   84.4845,   27.9034,   38.8750,87765.6641,    0.3184,   41.2181,   -0.0059,    1.6199,1,71888,13
0,   -4.8183,   -7.5565,    4.1323,    1.4405,    0.1915,   -1.8943,  -16.6257,   84.3849,   28.0539,   38.8750,87764.4453,    0.4317,   41.3115,    0.7229,    1.6199,1,72001,13
0,   -4.4269,   -7.3653,    4.1803,   -0.9491,   -1.0550,    2.0715,  -16.7123,   84.4530,   28.0714,   38.8750,87764.6016,    0.4175,   41.3535,    0.4732,    1.6199,1,72114,13
0,   -4.3220,   -7.4408,    4.1554,   -1.8959,    3.8251,   -0.3034,  -16.7789,   85.0596,   27.8856,   38.8750,87763.0000,    0.5670,   41.2274,    0.5297,    1.6199,1,72323,13
0,   -4.6772,   -7.6132,    4.1368,    0.7667,    0.9906,    0.7275,  -16.8097,   84.9075,   27.8454,   38.8750,87769.0625,    0.0003,   41.3068,   -0.7873,    1.6199,1,72436,13
0,   -4.4702,   -7.4192,    4.2524,    1.0911,    1.5286,    2.4285,  -16.7572,   85.0662,   28.1347,   38.8750,87768.6719,    0.0372,   41.3535,   -0.9519,    1.6199,1,72549,13
0,   -4.4769,   -7.5538,    4.2432,   -1.6729,    1.3729,    0.3190,  -16.9231,   85.1379,   28.3542,   38.8750,87763.9609,    0.4776,   41.2368,   -0.7065,    1.6199,1,72758,13
0,   -4.3032,   -7.4423,    4.2683,    1.1486,    1.5385,    0.3174,  -16.9254,   85.2718,   28.7155,   38.8750,87765.1953,    0.3615,   41.3162,    0.3569,    1.6199,1,72871,13
0,   -4.3962,   -7.6566,    4.2262,   -1.4587,    2.4375,    0.3333,  -17.0345,   85.5093,   28.7249,   38.8750,87763.8516,    0.4877,   41.3582,    0.7366,    1.6199,1,72984,13
0,   -4.3346,   -7.6040,    4.2650,   -1.3517,    3.6049,   -4.8338,  -17.4280,   86.2178,   28.0969,   38.8750,87765.5625,    0.3276,   41.2414,    0.1044,    1.6199,1,73193,13
0,   -3.8084,   -7.3013,    4.4656,   -4.0533,   -0.2970,    4.0148,  -17.9979,   86.4731,   28.2334,   38.8750,87764.9453,    0.3853,   41.3348,    0.1671,    1.6199,1,73306,13
0,   -4.1383,   -7.6735,    4.1893,    2.6824,   -0.1162,   -1.5535,  -18.0315,   86.4042,   28.0367,   38.8750,87766.6172,    0.2291,   41.3629,   -0.3414,    1.6199,1,73419,13
0,   -4.0121,   -7.3302,    4.4903,   -1.0600,    1.1868,    4.7470,  -18.1470,   86.3210,   28.7038,   38.8750,87763.4609,    0.5245,   41.2508,    0.1389,    1.6199,1,73628,13
0,   -4.6792,   -7.7936,    4.2177,    0.3600,    2.6268,   -7.8476,  -18.0659,   86.2246,   28.0173,   38.8750,87764.6484,    0.4130,   41.3302,   -0.0121,    1.6199,1,73741,13
0,   -3.8436,   -7.1752,    4.6344,   -5.5877,    6.0458,    2.0656,  -18.4788,   87.0668,   28.2832,   38.8750,87764.5078,    0.4261,   41.3629,    0.2814,    1.6199,1,73854,13
0,   -4.1137,   -7.3646,    4.6097,   -3.0776,   -0.1371,    2.2233,  -18.9036,   86.9783,   28.8014,   38.8750,87765.6719,    0.3173,   41.2414,   -0.1993,    1.6199,1,74063,13
0,   -4.0570,   -7.4588,    4.5152,    1.5862,   -0.6566,    0.0679,  -18.6887,   86.8735,   28.7370,   38.8750,87768.4688,    0.0558,   41.3395,   -0.7221,    1.6199,1,74176,13
0,   -4.3087,   -7.5147,    4.4225,    0.1191,    0.9298,    3.7378,  -18.6880,   86.9633,   28.9415,   38.8750,87765.9219,    0.2941,   41.3629,   -0.4822,    1.6199,1,74289,13
0,   -4.4701,   -7.6691,    4.3404,    5.7918,    3.0417,   -5.9595,  -17.6381,   87.3528,   28.1965,   38.8750,87765.7734,    0.3083,   41.2648,   -0.2319,    1.6199,1,74498,13
0,   -4.0578,   -7.3264,    4.5189,   -4.2688,    3.1715,   -0.8878,  -18.0579,   87.8004,   28.0915,   38.8750,87767.5625,    0.1407,   41.3442,    0.2159,    1.6199,1,74611,13
0,   -4.0512,   -7.4221,    4.4902,   -1.0490,    1.5736,   -2.7817,  -18.3162,   88.1795,   27.9098,   38.8750,87769.3828,   -0.0296,   41.3862,   -0.6011,    1.6199,1,74724,13
0,   -4.6486,   -7.4254,    4.4980,   -2.7917,   -1.1437,   -8.0401,  -18.5781,   87.9972,   26.3563,   38.8750,87766.8281,    0.2093,   41.2648,   -0.0526,    1.6199,1,74933,13
0,   -3.6926,   -6.9523,    4.8110,   -5.3800,    3.9329,    5.9310,  -19.1387,   88.1137,   26.5694,   38.8750,87764.8516,    0.3943,   41.3582,    0.3164,    1.6199,1,75046,13
0,   -4.4783,   -7.5200,    4.6484,   -1.7888,   -0.7392,   -0.8667,  -19.4849,   88.1171,   26.5817,   38.8750,87764.2109,    0.4543,   41.3909,    0.9024,    1.6199,1,75159,13
0,   -4.2832,   -7.4974,    4.5694,    0.2355,    3.3791,   -5.4782,  -19.7752,   88.5287,   26.6040,   38.8750,87764.7188,    0.4062,   41.2648,    0.3737,    1.6199,1,75368,13
0,   -4.0254,   -7.4557,    4.8824,   -9.8567,   12.9432,    5.1656,  -20.8179,   89.6727,   27.4057,   38.8750,87766.8672,    0.2053,   41.3582,   -0.2459,    1.6199,1,75481,13
0,   -4.2669,   -6.6396,    5.2998,   -6.8399,    0.4860,   10.7214,  -21.6430,   90.3616,   27.7115,   38.7500,87762.7109,    0.5942,   41.3862,    0.3858,    1.6199,1,75594,13
0,   -3.4752,   -7.0645,    5.2977,    1.9514,   -1.5745,   13.6542,  -21.6024,   89.6023,   29.8741,   38.7500,87765.0703,    0.3740,   41.2835,    0.1996,    1.6199,1,75803,13
0,   -3.6733,   -7.0861,    5.2025,    1.1152,    3.7418,    1.2821,  -21.2176,   89.9568,   29.4775,   38.7500,87767.8203,    0.1164,   41.3629,    0.0969,    1.6199,1,75916,13
0,   -4.1670,   -7.2156,    5.0503,    2.8366,    3.9219,    0.7910,  -21.0651,   90.4994,   29.4971,   38.7500,87764.0156,    0.4725,   41.3956,    0.0879,    1.6199,1,76029,13
0,   -3.9522,   -6.8654,    5.1787,   -4.9074,   -7.9039,    3.5754,  -21.8953,   89.8162,   30.2244,   38.7500,87763.9219,    0.4809,   41.2881,    0.0934,    1.6199,1,76238,13
0,   -3.7273,   -7.2711,    5.0982,   -2.0149,    2.9925,   13.7708,  -21.6727,   89.8790,   30.8802,   38.7500,87767.2188,    0.1730,   41.3629,    0.1122,    1.6199,1,76351,13
0,   -4.2380,   -7.2813,    4.9970,   -1.6624,   -3.1230,   -3.1210,  -21.9706,   89.7258,   31.6382,   38.7500,87761.9609,    0.6644,   41.4049,    0.3955,    1.6199,1,76464,13
0,   -3.4895,   -7.5248,    4.9796,    2.7710,   -2.1392,  -11.2931,  -21.0371,   89.5688,   29.2788,   38.7500,87765.1250,    0.3688,   41.2881,    0.0243,    1.6199,1,76673,13
0,   -4.2537,   -7.5034,    4.9548,   -2.1944,  -12.0344,    2.9662,  -21.1918,   87.9988,   30.6756,   38.7500,87766.6641,    0.2250,   41.3769,    0.2292,    1.6199,1,76786,13
0,   -4.3091,   -7.3155,    4.9544,   -4.2326,    4.4344,    5.4856,  -21.4683,   88.4715,   30.9659,   38.8750,87762.3125,    0.6315,   41.4096,    0.0261,    1.6199,1,76899,13
0,   -4.0595,   -7.6672,    4.9873,    0.1024,    7.9365,    0.3263,  -21.4852,   90.0398,   30.5129,   38.8750,87761.9141,    0.6689,   41.2975,    0.3653,    1.6199,1,77108,13
0,   -3.9716,   -7.5473,    5.1814,   -9.7884,   11.0771,   -3.3104,  -22.5433,   91.6072,   31.6047,   38.8750,87764.6641,    0.4113,   41.3815,    0.2330,    1.6199,1,77221,13
0,   -3.0307,   -6.9451,    5.2571,    4.2889,   -4.7841,    3.6638,  -22.4866,   91.2391,   31.8367,   38.8750,87764.1719,    0.4577,   41.4189,   -0.4887,    1.6199,1,77334,13
0,   -3.9912,   -7.2962,    4.9570,    2.3801,    1.0351,   -0.2081,  -21.7124,   90.5232,   31.8919,   38.8750,87762.9219,    0.5744,   41.3068,   -0.2326,    1.6199,1,77543,13
0,   -3.2788,   -7.3829,    5.1463,   -2.6451,    6.4267,  -11.2896,  -21.9512,   91.3065,   30.8819,   38.8750,87767.8281,    0.1158,   41.3956,   -0.6378,    1.6199,1,77656,13
0,   -3.4314,   -7.5639,    5.1115,   -0.7715,    3.3140,  -21.9073,  -22.3879,   91.8217,   30.3782,   38.8750,87762.7656,    0.5890,   41.4236,    0.2286,    1.6199,1,77769,13
0,   -3.6979,   -7.0044,    5.3267,    5.0761,    4.3644,   -8.7172,  -21.8492,   92.4677,   28.4793,   38.8750,87766.0859,    0.2783,   41.3068,   -0.3170,    1.6199,1,77978,13
0,   -3.8886,   -7.2626,    5.2288,    0.2200,    2.9577,   -1.9067,  -21.9441,   92.7745,   29.1576,   38.8750,87768.4766,    0.0552,   41.3815,    0.1120,    1.6199,1,78091,13
0,   -3.6440,   -7.3099,    5.4834,   -3.6152,    1.7705,    1.2511,  -21.9496,   93.2035,   28.4161,   38.8750,87766.4297,    0.2466,   41.4282,   -0.4335,    1.6199,1,78204,13
0,   -3.9228,   -7.2747,    5.2546,   -0.0427,   -3.9140,    7.7195,  -22.3810,   92.9215,   29.7847,   38.8750,87762.3672,    0.6264,   41.3162,    0.2652,    1.6199,1,78413,13
0,   -3.4463,   -6.9721,    5.3557,   -0.3781,    0.6214,    0.2023,  -22.3786,   93.1442,   29.4034,   38.8750,87768.4766,    0.0552,   41.4049,   -0.2263,    1.6199,1,78526,13
0,   -3.9501,   -7.4628,    5.4408,   -2.1002,    3.8810,   -2.3424,  -22.3968,   93.5243,   29.2585,   38.8750,87767.1875,    0.1758,   41.4376,   -0.3756,    1.6199,1,78639,13
0,   -2.7979,   -6.6501,    5.5688,   -8.8986,   10.2504,   12.6398,  -23.5512,   95.0699,   30.9764,   38.8750,87764.9297,    0.3870,   41.3162,   -0.3355,    1.6199,1,78848,13
0,   -3.3192,   -7.3335,    5.6902,    4.8435,   -5.4809,  -13.8675,  -23.6615,   94.9672,   29.8718,   38.8750,87768.8828,    0.0174,   41.4002,   -0.0829,    1.6199,1,78961,13
0,   -4.4093,   -7.2039,    5.4972,   -0.9432,   -3.2345,    1.7894,  -23.7518,   93.9635,   29.8591,   38.8750,87767.5859,    0.1385,   41.4376,   -0.2054,    1.6199,1,79074,13
0,   -3.5942,   -7.2429,    5.2719,    1.3194,    1.7635,  -12.8115,  -23.9819,   94.4152,   29.0929,   38.8750,87766.5391,    0.2364,   41.3348,   -0.2883,    1.6199,1,79283,13
0,   -3.7521,   -7.1645,    5.6059,   -5.5989,    3.0916,    5.1618,  -24.6786,   95.0518,   29.5921,   38.8750,87766.1250,    0.2748,   41.4049,    0.3847,    1.6199,1,79396,13
0,   -3.6799,   -7.6508,    5.6606,    1.2020,    1.8389,  -20.9603,  -24.5569,   95.2681,   28.4607,   38.8750,87762.1172,    0.6502,   41.4516,    1.0644,    1.6199,1,79509,13
0,   -3.5167,   -6.4681,    5.6088,    1.7877,   -4.7483,   11.7370,  -24.6535,   94.4606,   30.8207,   38.8750,87765.7344,    0.3117,   41.3348,    0.5129,    1.6199,1,79718,13
0,   -3.9324,   -7.4050,    5.5339,    5.4484,    6.0527,  -14.4967,  -24.3676,   94.6213,   30.3840,   38.8750,87763.8203,    0.4905,   41.4096,    0.9394,    1.6199,1,79831,13
0,   -3.5776,   -6.7806,    5.7470,   -7.9881,    4.5542,    3.1503,  -25.0592,   95.1693,   29.9120,   38.8750,87764.5781,    0.4199,   41.4563,    0.1974,    1.6199,1,79944,13
0,   -4.0848,   -6.9671,    5.6709,   -1.1594,   -5.0386,    1.5164,  -25.4032,   94.5899,   30.1316,   38.8750,87765.4844,    0.3349,   41.3348,    0.4019,    1.6199,1,80153,13
0,   -3.5497,   -6.7885,    5.6791,   -2.3472,    6.7663,   -1.9508,  -25.7745,   95.3017,   29.6907,   38.8750,87770.3438,   -0.1191,   41.4236,   -0.9505,    1.6199,1,80266,13
0,   -3.6433,   -7.0633,    5.7812,    1.9231,    4.6272,   -2.6752,  -25.6727,   95.9082,   29.9457,   38.8750,87763.0703,    0.5607,   41.4609,    0.1365,    1.6199,1,80379,13
0,   -3.8671,   -7.0950,    5.7836,   -1.2825,    0.9278,    6.8917,  -25.8142,   96.3855,   31.3223,   38.8750,87762.7266,    0.5931,   41.3489,    0.0407,    1.6199,1,80588,13
0,   -3.4525,   -7.3380,    5.8191,   -4.2394,    5.1133,   -2.0057,  -26.1899,   96.9667,   30.9064,   38.8750,87766.4297,    0.2466,   41.4236,    0.3415,    1.6199,1,80701,13
0,   -2.3073,   -6.9878,    6.1414,  -12.2160,    7.8957,   20.9246,  -27.3641,   97.8394,   33.2174,   38.8750,87765.6328,    0.3213,   41.4703,   -0.8084,    1.6199,1,80814,13
0,   -3.0214,   -6.9717,    6.1304,   -4.8822,   -5.4336,   16.5420,  -28.6717,   96.6318,   36.9237,   38.8750,87762.7734,    0.5884,   41.3489,   -0.4247,    1.6199,1,81023,13
0,   -3.2849,   -7.0063,    6.1536,   -5.7281,   -5.1201,    8.7001,  -29.1900,   96.2354,   37.6636,   38.8750,87765.8750,    0.2986,   41.4376,   -0.2924,    1.6199,1,81136,13
0,   -2.6593,   -6.9024,    6.3621,   -0.7022,    9.8687,    3.0038,  -29.4128,   97.2400,   37.6740,   38.8750,87765.9844,    0.2879,   41.4796,   -0.4274,    1.6199,1,81249,13
0,   -1.9990,   -7.1534,    6.4669,    0.8665,    4.5850,  -26.5570,  -29.3068,   98.3522,   31.7855,   38.8750,87762.8750,    0.5794,   41.3535,   -0.3102,    1.6199,1,81458,13
0,   -2.8410,   -6.5709,    6.5742,   -7.0158,    8.5020,    5.9936,  -29.9779,   98.9836,   32.0736,   38.8750,87764.6719,    0.4107,   41.4376,   -0.0909,    1.6199,1,81571,13
0,   -2.4635,   -6.3411,    6.5174,   -0.7908,    3.0698,   -9.6650,  -29.9308,   99.4788,   29.7386,   38.8750,87765.8359,    0.3021,   41.4749,   -0.2303,    1.6199,1,81684,13
0,   -2.8655,   -6.7135,    6.6083,   -1.8125,   -2.1749,  -14.7571,  -29.9628,   98.9861,   26.0458,   38.8750,87764.4844,    0.4283,   41.3582,   -0.3372,    1.6199,1,81893,13
0,   -3.1877,   -6.5212,    6.5506,    2.0676,   -3.7581,   -7.6874,  -29.8553,   98.6678,   24.5552,   39.0000,87762.0156,    0.6592,   41.4423,    0.4751,    1.6199,1,82006,13
0,   -3.9929,   -6.4870,    6.4402,    3.2380,   -7.4911,    3.8055,  -29.5897,   97.8552,   25.3829,   39.0000,87762.7734,    0.5884,   41.4843,    0.6569,    1.6199,1,82119,13
0,   -2.9597,   -6.4071,    6.4228,    7.1109,    5.2049,   -9.4953,  -28.3736,   98.5580,   24.4390,   39.0000,87762.0781,    0.6536,   41.3769,    0.3628,    1.6199,1,82328,13
0,   -3.1888,   -6.4428,    6.6571,   -3.2424,    5.4759,    3.8791,  -28.5064,   99.4384,   23.8735,   39.0000,87766.0859,    0.2783,   41.4423,   -0.8609,    1.6199,1,82441,13
0,   -3.1347,   -6.4747,    6.5608,   -2.6403,   -1.9153,   -1.8650,  -29.1443,   99.7926,   24.1943,   39.0000,87765.6875,    0.3162,   41.4936,   -0.7737,    1.6199,1,82554,13
0,   -3.1401,   -5.9303,    6.4717,   -5.0159,    2.0611,   11.4983,  -29.3187,   99.6985,   25.9237,   39.0000,87763.6797,    0.5036,   41.3815,   -0.4609,    1.6199,1,82763,13
0,   -3.4580,   -7.2698,    6.5645,    4.1963,   -4.9695,   -8.8141,  -29.3106,   99.5566,   26.5224,   39.0000,87767.6406,    0.1334,   41.4563,   -0.5138,    1.6199,1,82876,13
0,   -3.1877,   -6.3001,    6.7229,   -7.6039,    8.7934,    8.8677,  -29.5302,  100.5716,   26.5819,   39.0000,87766.6406,    0.2274,   41.4983,   -0.3601,    1.6199,1,82989,13
0,   -2.4627,   -5.9106,    6.6696,   -4.6237,    7.5931,   -1.3792,  -30.6096,  102.1064,   26.2081,   39.0000,87764.9375,    0.3864,   41.3769,   -0.4563,    1.6199,1,83198,13
0,   -2.7356,   -6.4812,    6.8227,    2.1054,   -3.2173,   -5.3087,  -30.7834,  102.2030,   26.0067,   39.0000,87768.3906,    0.0632,   41.4656,   -0.2046,    1.6199,1,83311,13
0,   -3.2707,   -6.5474,    6.7525,   -1.3356,   -3.5683,    5.2210,  -30.9253,  101.5431,   27.0837,   39.0000,87766.7422,    0.2171,   41.5030,   -0.1912,    1.6199,1,83424,13
0,   -3.0637,   -6.9119,    6.6975,    6.7466,    4.0014,  -10.0378,  -30.0995,  102.0678,   25.8368,   39.0000,87762.9844,    0.5687,   41.3815,    0.0710,    1.6199,1,83633,13
0,   -2.5306,   -6.7948,    6.8657,   -3.7795,   -1.0548,    1.8838,  -29.9036,  102.4358,   25.6925,   39.0000,87767.1406,    0.1804,   41.4703,   -0.2060,    1.6199,1,83746,13
0,   -3.3064,   -6.1070,    6.9016,   -5.0225,   -2.0318,   -4.7975,  -30.4840,  101.9518,   25.3098,   39.0000,87762.1250,    0.6485,   41.5076,    0.5994,    1.6199,1,83859,13
0,   -2.9036,   -6.2465,    6.6163,   -0.5279,   -2.4468,   -0.3391,  -30.8731,  101.3231,   25.4429,   39.0000,87766.2969,    0.2591,   41.3909,   -0.2384,    1.6199,1,84068,13
0,   -3.1622,   -5.5821,    6.8063,   -3.3224,   -2.8905,    2.0357,  -31.3142,  100.8974,   25.7355,   39.0000,87765.6875,    0.3162,   41.4796,    0.6501,    1.6199,1,84181,13
0,   -3.4949,   -6.7053,    6.7129,    5.9417,   -0.4839,   -5.3673,  -30.8195,  100.6600,   25.6118,   39.0000,87762.8281,    0.5834,   41.5170,    0.3492,    1.6199,1,84294,13
0,   -3.2380,   -5.5648,    6.8127,   -2.7340,    2.5710,   -0.6780,  -31.4694,  101.3476,   25.1061,   39.0000,87764.8906,    0.3903,   41.3956,    0.4566,    1.6199,1,84503,13
0,   -2.7120,   -6.5738,    6.9032,    2.0132,    4.0701,   -2.3475,  -31.5418,  101.8038,   24.7210,   39.0000,87763.9297,    0.4804,   41.4796,    0.4262,    1.6199,1,84616,13
0,   -3.5698,   -6.0226,    6.8519,   -1.7161,   -5.8039,    1.4797,  -31.6166,  101.3824,   24.7456,   39.0000,87765.6406,    0.3201,   41.5216,   -0.4417,    1.6199,1,84729,13
0,   -3.1273,   -5.7391,    6.8773,   -1.6167,    0.7539,   16.9128,  -31.8411,  101.6433,   27.3488,   39.0000,87767.7031,    0.1277,   41.4142,   -0.1435,    1.6199,1,84938,13
0,   -2.9789,   -6.0350,    6.8770,    2.1831,    6.2469,    6.1390,  -31.7481,  102.0652,   27.9350,   39.0000,87766.4922,    0.2409,   41.4843,   -0.2284,    1.6199,1,85051,13
0,   -2.9482,   -6.4535,    6.9462,   -1.1945,    4.6220,    0.5892,  -31.7447,  102.6287,   27.4832,   39.0000,87765.6953,    0.3151,   41.5263,    0.0310,    1.6199,1,85164,13
0,   -2.8675,   -6.2809,    7.1060,    1.6770,   -5.1062,    2.0462,  -31.8893,  102.3192,   27.8219,   39.0000,87766.1953,    0.2686,   41.4049,    0.0521,    1.6199,1,85373,13
0,   -2.8683,   -6.1090,    6.9901,   -3.3785,    0.7170,    1.4248,  -32.1879,  102.3006,   28.0925,   39.0000,87765.5859,    0.3253,   41.4936,    0.0408,    1.6199,1,85486,13
0,   -3.0945,   -6.2531,    6.9987,   -2.8443,   -1.2951,    5.0112,  -32.3679,  102.2493,   28.1876,   39.0000,87767.8984,    0.1096,   41.5310,   -0.3334,    1.6199,1,85599,13
0,   -2.9899,   -6.4091,    7.0687,    1.8034,   -0.6450,   -1.1322,  -32.4601,  102.3825,   28.3169,   39.0000,87763.4844,    0.5223,   41.4142,    0.3324,    1.6199,1,85808,13
0,   -2.7625,   -6.0560,    7.0681,   -0.6879,    0.7261,   -1.4280,  -32.5073,  102.5753,   28.3810,   39.0000,87764.0781,    0.4662,   41.5030,    0.1900,    1.6199,1,85921,13
0,   -2.8641,   -6.0034,    7.0676,    1.0046,   -0.5003,   -1.8484,  -32.5938,  102.5632,   28.0901,   39.0000,87763.7891,    0.4933,   41.5357,    0.5576,    1.6199,1,86034,13
0,   -3.0772,   -6.0578,    7.0360,   -1.0145,   -1.0765,    3.0668,  -32.8075,  102.4892,   28.5731,   39.0000,87764.8438,    0.3950,   41.4142,   -0.1328,    1.6199,1,86243,13
0,   -2.9174,   -5.9889,    6.9796,   -1.0677,    0.1847,   -0.9221,  -32.9764,  102.6374,   28.5784,   39.0000,87763.2813,    0.5410,   41.5076,    0.2414,    1.6199,1,86356,13
0,   -2.9020,   -5.7297,    7.0932,   -0.4310,    0.9163,    6.3208,  -33.1529,  102.9310,   29.1966,   39.0000,87765.2891,    0.3530,   41.5263,   -0.1718,    1.6199,1,86469,13
0,   -2.8637,   -6.0642,    7.0980,    0.0745,   -0.4545,   -2.3935,  -32.8447,  103.0097,   28.6916,   39.0000,87764.8906,    0.3903,   41.4236,   -0.1341,    1.6199,1,86678,13
0,   -2.4062,   -5.7038,    7.1389,   -5.5467,    3.5857,    8.0603,  -33.2607,  103.2322,   28.8532,   39.0000,87766.7422,    0.2171,   41.5170,   -0.5713,    1.6199,1,86791,13
0,   -3.0960,   -6.2844,    7.1181,    1.8251,   -0.1445,   -3.6933,  -33.0377,  102.9624,   28.7247,   39.0000,87763.2344,    0.5455,   41.5497,    0.5694,    1.6199,1,86904,13
0,   -2.9922,   -6.0736,    7.0129,    5.9102,    3.0200,  -10.4822,  -32.3758,  103.6974,   27.2761,   39.0000,87765.2969,    0.3525,   41.4376,    0.1727,    1.6199,1,87113,13
0,   -2.6521,   -6.4192,    7.0484,   -1.6637,   -0.3504,    1.3129,  -32.3985,  103.9787,   27.1928,   39.0000,87762.7813,    0.5879,   41.5076,    0.9897,    1.6199,1,87226,13
0,   -3.1012,   -6.1252,    7.1416,   -2.0032,    1.5482,    1.5688,  -32.3966,  104.0324,   27.3661,   39.0000,87765.7422,    0.3111,   41.5543,   -0.2176,    1.6199,1,87339,13
0,   -2.9237,   -6.1264,    6.9803,    1.5591,   11.0413,   -9.5421,  -32.2083,  105.9587,   25.6894,   39.0000,87761.9297,    0.6672,   41.4282,    0.4955,    1.6199,1,87548,13
0,   -2.4368,   -6.0608,    7.3021,   -5.2413,    1.4521,   -5.8591,  -32.6568,  106.7663,   24.9007,   39.0000,87766.2422,    0.2641,   41.5216,   -0.9008,    1.6199,1,87661,13
0,   -2.5365,   -5.2501,    7.2973,    0.3841,   -0.7494,   -3.4125,  -32.5037,  106.7548,   23.6184,   39.0000,87764.8438,    0.3950,   41.5683,   -0.2502,    1.6199,1,87774,13
0,   -3.0309,   -6.3745,    7.2231,    3.2273,   -5.4468,   -3.8861,  -32.3615,  106.2472,   23.1403,   39.0000,87763.2891,    0.5403,   41.4423,   -0.4198,    1.6199,1,87983,13
0,   -3.2634,   -6.0438,    7.2975,   -6.3330,   -2.5066,   -3.4941,  -32.8343,  105.9778,   22.9292,   39.0000,87765.6953,    0.3151,   41.5216,   -0.0590,    1.6199,1,88096,13
0,   -2.8826,   -5.8138,    7.4054,   -4.6708,   -1.7021,   -5.0198,  -33.2967,  106.1409,   21.9108,   39.0000,87763.0859,    0.5590,   41.5637,    0.2362,    1.6199,1,88209,13
0,   -3.2741,   -5.5644,    7.3998,   -2.3653,   -3.4067,    4.7185,  -34.1524,  105.3685,   23.0528,   39.0000,87760.8281,    0.7702,   41.4423,    0.1822,    1.6199,1,88418,13
0,   -3.2166,   -5.5138,    7.3929,   -1.7074,    1.4187,    0.0745,  -34.2843,  105.3955,   23.1665,   39.0000,87768.2031,    0.0814,   41.5403,   -0.7420,    1.6199,1,88531,13
0,   -3.0974,   -5.3588,    7.4537,   -2.3710,    3.2432,   12.6224,  -34.5459,  105.6483,   24.3667,   39.0000,87764.1406,    0.4605,   41.5683,   -0.5400,    1.6199,1,88644,13
0,   -2.9576,   -5.7514,    7.4654,   -1.1814,   -1.0257,   -2.9983,  -34.7337,  105.7645,   23.7543,   39.0000,87765.8516,    0.3010,   41.4469,   -0.7169,    1.6199,1,88853,13
0,   -2.7305,   -5.2173,    7.5321,   -2.7759,   -3.3572,    3.5595,  -35.0714,  105.5432,   23.6300,   39.0000,87765.4922,    0.3343,   41.5403,    0.6101,    1.6199,1,88966,13
0,   -3.0344,   -5.5111,    7.5288,   -1.3209,    3.5299,   -3.6858,  -35.0848,  105.7977,   23.0493,   39.0000,87766.1953,    0.2686,   41.5730,   -0.2182,    1.6199,1,89079,13
0,   -2.7079,   -5.4449,    7.5639,    1.4073,   -2.4816,    5.5632,  -35.1035,  105.5122,   23.8335,   39.0000,87762.1875,    0.6429,   41.4609,    0.2636,    1.6199,1,89288,13
0,   -2.8629,   -5.4912,    7.5931,    0.1539,    1.9920,    3.8563,  -35.0865,  105.6453,   23.6626,   39.0000,87764.6406,    0.4136,   41.5497,   -0.3204,    1.6199,1,89401,13
0,   -2.7237,   -5.3222,    7.5876,   -0.0208,   -0.0286,   -4.5605,  -35.3725,  105.8030,   23.7995,   39.0000,87762.6328,    0.6015,   41.5824,    0.2196,    1.6199,1,89514,13
0,   -2.7884,   -5.1608,    7.5497,   -1.4924,   -0.3455,   12.2953,  -35.5459,  105.5576,   25.8124,   39.0000,87762.2344,    0.6389,   41.4656,   -0.0137,    1.6199,1,89723,13
0,   -3.1182,   -5.6293,    7.5777,    6.8585,   -2.4568,   10.9770,  -35.1245,  105.3857,   27.9129,   39.0000,87766.2969,    0.2591,   41.5590,   -0.0122,    1.6199,1,89836,13
0,   -2.3021,   -6.0228,    7.6021,   -1.5298,    3.8013,   -2.9878,  -34.6598,  105.8684,   27.7299,   39.0000,87763.6406,    0.5075,   41.5917,   -0.0050,    1.6199,1,89949,13
0,   -2.3917,   -6.4366,    8.7632,  -16.8631,    0.8854,   38.3323,  -37.4469,  105.8624,   33.9716,   39.0000,87765.0469,    0.3762,   41.4843,   -0.3341,    1.6199,1,90158,13
0,   -1.6573,   -4.8687,    7.1313,  -61.1645,   -5.9212,   58.1736,  -42.9471,  105.5723,   40.9638,   39.0000,87762.9375,    0.5727,   41.5543,    0.5152,    1.6199,1,90271,13
0,   -1.2613,   -4.3828,    9.1212,  -75.1773,   -1.8412,   71.5036,  -51.3385,  105.2680,   48.9215,   39.0000,87764.4453,    0.4317,   41.5917,   -0.1120,    1.6199,1,90384,13
0,   -1.3651,   -2.3968,    7.1800,  -48.5673,    3.7892,   50.9465,  -62.9629,  105.7434,   60.5686,   39.0000,87763.8906,    0.4838,   41.4749,    0.0912,    1.6199,1,90593,13
0,    0.7571,   -3.6867,   15.1535,  -23.5568,    3.2498,   31.1920,  -66.4834,  106.3715,   64.2438,   39.0000,87766.3984,    0.2494,   41.5637,   -0.5897,    1.6199,1,90706,13
0,   -0.5383,   -0.9357,    9.7675,  -15.0337,   -2.9178,   25.8832,  -68.4009,  106.3844,   66.6554,   39.0000,87764.7422,    0.4045,   41.5964,   -0.1901,    1.6199,1,90819,13
0,    0.5364,   -1.8026,    9.6447,    3.3734,    3.5587,    3.3038,  -68.3484,  106.9930,   68.3510,   39.0000,87763.0859,    0.5590,   41.4983,   -0.1405,    1.6199,1,91028,13
0,    0.4208,   -1.8982,    9.8400,   -1.2020,    0.6009,    3.4870,  -68.2319,  107.1067,   67.2376,   39.0000,87764.2891,    0.4470,   41.5730,    0.1674,    1.6199,1,91141,13
0,    0.2069,   -1.6620,    9.5934,   -5.2042,    5.5739,   -1.9506,  -68.8359,  107.5186,   67.0729,   39.0000,87764.5469,    0.4227,   41.5964,   -0.1448,    1.6199,1,91254,13
0,    0.3559,   -1.3835,    9.6421,   -1.7102,    3.2505,    2.8840,  -69.2920,  108.1680,   66.9142,   39.0000,87762.2891,    0.6337,   41.4890,    0.1563,    1.6199,1,91463,13
0,    0.1743,   -1.5550,    9.6850,   -4.1277,   -0.3261,   -0.9435,  -69.6139,  108.0954,   67.2360,   39.0000,87769.8594,   -0.0744,   41.5824,   -1.1257,    1.6199,1,91576,13
0,   -0.0389,   -1.8504,    9.6498,    3.4031,    1.3763,   -6.6423,  -69.4546,  108.0141,   67.4496,   39.0000,87763.3359,    0.5358,   41.6057,    0.1517,    1.6199,1,91689,13
0,    0.0860,   -1.3495,    9.7616,   -4.3842,    2.4602,  -13.2046,  -70.2973,  108.7013,   64.1159,   39.0000,87762.0859,    0.6530,   41.4983,   -0.1830,    1.6199,1,91898,13
0,    0.4016,   -0.8371,    9.7533,   -1.7691,   -2.3031,   -7.7110,  -70.7798,  108.5811,   63.0272,   39.0000,87766.6016,    0.2308,   41.5870,    0.4661,    1.6199,1,92011,13
0,    0.0225,   -1.4359,    9.7077,   -1.1790,   -0.8211,   -5.4990,  -70.8052,  108.3068,   62.6700,   39.0000,87760.9297,    0.7606,   41.6104,    0.4097,    1.6199,1,92124,13
0,    0.2755,   -1.0335,    9.5946,    4.6423,    5.5744,   -1.4522,  -70.1519,  109.0652,   62.4754,   39.1250,87760.5313,    0.7985,   41.5030,    0.2071,    1.6199,1,92333,13
0,    0.3960,   -1.2603,    9.8916,   16.7480,    5.9899,  112.4308,  -68.4158,  109.9082,   71.8007,   39.1250,87760.8281,    0.7702,   41.5870,    1.0596,    1.6199,1,92446,13
0,    0.9360,   -1.8467,    9.6019,   -6.2467,   -2.4558,  -13.0893,  -68.8287,  110.0054,   68.0975,   39.1250,87764.3438,    0.4418,   41.6197,   -0.5654,    1.6199,1,92559,13
0,    0.0138,   -1.3446,    9.7144,   -4.9104,   -3.6157,  -29.4121,  -70.1187,  108.9023,   62.3089,   39.1250,87762.7344,    0.5925,   41.5123,   -0.2669,    1.6199,1,92768,13
0,    0.0202,   -1.3417,    9.6741,   -6.2350,    0.6903,   -6.2189,  -70.9496,  109.1966,   59.3611,   39.1250,87766.8047,    0.2115,   41.5964,   -0.9940,    1.6199,1,92881,13
0,   -0.1559,   -0.5635,    9.7716,  -15.9433,   -3.6733,    2.1295,  -72.3070,  108.9451,   59.6952,   39.1250,87764.0938,    0.4651,   41.6244,   -0.1820,    1.6199,1,92994,13
0,   -0.2871,   -0.8824,    9.6764,   -6.5296,   -7.2657,   21.2346,  -74.0720,  107.6232,   64.1030,   39.1250,87759.4766,    0.8964,   41.5123,   -0.1636,    1.6199,1,93203,13
0,   -0.4369,   -0.4939,    9.7200,   -9.7413,    4.7372,    0.9733,  -75.1289,  107.9589,   64.4544,   39.1250,87761.5781,    0.7000,   41.6057,    0.1683,    1.6199,1,93316,13
0,    0.3940,    0.0089,    9.8757,  -16.1395,    9.3190,    2.8265,  -76.5667,  108.9365,   64.0024,   39.1250,87762.9922,    0.5676,   41.6384,   -0.3111,    1.6199,1,93429,13
0,    0.2524,    0.5815,    9.6907,   -4.8177,   -0.6720,   -6.5679,  -78.4933,  109.1351,   62.5954,   39.1250,87762.8906,    0.5777,   41.5123,   -0.5223,    1.6199,1,93638,13
0,   -0.0414,    0.4612,    9.7420,    6.8448,   -7.2491,  -16.2972,  -78.1291,  108.4041,   61.5078,   39.1250,87766.7500,    0.2166,   41.5964,   -0.9984,    1.6199,1,93751,13
0,   -0.6762,    0.0811,    9.6457,    8.1943,   -9.8064,  -10.9415,  -77.1587,  107.4116,   60.7315,   39.1250,87764.2969,    0.4463,   41.6337,   -0.4699,    1.6199,1,93864,13
0,   -0.3112,   -0.0179,    9.8402,    2.8891,    4.8363,   -0.0123,  -76.1791,  108.3602,   60.5154,   39.1250,87765.9531,    0.2913,   41.5263,   -0.3161,    1.6199,1,94073,13
0,   -0.3240,   -0.3229,    9.7041,    9.5269,   -3.0679,   23.2359,  -75.3639,  108.1742,   62.5864,   39.1250,87763.8438,    0.4883,   41.6057,    0.7688,    1.6199,1,94186,13
0,   -0.0543,   -1.0466,    9.7386,    5.7662,    4.0479,  -11.6192,  -74.6837,  108.4888,   62.0734,   39.1250,87765.2500,    0.3564,   41.6477,    0.1522,    1.6199,1,94299,13
0,   -0.3180,    0.1060,    9.7463,    2.9528,   -3.5458,    4.4950,  -74.4272,  108.0641,   62.2023,   39.1250,87763.2891,    0.5403,   41.5310,    0.3923,    1.6199,1,94508,13
0,   -0.2596,   -0.6067,    9.7040,    9.2053,   -1.0447,   -9.9168,  -73.3701,  107.9737,   60.9780,   39.1250,87765.3984,    0.3428,   41.6150,   -0.2008,    1.6199,1,94621,13
0,   -0.2453,   -0.6596,    9.7197,    1.4819,   -2.3759,    1.6470,  -72.7858,  107.6767,   60.9374,   39.1250,87763.7891,    0.4933,   41.6571,    0.4779,    1.6199,1,94734,13
0,   -0.4364,   -0.5641,    9.6004,    9.2028,   -9.5696,   29.3745,  -71.4376,  106.1577,   65.1562,   39.1250,87764.2969,    0.4463,   41.5357,    0.1161,    1.6199,1,94943,13
0,   -0.9790,   -0.9111,    9.6904,   11.8655,   -2.4514,    9.5462,  -69.9140,  105.5164,   65.8364,   39.1250,87766.0469,    0.2823,   41.6197,   -0.0832,    1.6199,1,95056,13
0,   -0.9514,   -1.3354,    9.6539,    1.7563,    0.5494,   11.3927,  -69.3520,  105.4524,   67.5078,   39.1250,87765.0000,    0.3802,   41.6524,   -0.4158,    1.6199,1,95169,13
0,   -0.7891,   -1.1385,    9.6935,    2.8882,    3.2564,  -20.0179,  -68.9651,  106.0037,   65.4384,   39.1250,87762.1875,    0.6429,   41.5403,    0.0114,    1.6199,1,95378,13
0,   -0.5876,   -1.5825,    9.5973,    5.2433,    4.3480,  -79.7308,  -68.5532,  106.4796,   58.5627,   39.1250,87765.1953,    0.3615,   41.6244,   -0.0049,    1.6199,1,95491,13
0,    0.0259,   -0.2103,    9.7423,    1.9257,    5.3440,   11.5230,  -67.9369,  107.3472,   49.2180,   39.1250,87764.8438,    0.3950,   41.6617,   -0.0059,    1.6199,1,95604,13
0,   -0.7844,   -0.9536,    9.6516,  -16.3818,    2.0861,   -4.3447,  -70.1704,  108.1959,   48.1644,   39.1250,87761.9375,    0.6666,   41.5450,   -0.3777,    1.6199,1,95813,13
0,    0.0864,   -0.2681,    9.6834,   -6.3948,    0.1931,   -8.9725,  -71.4120,  108.5077,   46.3022,   39.1250,87766.5000,    0.2404,   41.6291,   -0.5745,    1.6199,1,95926,13
0,   -0.4177,   -0.4699,    9.7272,   -2.6242,   -6.8437,  -12.6200,  -71.7073,  107.9952,   45.0861,   39.2500,87763.7422,    0.4974,   41.6664,   -0.2215,    1.6199,1,96039,13
0,   -0.6307,   -0.2119,    9.6533,   -3.0443,   -7.2839,  -11.5028,  -72.2321,  106.6578,   43.3345,   39.2500,87765.6484,    0.3196,   41.5590,   -0.4353,    1.6199,1,96248,13
0,   -0.6114,   -0.2285,    9.6988,    3.5959,   -8.2332,  -12.8430,  -72.1124,  106.0161,   41.9943,   39.2500,87766.2500,    0.2636,   41.6477,   -0.0423,    1.6199,1,96361,13
0,   -1.3224,   -0.1778,    9.5933,   -4.4921,   -5.6193,    2.4637,  -72.4664,  105.0998,   42.1265,   39.2500,87766.8047,    0.2115,   41.6711,   -0.6778,    1.6199,1,96474,13
0,   -1.0623,   -0.1402,    9.6768,    1.6733,    0.4200,    0.0887,  -72.5667,  105.0100,   42.2192,   39.2500,87763.3359,    0.5358,   41.5590,    0.1348,    1.6199,1,96683,13
0,   -1.2104,   -0.2575,    9.5956,   -2.1797,    2.8816,   18.6079,  -72.7822,  105.2168,   43.8054,   39.2500,87764.5469,    0.4227,   41.6477,    0.1180,    1.6199,1,96796,13
0,   -1.2010,   -0.1882,    9.6994,   -0.3457,    4.7813,   -1.1586,  -72.9387,  105.6778,   44.4117,   39.2500,87762.5859,    0.6060,   41.6757,    0.8420,    1.6199,1,96909,13
0,   -0.3867,   -0.0951,    9.7118,    5.1561,   -0.0399,  -82.1936,  -72.1077,  106.1946,   30.9177,   39.2500,87760.5313,    0.7985,   41.5683,    0.3090,    1.6199,1,97118,13
0,   -1.4437,   -0.5523,    9.7200,   -4.8550,    4.5690,  -53.5841,  -72.1221,  106.4057,   25.5105,   39.2500,87761.5859,    0.6994,   41.6477,    0.5372,    1.6199,1,97231,13
0,   -0.9860,    0.2379,    9.6435,  -14.4073,   11.8308,    6.0200,  -73.3912,  107.3849,   24.5226,   39.1250,87763.8906,    0.4838,   41.6851,   -0.2652,    1.6199,1,97344,13
0,    1.2860,    6.3537,    9.2842,  -12.5020,   15.6658,    0.8579,  -76.3435,  110.5671,   26.5723,   39.1250,87764.0391,    0.4702,   41.5683,   -0.2673,    1.6199,1,97553,13
0,    0.4055,    0.3259,    9.7180,    6.6923,   14.8838,    4.9689,  -75.3359,  112.4271,   26.8270,   39.1250,87764.8438,    0.3950,   41.6524,   -0.3555,    1.6199,1,97666,13
0,    0.4203,    0.2646,    9.8320,    3.3965,   14.6196,    8.2914,  -74.8421,  114.1984,   27.7088,   39.1250,87763.5938,    0.5120,   41.6991,    0.1639,    1.6199,1,97779,13
0,    0.6115,    0.1818,    9.7825,    3.7823,    1.5404,    3.4502,  -74.4028,  115.3018,   28.8103,   39.1250,87761.9844,    0.6620,   41.5637,    0.3292,    1.6199,1,97988,13
0,    1.8576,   -0.7997,    9.7195,   -0.3849,    5.9752,   11.3305,  -74.5235,  115.7400,   29.2863,   39.1250,87764.3906,    0.4373,   41.6617,    0.1373,    1.6199,1,98101,13
0,    0.7163,    0.7512,    9.7653,    0.6206,    0.5970,    7.7300,  -74.5611,  115.6460,   32.1527,   39.1250,87763.3906,    0.5307,   41.6991,    0.1427,    1.6199,1,98214,13
0,    0.6129,    0.5204,    9.7187,   -2.6981,    1.5650,    1.9944,  -74.9464,  116.0198,   32.3085,   39.1250,87764.0938,    0.4651,   41.5777,   -0.0298,    1.6199,1,98423,13
0,    0.9618,    0.6762,    9.7473,   -0.5596,    0.0988,   -1.5810,  -75.1569,  116.1162,   32.2427,   39.1250,87764.0938,    0.4651,   41.6711,    0.3963,    1.6199,1,98536,13
0,    1.0152,    0.8542,    9.6902,   -1.3768,   -1.5723,    0.5670,  -75.2328,  115.9987,   32.1620,   39.2500,87764.6953,    0.4085,   41.7131,    0.0629,    1.6199,1,98649,13
0,    0.6550,    0.8043,    9.7527,   -0.6477,   -0.7491,    2.9188,  -75.2512,  115.6866,   32.7408,   39.2500,87765.1484,    0.3666,   41.5870,    0.2521,    1.6199,1,98858,13
0,    0.7023,    0.7911,    9.6968,    0.7816,   -3.5925,   -0.2803,  -75.2164,  115.5306,   32.7658,   39.2500,87765.7969,    0.3060,   41.6804,    0.0306,    1.6199,1,98971,13
0,    0.6000,    0.6914,    9.7361,   -0.1305,   -0.4665,    0.0868,  -75.3813,  115.4394,   32.8565,   39.2500,87765.2969,    0.3525,   41.7178,    0.2520,    1.6199,1,99084,13
0,    0.7089,    0.7641,    9.7242,    3.1306,    0.0956,    0.4787,  -74.7949,  115.4955,   32.9026,   39.2500,87762.4375,    0.6196,   41.6010,    0.0685,    1.6199,1,99293,13
0,    0.6616,    0.7375,    9.7508,    0.2200,   -0.3260,    1.3688,  -74.7636,  115.3363,   33.0711,   39.2500,87765.5469,    0.3293,   41.6804,   -0.3094,    1.6199,1,99406,13
0,    0.6956,    0.7615,    9.7414,   -0.1959,    1.1505,    0.5903,  -74.8320,  115.3348,   33.3065,   39.2500,87762.0313,    0.6581,   41.7178,    0.1696,    1.6199,1,99519,13
0,    0.7349,    0.7108,    9.7137,    4.1187,   -1.7278,    0.1846,  -74.0481,  115.1483,   33.3330,   39.2500,87762.5859,    0.6060,   41.6010,   -0.0198,    1.6199,1,99728,13
