index, checksum,uptime mp,uptime nav,  errorflag mp,errorflag NAV,  accel x, accel y, accel z, accelworld x, accelworld y, accelworld z, accelhighg x, accelhighg y, accelhighg z, gyro x, gyro y, gyro z, euler x, euler y, euler z, quat w, quat x, quat y, quat z, altitude, presusre, verticalvel,filtered vvel, maxalt, altitudeagl, filtered alt, imutemp, barotemp,state,battstate,pyros fired,checksum2
927, 101,0,4594,1,1,0.000889,-0.083612,10.015338,0.028396,0.035523,0.214584,-0.671822,-1.839317,4.918118,-0.474281,0.712448,-0.256410,89.318473,179.831682,178.687502,0.702830,-0.711264,-0.007114,-0.009095,657.223877,94267.437500,-0.314974,0.539714,0.517395,0.301941,0.349712,8.375000,12.119133,0,5.380000,8, 202
928, 101,4759,6336,1,1,-0.101746,-0.126369,10.010794,-0.114481,-0.003969,0.210453,-1.152348,-0.878266,3.957067,-0.389968,0.599016,-0.166268,89.321403,-179.953327,177.891771,0.702793,-0.711156,-0.013372,-0.012642,657.244446,94264.960938,-0.505304,0.067283,0.517395,0.322510,0.292785,8.625000,12.200937,0,5.380000,0, 202
929, 101,8460,8450,1,1,-0.044673,-0.123658,10.014231,-0.046204,-0.008868,0.213983,-2.113400,-3.280895,4.437593,-0.260835,-1.119184,-0.424881,89.355158,179.977998,177.488094,0.702945,-0.710907,-0.015451,-0.015548,657.403748,94261.328125,0.420015,-0.009624,0.537292,0.481812,0.293877,8.625000,12.246384,0,5.380000,0, 202
930, 101,10555,10520,1,1,-0.080790,-0.113584,10.015747,-0.080857,-0.005390,0.215389,-0.671822,-0.878266,3.476542,0.008187,0.266896,-0.645412,89.408904,179.963573,176.684959,0.703149,-0.710454,-0.020335,-0.020573,656.977173,94271.359375,-0.511982,-0.185131,0.537292,0.055237,0.212110,8.750000,12.328186,0,5.380000,0, 202
931, 101,12656,12643,1,1,-0.076035,-0.126560,10.019235,0.021815,-0.030117,0.219253,-1.152348,-0.397740,4.918118,-0.225249,0.232220,-0.990134,89.479460,179.392692,176.137151,0.702416,-0.710954,-0.020944,-0.026769,657.089661,94266.843750,-0.320716,-0.032881,0.537292,0.167725,0.140640,8.750000,12.391809,0,5.380000,0, 202
932, 101,14835,14829,1,1,-0.040059,-0.099652,10.016689,0.009010,0.024187,0.216232,-0.671822,-2.800369,3.476542,-0.448409,-0.594092,-0.324428,89.312797,179.672525,175.209269,0.702936,-0.710019,-0.027977,-0.031153,656.972046,94269.156250,-0.264423,-0.138616,0.537292,0.050110,0.121034,8.875000,12.473608,0,5.380000,0, 202
933, 101,16939,16916,1,1,-0.045317,-0.123589,10.005558,0.016912,-0.014245,0.205399,0.289230,-1.358791,3.957067,-0.089689,-1.001327,0.081339,89.401056,179.579033,174.670285,0.702514,-0.710140,-0.030466,-0.035312,656.821716,94273.304688,-0.227518,0.054435,0.537292,-0.100220,0.006976,8.875000,12.537229,0,5.380000,0, 202
934, 101,19041,19038,1,1,-0.093040,-0.112059,10.021841,-0.092551,0.018564,0.221455,-0.671822,-1.839317,3.476542,0.211244,-0.563210,0.189493,89.312626,179.932892,173.974877,0.701859,-0.710374,-0.036973,-0.037354,656.921997,94269.789062,-0.468908,0.042256,0.537292,0.000061,0.010200,9.000000,12.609937,0,5.380000,0, 202
935, 101,21148,21115,1,1,0.007602,-0.132982,10.021217,0.105271,-0.031709,0.220499,-0.671822,-3.280895,4.437593,0.082654,0.097452,-0.532192,89.421035,179.353555,173.374749,0.702107,-0.709701,-0.037103,-0.044654,656.929443,94267.140625,-0.381311,0.211343,0.537292,0.007507,-0.022755,9.000000,12.664468,0,5.380000,0, 202
936, 101,23265,23248,1,1,-0.027864,-0.078949,10.012265,-0.009055,0.041331,0.211526,-3.074451,-1.839317,3.476542,-0.276527,-0.250642,-0.381083,89.335398,179.836709,172.761466,0.702826,-0.708553,-0.043522,-0.045756,656.723022,94273.250000,-0.273934,-0.121637,0.537292,-0.198914,-0.059178,9.000000,12.737174,0,5.380000,0, 202
937, 101,25386,25385,1,1,-0.033041,-0.149216,10.010231,0.004186,-0.041622,0.210310,-1.632874,-2.319843,4.918118,0.469511,-1.384600,-0.421919,89.417415,179.673727,172.267835,0.700444,-0.710510,-0.046145,-0.049234,657.040100,94266.757812,-0.130228,0.010858,0.537292,0.118164,0.054101,9.000000,12.796247,0,5.380000,0, 202
938, 101,27512,27483,1,1,-0.086481,-0.142988,10.016182,-0.056411,-0.003913,0.216416,-0.191296,-2.319843,3.957067,0.068106,-1.403999,-0.071082,89.285387,179.714025,171.615975,0.700672,-0.709725,-0.050261,-0.053136,657.002991,94270.914062,0.672066,0.156448,0.537292,0.081055,0.014120,9.000000,12.864407,0,5.380000,0, 202
939, 101,29644,29624,1,1,-0.055626,-0.092819,10.022780,0.006109,0.030346,0.222317,-0.671822,-1.839317,3.957067,-0.150946,-0.412332,-0.409114,89.351824,179.568487,171.058604,0.701724,-0.708163,-0.052906,-0.057355,656.818726,94274.117188,-0.460914,-0.145987,0.537292,-0.103210,0.027542,9.125000,12.937109,0,5.380000,0, 202
940, 101,31856,31819,1,1,-0.028571,-0.103802,10.010625,0.029837,0.010648,0.210154,-1.152348,-2.800369,4.918118,0.097723,0.538372,-0.778265,89.380142,179.569812,170.492245,0.700626,-0.708690,-0.056287,-0.060943,656.716309,94277.273438,-0.295059,-0.121690,0.537292,-0.205627,-0.024231,9.250000,13.000724,0,5.380000,0, 202
941, 101,33987,33966,1,1,-0.042122,-0.125853,10.025382,0.001620,0.014062,0.225250,-1.152348,-3.280895,5.398644,-0.376707,0.957498,-0.446824,89.254644,179.626038,169.764871,0.699933,-0.708609,-0.061209,-0.064963,656.747986,94272.695312,-0.432507,-0.088800,0.537292,-0.173950,-0.135572,9.250000,13.059793,0,5.380000,0, 202
942, 101,36126,36113,1,1,-0.055119,-0.114633,10.016033,-0.010097,-0.000729,0.215836,-0.191296,-2.319843,3.476542,0.094755,-0.321860,-0.035733,89.419532,179.624659,169.150168,0.700086,-0.707763,-0.064575,-0.069144,656.733521,94273.937500,-0.119899,-0.085723,0.537292,-0.188416,-0.153682,9.250000,13.127949,0,5.380000,0, 202
943, 101,38269,38262,1,1,-0.036493,-0.126638,10.013240,-0.001932,-0.006704,0.213105,0.289230,-3.280895,4.918118,-0.126074,0.053714,-0.151720,89.368210,179.665326,168.786897,0.699408,-0.708008,-0.067377,-0.070807,657.124329,94271.296875,0.510439,0.272321,0.537292,0.202393,0.152878,9.500000,13.191560,0,5.380000,0, 202
944, 101,40425,40423,1,1,-0.036523,-0.106475,10.008616,-0.006722,0.002002,0.208247,-0.191296,-1.839317,4.437593,0.091062,0.027349,-1.144067,89.436867,179.705501,167.819701,0.699497,-0.706712,-0.073368,-0.076683,657.201599,94273.515625,-0.600741,0.120260,0.614746,0.279663,0.385417,9.500000,13.264257,0,5.380000,0, 202
945, 101,42627,42615,1,1,-0.040583,-0.105670,10.005873,-0.003052,-0.000319,0.205513,-1.152348,0.082786,4.437593,-0.418867,-0.396955,0.115259,89.463785,179.656064,167.120959,0.699086,-0.706180,-0.077480,-0.081146,657.384521,94264.062500,0.118848,-0.081535,0.734802,0.462585,0.481050,9.500000,13.314237,0,5.380000,0, 202
946, 101,44704,44684,1,1,-0.057345,-0.129715,10.016079,-0.013228,-0.005434,0.216073,-1.632874,-2.800369,3.957067,-0.201233,1.046156,-0.097931,89.384281,179.586014,166.723866,0.698281,-0.706419,-0.079653,-0.083850,657.546265,94262.390625,-0.124994,0.063393,0.734802,0.624329,0.559370,9.500000,13.382389,0,5.380000,0, 202
947, 101,46790,46751,1,1,-0.058349,-0.119207,10.017370,-0.018561,-0.011787,0.217225,0.289230,-4.241947,4.918118,0.169873,0.463162,-0.540527,89.484187,179.620301,166.286529,0.698597,-0.705477,-0.082482,-0.086375,657.670837,94261.625000,0.468253,0.024392,0.842529,0.748901,0.605394,9.625000,13.436910,0,5.380000,0, 202
948, 101,48954,48925,1,1,-0.080606,-0.104193,10.022094,-0.021758,-0.028645,0.221895,-0.191296,-1.358791,3.957067,0.109210,0.509720,0.246510,89.695977,179.534200,166.127317,0.699713,-0.704132,-0.082775,-0.088028,657.811462,94265.757812,0.692584,0.515171,1.210754,0.889526,0.923616,9.625000,13.509604,0,5.380000,0, 202
949, 101,51044,51032,1,1,-0.061612,-0.146130,10.009706,-0.027555,-0.028420,0.209883,-0.191296,-2.800369,5.398644,0.865619,-0.284107,-0.766000,89.440412,179.607925,165.584262,0.697776,-0.705234,-0.086764,-0.090697,657.594482,94265.070312,-0.238666,-0.080150,1.210754,0.672546,0.760807,9.750000,13.586839,0,5.380000,0, 202
950, 101,53131,53106,1,1,-0.033634,-0.138473,10.033031,0.011789,-0.013137,0.233028,-1.152348,-0.397740,3.476542,0.082901,-0.335251,-0.158927,89.361523,179.541440,164.915669,0.696694,-0.705248,-0.090537,-0.095113,657.509766,94260.453125,0.000956,-0.258503,1.210754,0.587830,0.525384,9.750000,13.645900,0,5.380000,0, 202
951, 101,55232,55230,1,1,-0.052693,-0.100295,10.013543,-0.011542,0.037304,0.213108,-1.152348,-0.397740,5.398644,0.223371,-0.610092,-0.836777,89.317141,179.619003,164.116906,0.695809,-0.704805,-0.095961,-0.099454,657.362732,94263.523438,-0.027778,0.016869,1.210754,0.440796,0.411611,9.875000,13.695875,0,5.380000,0, 202
952, 101,57334,57317,1,1,-0.039386,-0.106302,10.020981,-0.004488,0.007509,0.220618,-0.671822,-0.878266,4.437593,-0.231385,-0.595550,0.885213,89.437980,179.637541,163.545874,0.696064,-0.703569,-0.099476,-0.102911,657.171692,94269.585938,-0.503494,0.024000,1.210754,0.249756,0.370369,9.875000,13.773108,0,5.380000,0, 202
953, 101,59443,59400,1,1,-0.039920,-0.129901,10.013432,0.010701,-0.023456,0.213320,-0.671822,-1.358791,3.476542,0.299094,1.367562,0.178482,89.489289,179.504420,163.124274,0.695871,-0.703003,-0.101208,-0.106333,657.317627,94266.859375,0.021388,0.084016,1.210754,0.395691,0.433123,10.000000,13.823080,0,5.380000,0, 202
954, 101,61554,61522,1,1,-0.063779,-0.111204,10.012757,-0.011565,0.038291,0.212498,-0.671822,-1.358791,4.437593,-0.443289,-1.166853,-0.474697,89.283482,179.527055,162.532903,0.694072,-0.703699,-0.105169,-0.109595,657.463867,94260.304688,0.580742,-0.124492,1.210754,0.541931,0.360983,10.000000,13.886682,0,5.380000,0, 202
955, 101,63674,63658,1,1,-0.041907,-0.104673,10.013616,0.006901,0.046676,0.213139,-0.191296,-1.839317,4.918118,0.103801,-0.293177,-1.148073,89.234181,179.551371,162.457894,0.695230,-0.702417,-0.105812,-0.109861,657.037292,94271.132812,-0.104165,-0.144542,1.210754,0.115356,0.183457,10.000000,13.945739,0,5.380000,0, 202
956, 101,65875,65856,1,1,-0.042706,-0.123075,10.017537,-0.017702,0.006300,0.217367,-0.671822,-2.319843,3.957067,0.381828,0.224580,0.350978,89.370717,179.650477,161.909457,0.694124,-0.702472,-0.109658,-0.112697,657.436768,94263.601562,0.097327,0.100822,1.210754,0.514832,0.547143,10.125000,14.009338,0,5.380000,0, 202
957, 101,67995,67992,1,1,-0.031342,-0.147639,10.016869,-0.017260,-0.025365,0.216959,-1.632874,-1.358791,4.918118,-0.075303,0.250355,-0.329346,89.403413,179.656979,161.208010,0.692737,-0.702461,-0.113551,-0.117344,657.318298,94265.734375,-0.419517,-0.251606,1.210754,0.396362,0.533344,10.125000,14.072937,0,5.380000,0, 202
958, 101,70118,70089,1,1,-0.045128,-0.122874,10.017300,-0.008414,0.006422,0.217149,-0.671822,-0.878266,4.918118,-0.660612,-0.637848,0.440596,89.387014,179.570181,160.496086,0.692695,-0.701049,-0.117810,-0.121757,657.493713,94265.906250,0.139570,0.087495,1.210754,0.571777,0.709913,10.250000,14.127450,0,5.380000,0, 202
959, 101,72252,72222,1,1,-0.017626,-0.127909,10.015252,-0.009101,0.009746,0.215075,-0.191296,-2.319843,3.476542,0.220008,-0.195850,0.696817,89.291357,179.706676,159.967607,0.691691,-0.700933,-0.121971,-0.124015,657.235962,94264.187500,-0.270867,-0.251002,1.210754,0.314026,0.342535,10.250000,14.200132,0,5.380000,0, 202
960, 101,74394,74367,1,1,-0.007170,-0.120094,10.016380,0.041766,-0.001017,0.216016,-0.191296,-0.878266,3.957067,-0.499028,0.694311,-0.328739,89.377240,179.481006,159.400387,0.691547,-0.699843,-0.125299,-0.127605,657.251465,94268.257812,0.086257,-0.000195,1.210754,0.329529,0.341580,10.250000,14.268270,0,5.380000,0, 202
961, 101,76537,76518,1,1,-0.017404,-0.135073,10.010436,0.000486,-0.027923,0.210323,-0.671822,-2.800369,4.918118,0.115416,-0.709185,0.293535,89.475225,179.624536,158.779919,0.690521,-0.699478,-0.128703,-0.131708,657.278076,94267.460938,0.061968,-0.085712,1.210754,0.356140,0.361441,10.500000,14.327323,0,5.380000,0, 202
962, 101,78686,78672,1,1,-0.033774,-0.098954,10.020306,-0.021437,0.031752,0.219778,-0.671822,-1.839317,4.918118,0.273546,-0.393852,-0.223406,89.363565,179.734638,158.388303,0.691256,-0.697860,-0.130841,-0.134300,657.317444,94262.796875,-0.230876,-0.007170,1.210754,0.395508,0.365042,10.375000,14.386374,0,5.380000,0, 202
963, 101,80840,80831,1,1,-0.039460,-0.133356,10.019585,0.008603,-0.025804,0.219513,-0.671822,-1.839317,3.957067,1.649595,0.254051,0.739236,89.525632,179.455229,157.934410,0.689750,-0.698286,-0.133021,-0.137649,657.308594,94264.882812,-0.250339,-0.023856,1.210754,0.386658,0.405774,10.500000,14.440884,0,5.380000,0, 202
964, 101,83072,83040,1,1,-0.065284,-0.116741,10.023028,-0.024481,0.032970,0.222837,-0.671822,-1.358791,4.437593,-0.341357,0.137552,-0.985914,89.340329,179.537861,157.264163,0.688661,-0.697767,-0.137396,-0.141383,657.207397,94269.890625,0.233734,-0.327647,1.210754,0.285461,0.297570,10.625000,14.504476,0,5.380000,0, 202
965, 101,85278,85248,1,1,-0.052551,-0.100260,10.020597,0.016901,-0.003466,0.220222,0.289230,-1.358791,4.437593,0.164864,-0.260670,0.117166,89.611932,179.400847,156.727693,0.689467,-0.695650,-0.139492,-0.145768,657.528564,94258.414062,0.204431,0.045924,1.210754,0.606628,0.380198,10.625000,14.554440,0,5.380000,0, 202
966, 101,87359,87357,1,1,-0.072292,-0.160499,10.029313,-0.053983,-0.027692,0.229674,0.289230,-2.319843,5.879170,0.924197,-0.092911,-0.323844,89.482172,179.563979,156.492830,0.687369,-0.697139,-0.140561,-0.147523,657.494568,94262.437500,0.403541,0.131011,1.210754,0.572632,0.456595,10.625000,14.613489,0,5.380000,0, 202
967, 101,89442,89428,1,1,-0.023400,-0.106698,10.003658,0.034081,-0.000775,0.203197,-1.632874,2.004889,4.437593,-0.447581,0.118375,-0.507737,89.503496,179.430039,155.570003,0.687342,-0.694818,-0.146833,-0.152411,657.438416,94261.617188,0.225552,0.014376,1.210754,0.516479,0.379773,10.625000,14.672537,0,5.380000,0, 202
968, 101,91530,91506,1,1,-0.065987,-0.117032,10.015952,0.018771,-0.005758,0.215834,-0.191296,-1.358791,4.918118,-1.256917,1.150887,-0.683202,89.585260,179.267959,155.044679,0.686908,-0.693858,-0.148931,-0.156646,657.270142,94268.554688,0.071945,0.121064,1.210754,0.348206,0.404642,10.875000,14.736126,0,5.380000,0, 202
969, 101,93625,93615,1,1,-0.072412,-0.110708,10.009603,-0.007817,-0.004501,0.209473,0.289230,-1.358791,4.437593,-0.806516,-0.298309,-0.279196,89.633515,179.397077,154.389664,0.686279,-0.692727,-0.153392,-0.160066,657.217712,94266.773438,-0.303965,-0.090656,1.210754,0.295776,0.307046,10.875000,14.799715,0,5.380000,0, 202
970, 101,95723,95699,1,1,-0.026152,-0.101902,10.013836,0.042762,-0.007787,0.213294,-0.671822,-1.839317,4.918118,-0.529426,-0.348965,-0.506555,89.589945,179.360822,153.442495,0.684815,-0.691552,-0.159167,-0.165682,657.334229,94261.093750,0.417700,0.012254,1.210754,0.412292,0.274525,10.875000,14.854218,0,5.380000,0, 202
971, 101,97829,97824,1,1,-0.046525,-0.150339,10.012296,-0.031230,-0.042953,0.212392,-0.671822,-1.358791,4.437593,-0.071976,-0.718150,-0.036157,89.603790,179.547204,152.669030,0.682471,-0.691664,-0.164283,-0.169842,657.085938,94268.023438,-0.596943,-0.191461,1.210754,0.164001,0.242599,10.875000,14.917805,0,5.380000,0, 202
972, 101,100014,99971,1,1,-0.050010,-0.121813,10.015806,0.002545,0.004758,0.215670,-2.113400,-2.800369,2.996016,-0.385822,-0.073503,-0.307271,89.494603,179.403456,151.729429,0.681754,-0.689600,-0.169888,-0.175504,657.217712,94264.265625,0.204268,0.063515,1.210754,0.295776,0.219948,11.000000,14.972306,0,5.380000,0, 202
973, 101,102118,102090,1,1,-0.044426,-0.118727,10.022217,0.051281,0.000268,0.221887,-0.671822,-0.397740,4.437593,-0.639347,0.280663,-0.454161,89.528801,179.154960,150.914041,0.680297,-0.688545,-0.173256,-0.181891,657.124573,94267.335938,-0.286562,0.006756,1.210754,0.202637,0.238640,11.000000,15.044975,0,5.380000,0, 202
974, 101,104231,104226,1,1,-0.026812,-0.123889,10.007161,0.009336,-0.026799,0.206924,-0.191296,-1.358791,4.437593,0.926762,-0.401527,0.147641,89.611556,179.463808,150.516032,0.679904,-0.687721,-0.177861,-0.182033,656.943970,94272.281250,-0.145195,-0.077304,1.210754,0.022034,0.073281,11.125000,15.090392,0,5.380000,0, 202
975, 101,106346,106318,1,1,-0.044317,-0.147390,10.010447,0.010560,-0.014960,0.210613,-0.671822,4.888044,2.034964,0.255864,-0.212140,-0.301551,89.484808,179.295416,149.742991,0.678372,-0.686779,-0.181190,-0.187925,657.226990,94265.578125,-0.223208,0.271182,1.210754,0.305054,0.231800,11.125000,15.131267,0,5.380000,0, 202
976, 101,108468,108454,1,1,-0.012477,-0.127425,10.029652,-0.027006,0.010748,0.229427,-0.671822,4.888044,2.996016,0.330372,-0.944723,-0.417985,89.351346,179.718328,149.005126,0.677161,-0.685605,-0.187414,-0.190458,657.242920,94267.640625,-0.479947,-0.024646,1.210754,0.320984,0.385019,11.250000,15.190308,0,5.380000,0, 202
977, 101,110597,110596,1,1,0.018219,-0.095368,9.991974,0.124069,0.011233,0.190669,0.289230,-3.761421,4.918118,-0.512128,-0.385897,-0.355894,89.414355,179.092819,148.600792,0.675696,-0.685683,-0.186947,-0.195769,657.177979,94269.703125,0.270223,0.247789,1.210754,0.256042,0.282361,11.250000,15.253890,0,5.380000,0, 202
978, 101,112729,112687,1,1,-0.111214,-0.143263,10.021927,-0.122486,0.017826,0.221804,-0.191296,-0.397740,4.437593,-0.133899,0.113148,-0.612764,89.540379,179.727071,148.005432,0.676524,-0.682905,-0.194040,-0.195714,656.984985,94270.781250,-0.491621,0.090693,1.210754,0.063049,0.125747,11.250000,15.308388,0,5.380000,0, 202
979, 101,114868,114839,1,1,-0.099424,-0.121008,10.003348,-0.041674,0.040985,0.203404,-0.671822,-1.839317,4.918118,-0.005452,-0.171787,0.518180,89.484316,179.386845,147.662939,0.675007,-0.683227,-0.194167,-0.199663,656.940491,94270.867188,-0.073883,0.111850,1.210754,0.018555,0.042432,11.375000,15.353802,0,5.380000,0, 202
980, 101,117093,117090,1,1,-0.006941,-0.092017,10.016836,0.071596,0.012390,0.215998,-0.191296,-1.839317,3.957067,0.413957,-0.085216,-0.106658,89.508871,179.271128,147.083151,0.673927,-0.682289,-0.196895,-0.203804,656.783997,94273.898438,-0.065524,-0.035222,1.210754,-0.137939,-0.098471,11.375000,15.417381,0,5.380000,0, 202
981, 101,119227,119189,1,1,-0.056461,-0.100991,10.016947,0.000517,-0.000179,0.216615,-1.152348,-0.397740,3.957067,0.209266,-0.273175,0.221280,89.697377,179.409043,146.521218,0.674290,-0.679967,-0.200712,-0.206620,656.844971,94272.062500,0.088302,0.036172,1.210754,-0.076965,-0.011148,11.375000,15.476418,0,5.380000,0, 202
982, 101,121367,121338,1,1,-0.067497,-0.128294,10.020437,-0.022599,0.012116,0.220453,-0.191296,-0.878266,5.398644,-0.156134,0.050435,-0.303314,89.540331,179.398060,145.850562,0.672118,-0.679722,-0.204912,-0.210347,656.878113,94273.132812,-0.778857,0.138808,1.210754,-0.043823,0.126154,11.375000,15.535455,0,5.380000,0, 202
983, 101,123515,123483,1,1,-0.062200,-0.102658,10.021613,-0.019500,0.054021,0.221167,-2.113400,-0.397740,2.996016,0.238829,-0.082238,-0.006081,89.412736,179.484285,145.149948,0.670226,-0.679047,-0.209808,-0.213710,657.152954,94267.382812,0.146173,0.244123,1.210754,0.231018,0.255452,11.500000,15.576326,0,5.380000,0, 202
984, 101,125718,125687,1,1,-0.000987,-0.108929,10.018656,0.095950,-0.025549,0.217756,-0.191296,2.004889,3.476542,-0.588974,-0.340040,-0.673667,89.640953,179.086699,144.699853,0.669971,-0.677610,-0.209707,-0.219104,657.328918,94267.476562,0.439468,0.033156,1.210754,0.406982,0.351218,11.625000,15.635361,0,5.380000,0, 202
985, 101,127807,127803,1,1,-0.078553,-0.182427,10.039129,-0.006313,-0.007919,0.240089,-1.152348,-0.878266,3.957067,-0.140785,0.040979,0.312762,89.467371,179.060922,143.948819,0.667141,-0.677578,-0.214219,-0.223430,657.454529,94259.796875,0.649714,0.038800,1.210754,0.532593,0.371688,11.625000,15.685313,0,5.380000,0, 202
986, 101,129896,129879,1,1,-0.024124,-0.140422,10.027936,0.055089,-0.033814,0.227740,0.289230,-1.358791,3.957067,0.152574,0.990053,0.212678,89.628283,179.099144,143.693001,0.667969,-0.675792,-0.215751,-0.224886,657.274170,94263.750000,-0.146238,-0.079631,1.210754,0.352234,0.345795,11.625000,15.730723,0,5.380000,0, 202
987, 101,131984,131950,1,1,-0.026818,-0.142970,10.011292,-0.001334,-0.042603,0.211258,-0.671822,-2.319843,4.437593,-0.872511,0.300854,0.302203,89.680158,179.395014,143.240883,0.667971,-0.674071,-0.220044,-0.225884,657.370911,94263.828125,0.473581,0.228124,1.210754,0.448975,0.313039,11.625000,15.785215,0,5.380000,0, 202
988, 101,134168,134127,1,1,-0.035243,-0.123276,10.036904,0.004407,-0.015568,0.236710,-0.191296,-1.839317,4.437593,0.094399,-1.010770,0.016100,89.651458,179.388047,142.656697,0.666628,-0.673121,-0.223494,-0.229272,657.545105,94264.875000,0.472298,0.139194,1.210754,0.623169,0.612305,11.625000,15.839707,0,5.380000,0, 202
989, 101,136261,136252,1,1,-0.020364,-0.164660,10.021356,-0.022644,-0.019271,0.221685,-0.671822,-2.319843,4.437593,-0.055857,0.689629,0.023043,89.438909,179.459300,142.098725,0.663583,-0.673924,-0.227130,-0.232155,657.445740,94263.960938,-0.163894,0.090371,1.210754,0.523804,0.529910,11.750000,15.880575,0,5.380000,0, 202
990, 101,138356,138331,1,1,-0.064374,-0.136842,10.014046,-0.038120,-0.025688,0.214082,-0.671822,-2.800369,4.918118,0.223503,-1.002279,0.359984,89.763753,179.442388,141.484541,0.665018,-0.670040,-0.230452,-0.235987,657.267761,94264.031250,-0.362463,-0.040161,1.210754,0.345825,0.414329,11.875000,15.935065,0,5.380000,0, 202
991, 101,140466,140459,1,1,-0.049514,-0.066045,10.012112,0.052175,0.068304,0.211083,-0.671822,-1.358791,3.957067,-0.284995,-0.550770,0.045164,89.493387,179.243466,141.042122,0.664719,-0.668528,-0.233283,-0.238322,656.988403,94270.906250,0.282127,-0.103677,1.210754,0.066467,0.122568,12.000000,15.998636,0,5.380000,0, 202
992, 101,142574,142548,1,1,-0.048793,-0.092841,10.004883,0.036437,-0.007416,0.204363,-0.671822,-1.839317,4.918118,-0.354364,0.236195,-0.269150,89.810321,179.237401,140.462280,0.662722,-0.668108,-0.235131,-0.243196,657.126160,94269.992188,0.399325,0.166676,1.210754,0.204224,0.181924,12.000000,16.044044,0,5.380000,0, 202
993, 101,144691,144670,1,1,-0.065261,-0.153349,10.012826,0.008202,-0.045391,0.213107,-0.191296,-2.800369,4.437593,-0.187752,1.031825,-0.546195,89.825846,179.103912,140.118285,0.661792,-0.667584,-0.236328,-0.245990,657.078308,94269.085938,0.424863,0.041900,1.210754,0.156372,0.111070,12.000000,16.098532,0,5.380000,0, 202
994, 101,146812,146807,1,1,-0.043370,-0.107605,10.003107,0.011987,-0.006109,0.202771,-1.152348,-2.319843,4.437593,-0.376965,0.670299,-0.595389,89.729520,179.341233,139.320532,0.659974,-0.666030,-0.242981,-0.248593,657.165527,94269.140625,-0.176990,-0.007811,1.210754,0.243591,0.266757,12.125000,16.143938,0,5.380000,0, 202
995, 101,148936,148904,1,1,-0.058335,-0.106165,10.014482,-0.027326,0.014701,0.214166,-1.152348,-4.241947,4.918118,-0.048423,0.335339,0.263615,89.685138,179.502849,138.237578,0.657745,-0.663562,-0.249866,-0.254214,657.146118,94271.132812,0.160250,-0.030615,1.210754,0.224182,0.305204,12.125000,16.193884,0,5.380000,0, 202
996, 101,151139,151099,1,1,-0.047110,-0.139605,10.034307,0.031819,-0.058164,0.234169,-0.671822,-1.839317,4.437593,0.434637,0.081978,-0.639414,89.921080,179.084309,137.894074,0.657400,-0.662368,-0.248912,-0.259108,657.377869,94264.390625,0.041062,0.205098,1.210754,0.455933,0.403190,12.125000,16.243830,0,5.380000,0, 202
997, 101,153270,153237,1,1,-0.035782,-0.091735,10.014752,0.041799,0.005553,0.214148,-0.671822,-2.319843,3.476542,0.231306,0.275559,0.070231,89.719254,179.255555,137.539096,0.655818,-0.662375,-0.252407,-0.259716,657.407410,94267.343750,2.057640,0.456993,1.210754,0.485474,0.340311,12.250000,16.289234,0,5.380000,0, 202
998, 101,155403,155380,1,1,-0.091234,-0.080450,9.989764,-0.016258,0.128873,0.188660,-0.671822,-1.839317,3.957067,-1.027317,0.363936,-0.435863,89.283359,179.395984,136.748529,0.655463,-0.659182,-0.256763,-0.264422,657.399231,94262.531250,-0.675564,-0.050266,1.210754,0.477295,0.452296,12.125000,16.334639,0,5.380000,0, 202
999, 101,157538,157528,1,1,-0.071124,-0.173185,10.030499,-0.046339,-0.041945,0.231052,-1.632874,-0.397740,4.437593,-0.328764,1.028779,-0.400862,89.803539,179.288272,136.392061,0.651951,-0.661027,-0.258146,-0.267142,657.153381,94269.375000,-0.596518,-0.272388,1.210754,0.231445,0.312894,12.250000,16.380043,0,5.380000,0, 202
1000, 101,159680,159680,1,1,-0.066534,-0.112109,10.007453,-0.012412,0.057751,0.207128,-0.671822,-2.319843,4.437593,-0.182418,-0.180543,-1.048474,89.477309,179.349853,135.601672,0.651726,-0.657628,-0.263609,-0.270719,657.651123,94259.695312,0.409015,0.262366,1.210754,0.729187,0.563284,12.250000,16.420906,0,5.380000,0, 202
1001, 101,161825,161789,1,1,-0.074798,-0.159197,10.013247,-0.060179,-0.029171,0.213568,-0.191296,-2.800369,3.957067,-0.427789,0.332325,0.054465,89.826844,179.397132,134.915907,0.650658,-0.655484,-0.268052,-0.274105,657.211731,94262.648438,-0.242713,-0.402534,1.210754,0.289795,0.294299,12.250000,16.470850,0,5.380000,0, 202
1002, 101,163976,163935,1,1,-0.094948,-0.124813,10.027124,-0.033801,0.076803,0.227000,-0.671822,-1.358791,4.918118,-0.059204,0.894858,-0.130604,89.447440,179.304337,134.554604,0.647394,-0.657000,-0.270504,-0.275788,657.225830,94264.625000,-0.674234,-0.222233,1.210754,0.303894,0.300124,12.375000,16.520792,0,5.380000,0, 202
1003, 101,166184,166142,1,1,-0.001016,-0.116283,10.029193,0.043788,-0.024951,0.228740,-0.191296,-2.319843,3.957067,0.057793,-1.657640,0.042017,89.685862,179.267399,133.928535,0.647149,-0.654255,-0.273298,-0.280101,657.060364,94270.492188,0.328980,-0.093919,1.210754,0.138428,0.177140,12.500000,16.570734,0,5.380000,0, 202
1004, 101,168342,168314,1,1,-0.003929,-0.141938,10.009235,-0.015174,-0.043379,0.209137,-1.152348,-0.878266,4.437593,1.053048,-0.189669,-0.011470,89.708306,179.479408,133.222649,0.646067,-0.651921,-0.278468,-0.282935,657.076721,94267.609375,0.081274,-0.070713,1.210754,0.154785,0.099674,12.500000,16.620676,0,5.380000,0, 202
1005, 101,170424,170382,1,1,-0.070057,-0.110519,9.985698,-0.016664,0.035667,0.185477,-1.632874,1.524364,3.476542,-0.304881,0.441387,-0.357962,89.660221,179.357107,132.741093,0.644292,-0.651314,-0.280634,-0.286222,657.203735,94268.617188,0.026684,-0.041728,1.210754,0.281799,0.319608,12.500000,16.670616,0,5.380000,0, 202
1006, 101,172506,172497,1,1,-0.071220,-0.123066,10.006605,-0.018741,0.039978,0.206518,-0.191296,-1.358791,3.957067,-0.153366,0.468008,-0.076413,89.599945,179.311413,132.196740,0.642467,-0.650424,-0.283619,-0.289388,657.228394,94266.695312,0.070803,-0.024366,1.210754,0.306458,0.317871,12.625000,16.706938,0,5.380000,0, 202
1007, 101,174594,174559,1,1,-0.011634,-0.112657,10.018630,0.072318,-0.026163,0.217975,-0.191296,-2.319843,4.918118,-0.384605,0.572479,0.352830,89.772537,179.059829,131.501427,0.641027,-0.648351,-0.285701,-0.295127,657.123413,94269.632812,-0.267885,-0.010126,1.210754,0.201477,0.340568,12.625000,16.752338,0,5.380000,0, 202
1008, 101,176690,176680,1,1,-0.037881,-0.115390,9.975163,-0.002890,0.008543,0.174899,-1.152348,-0.878266,4.437593,0.071084,-1.089555,-0.562619,89.680855,179.373444,130.953796,0.640119,-0.646492,-0.290598,-0.296392,657.174438,94269.656250,0.256835,0.225543,1.210754,0.252502,0.277019,12.625000,16.793198,0,5.380000,0, 202
1009, 101,178791,178762,1,1,-0.052073,-0.110127,10.021846,-0.030169,0.035023,0.221480,-0.191296,-2.319843,4.437593,-0.750753,0.804656,-0.618421,89.621644,179.499229,130.127603,0.637755,-0.644595,-0.296310,-0.299945,657.150391,94271.617188,0.030326,0.091968,1.210754,0.228455,0.361764,12.750000,16.834057,0,5.380000,0, 202
1010, 101,180902,180889,1,1,-0.004093,-0.138588,10.025603,0.019717,-0.055745,0.225388,0.289230,-1.358791,4.437593,0.366330,0.189248,0.153242,89.831632,179.262276,129.611500,0.635604,-0.644029,-0.298660,-0.303375,657.385132,94265.804688,0.851678,0.286125,1.210754,0.463196,0.330227,12.750000,16.879456,0,5.380000,0, 202
1011, 101,183014,182977,1,1,-0.060617,-0.152045,10.011211,0.048076,-0.038430,0.211360,1.730806,-0.397740,5.398644,-0.673321,0.129101,-0.154545,89.938954,178.831305,129.190938,0.635262,-0.642130,-0.296989,-0.309694,657.245850,94266.789062,-0.084642,0.026795,1.210754,0.323914,0.345777,13.000000,16.924854,0,5.380000,0, 202
1012, 101,185206,185202,1,1,-0.033799,-0.129197,10.030645,0.027125,-0.045245,0.230396,0.769756,-7.605628,5.398644,0.370121,0.033091,-0.005611,89.945880,179.149264,128.849292,0.634313,-0.641294,-0.302066,-0.308457,657.070435,94269.726562,0.372899,-0.061082,1.210754,0.148499,0.063436,12.875000,16.970251,0,5.380000,0, 202
1013, 101,187319,187294,1,1,-0.022437,-0.121726,10.014940,0.053738,-0.031732,0.214511,-1.152348,-0.878266,4.437593,-0.543602,-0.365898,-0.272298,89.850394,179.066673,128.325143,0.633055,-0.639736,-0.303386,-0.312948,657.105591,94269.734375,0.009801,0.258644,1.210754,0.183655,0.137356,12.875000,17.006569,0,5.380000,0, 202
1014, 101,189441,189432,1,1,-0.009493,-0.126896,10.025946,-0.018400,-0.018003,0.225720,-0.191296,-1.839317,3.957067,-0.196266,0.632587,0.029727,89.696517,179.502112,128.253577,0.632417,-0.640006,-0.306347,-0.310793,657.088989,94269.742188,0.233932,-0.034171,1.210754,0.167053,0.161374,13.000000,17.051966,0,5.380000,0, 202
1015, 101,191563,191528,1,1,-0.100957,-0.138449,10.024770,-0.040436,0.054916,0.225002,-1.152348,3.446467,2.996016,-0.284100,-0.409150,-0.250326,89.663472,179.252099,127.428012,0.630060,-0.637872,-0.309930,-0.316366,657.021057,94269.750000,-0.116483,0.108311,1.210754,0.099121,0.104063,13.000000,17.088284,0,5.380000,0, 202
1016, 101,193689,193669,1,1,-0.066795,-0.128608,10.011807,0.010515,0.003378,0.211850,-1.152348,-1.358791,3.957067,0.120499,0.420589,-1.391173,89.840395,179.122490,127.184789,0.630257,-0.636348,-0.310327,-0.318647,656.787109,94269.757812,0.046497,-0.058547,1.210754,-0.134827,-0.128791,13.000000,17.138220,0,5.380000,0, 202
1017, 101,195824,195800,1,1,-0.040571,-0.101255,10.005145,0.008270,0.038550,0.204662,-3.074451,-2.319843,4.918118,0.250972,0.289907,-1.001557,89.621972,179.348132,126.419343,0.627292,-0.635083,-0.316178,-0.321256,656.639343,94272.687500,-0.122578,0.008533,1.210754,-0.282593,-0.269832,13.000000,17.183615,0,5.380000,0, 202
1018, 101,197964,197945,1,1,-0.013694,-0.149017,10.031988,-0.029632,-0.027435,0.232023,-2.593925,0.082786,4.437593,0.159162,-0.595323,-0.412653,89.717991,179.435790,126.136027,0.626066,-0.634726,-0.317513,-0.323032,656.617859,94274.632812,-0.198716,0.135118,1.210754,-0.304077,-0.220206,13.000000,17.224470,0,5.380000,0, 202
1019, 101,200108,200094,1,1,-0.042765,-0.058614,10.018082,0.017909,0.065056,0.217117,0.289230,-1.839317,4.437593,0.309969,-0.363781,0.121245,89.633966,179.482659,125.281351,0.626629,-0.629382,-0.322723,-0.327206,656.656799,94275.609375,0.227064,0.047601,1.210754,-0.265137,-0.221192,13.000000,17.260786,0,5.380000,0, 202
1020, 101,202330,202304,1,1,-0.059605,-0.135054,10.014194,0.015985,0.028958,0.214228,-0.671822,-1.358791,4.437593,-0.318847,-0.107635,-0.359380,89.677215,179.078735,124.536192,0.621446,-0.630263,-0.324939,-0.333149,656.601379,94269.773438,0.348992,-0.149869,1.210754,-0.320557,-0.378898,13.000000,17.301641,0,5.380000,0, 202
1021, 101,204478,204449,1,1,-0.041889,-0.122833,10.034020,0.016236,-0.002755,0.233846,-1.152348,-1.358791,3.957067,-0.707670,-0.046264,-0.063318,89.818197,179.193086,124.291097,0.621841,-0.628478,-0.326500,-0.334256,656.704224,94276.585938,0.011627,0.178747,1.210754,-0.217712,-0.147179,13.000000,17.351574,0,5.380000,0, 202
1022, 101,206629,206605,1,1,-0.032271,-0.147418,10.043076,-0.002119,-0.012605,0.243201,0.289230,-2.319843,4.437593,-0.388531,0.041437,-0.720477,89.760625,179.209452,123.546033,0.619003,-0.626987,-0.330970,-0.337909,656.897583,94270.742188,0.453782,0.076719,1.210754,-0.024353,-0.094622,13.125000,17.378811,0,5.380000,0, 202
1023, 101,208834,208813,1,1,-0.051795,-0.107319,10.006236,0.024374,0.009205,0.205912,-0.671822,-0.878266,4.918118,0.236890,0.472747,0.867187,89.860025,179.183743,123.111810,0.618569,-0.624886,-0.332775,-0.340810,656.742126,94270.734375,0.041169,0.002327,1.210754,-0.179810,-0.200562,13.125000,17.419664,0,5.380000,0, 202
1024, 101,210919,210883,1,1,-0.032121,-0.123379,10.010656,0.025282,-0.031512,0.210387,-1.152348,-0.397740,3.957067,0.280249,-0.640060,0.333672,89.953837,179.161695,122.678571,0.617720,-0.623182,-0.334734,-0.343539,656.751892,94272.679688,-0.178731,0.172807,1.210754,-0.170044,-0.088214,13.250000,17.455978,0,5.380000,0, 202
1025, 101,213008,212998,1,1,-0.085362,-0.178647,10.019022,-0.088524,-0.004166,0.219586,-0.671822,-1.839317,3.957067,-0.227051,1.021721,0.378461,89.887864,179.382228,122.436919,0.615813,-0.623635,-0.335030,-0.345846,657.190552,94268.773438,0.064306,0.254317,1.210754,0.268616,0.191368,13.250000,17.501371,0,5.380000,0, 202
1026, 101,215102,215070,1,1,-0.008602,-0.115764,10.008207,0.054415,-0.072691,0.207469,-0.671822,-1.358791,5.398644,-0.132937,1.118361,-0.089962,90.107161,179.100155,121.956347,0.616186,-0.620418,-0.337856,-0.348209,656.981323,94270.718750,-0.884286,-0.046807,1.210754,0.059387,0.233186,13.250000,17.533146,0,5.380000,0, 202
1027, 101,217203,217194,1,1,-0.041187,-0.179714,10.036700,-0.052793,-0.030239,0.237209,0.289230,-2.319843,5.398644,-0.071600,0.552863,-0.366842,89.840320,179.302752,121.313995,0.611734,-0.620980,-0.342246,-0.350760,657.155701,94265.835938,-0.198813,-0.007918,1.210754,0.233765,0.156837,13.250000,17.569458,0,5.380000,0, 202
1028, 101,219386,219341,1,1,-0.051856,-0.110388,10.001783,0.006754,0.011393,0.215605,-0.671822,3.446467,2.996016,0.718323,-0.328160,-0.259677,89.802726,179.227743,120.697816,0.611080,-0.617911,-0.346277,-0.353355,656.872192,94270.695312,-0.635453,-0.066109,1.210754,-0.049744,0.121147,13.375000,17.605772,0,5.380000,0, 202
1029, 101,221482,221465,1,1,-0.061080,-0.121941,10.032343,0.002517,0.005352,0.232268,-0.671822,-0.878266,4.437593,-0.289501,-0.007562,-0.444357,89.923661,179.208127,119.975387,0.609428,-0.615132,-0.349684,-0.357675,657.022095,94270.687500,-0.088991,0.099960,1.210754,0.100159,0.089169,13.375000,17.637545,0,5.380000,0, 202
1030, 101,223585,223546,1,1,-0.037520,-0.134392,10.012209,-0.001588,0.000610,0.212181,-1.152348,-2.319843,5.398644,0.382523,-0.068630,-0.740692,89.807774,179.233289,119.272178,0.606681,-0.613511,-0.353951,-0.360917,656.997437,94269.695312,-0.245414,0.118500,1.210754,0.075500,0.110337,13.375000,17.682936,0,5.380000,0, 202
1031, 101,225699,225671,1,1,-0.052383,-0.124124,10.008794,0.004270,0.029450,0.208656,-0.671822,-1.839317,5.398644,-0.099386,0.964988,-0.541952,89.754129,179.208249,118.633747,0.604295,-0.611890,-0.357401,-0.364256,656.963745,94273.578125,0.391998,0.326883,1.210754,0.041809,0.063722,13.375000,17.728327,0,5.380000,0, 202
1032, 101,227815,227810,1,1,-0.051593,-0.123044,10.012371,-0.003197,-0.025589,0.212227,-1.152348,-1.358791,3.957067,0.016586,0.299485,-0.042916,90.076583,179.258028,117.996818,0.603382,-0.608787,-0.360362,-0.368034,657.022461,94266.742188,0.265049,-0.067802,1.210754,0.100525,0.001351,13.625000,17.755560,0,5.380000,0, 202
1033, 101,229933,229904,1,1,-0.030466,-0.126480,10.013010,0.031890,-0.050176,0.212679,-0.671822,-2.319843,3.957067,0.771271,0.691296,-0.109510,90.106137,179.095469,117.612921,0.602528,-0.607189,-0.361102,-0.371330,657.039246,94269.648438,0.494234,0.034784,1.210754,0.117310,-0.004242,13.500000,17.787333,0,5.380000,0, 202
1034, 101,232061,232042,1,1,-0.042213,-0.142364,10.000968,-0.035781,0.057625,0.200840,-1.632874,-7.605628,4.918118,-0.204587,-0.533134,-0.598365,89.515141,179.368513,116.998176,0.599266,-0.606504,-0.365776,-0.373151,657.078491,94267.687500,-0.228861,0.074336,1.210754,0.156555,0.247696,13.625000,17.823645,0,5.380000,0, 202
1035, 101,234193,234188,1,1,0.000113,-0.150593,10.009871,-0.001294,-0.013900,0.209994,-0.671822,-1.839317,3.476542,0.511072,-0.295841,-0.234679,89.691121,179.237974,116.744052,0.597569,-0.606542,-0.368003,-0.373618,657.323120,94263.765625,-0.038223,-0.019794,1.210754,0.401184,0.304683,13.625000,17.859955,0,5.380000,0, 202
1036, 101,236406,236385,1,1,-0.057809,-0.128005,10.022795,-0.016236,0.048543,0.222648,-0.671822,-2.319843,4.918118,-0.326414,-0.376606,-0.030857,89.700205,179.290253,115.897764,0.595414,-0.603198,-0.372515,-0.377976,657.361755,94262.773438,0.496115,0.021577,1.210754,0.439819,0.285036,13.625000,17.896265,0,5.380000,0, 202
1037, 101,238540,238532,1,1,0.039773,-0.120528,10.007066,-0.013513,-0.023694,0.206833,-0.671822,0.082786,3.957067,0.573801,-0.300377,-0.844547,89.631753,179.553802,115.642493,0.594216,-0.602728,-0.375497,-0.377663,657.255615,94266.640625,-0.126779,0.013439,1.210754,0.333679,0.339385,13.750000,17.937115,0,5.380000,0, 202
1038, 101,240677,240633,1,1,-0.007230,-0.083661,9.993320,0.019546,0.055473,0.186801,-0.191296,-0.397740,5.398644,-0.410831,-0.764929,-0.277814,89.612642,179.196242,115.595392,0.593641,-0.602972,-0.373904,-0.379750,657.171509,94264.679688,0.055941,-0.046089,1.210754,0.249573,0.264297,13.750000,17.964346,0,5.380000,0, 202
1039, 101,242823,242786,1,1,-0.042986,-0.117233,10.020096,0.025350,-0.005773,0.219840,0.289230,-0.878266,3.476542,-0.987369,1.405531,-0.924035,89.972996,179.143636,114.958217,0.593231,-0.599193,-0.375770,-0.384502,657.006592,94273.421875,0.070300,-0.049190,1.210754,0.084656,0.240703,13.750000,18.000656,0,5.380000,0, 202
1040, 101,245037,245023,1,1,-0.006033,-0.159843,10.015982,-0.023294,-0.025411,0.216200,-0.191296,-3.761421,5.398644,-0.113498,0.078531,0.256843,89.798273,179.286674,114.454559,0.591107,-0.597965,-0.379734,-0.385788,657.203857,94271.437500,0.564560,0.294940,1.210754,0.281921,0.296135,13.750000,18.050583,0,5.380000,0, 202
1041, 101,247191,247176,1,1,-0.021523,-0.109900,10.011089,0.038502,-0.012441,0.210634,-0.671822,-1.839317,3.957067,0.062956,0.507553,-0.118416,89.927001,179.155179,114.082949,0.590415,-0.596175,-0.381801,-0.387575,657.163269,94269.476562,-0.099940,-0.019475,1.210754,0.241333,0.273414,13.750000,18.073275,0,5.380000,0, 202
1042, 101,249401,249387,1,1,0.013484,-0.100186,10.016847,0.055957,-0.090953,0.215788,-0.191296,-0.878266,4.437593,0.308304,0.242183,0.183101,90.218487,179.186707,113.791518,0.590706,-0.593929,-0.381238,-0.391118,657.287720,94263.601562,0.231880,0.000186,1.210754,0.365784,0.251199,13.875000,18.105045,0,5.380000,0, 202
1043, 101,251485,251460,1,1,-0.072834,-0.118445,10.016212,0.016353,0.095199,0.215712,-0.671822,-1.839317,4.437593,0.080815,1.011265,0.176136,89.569496,179.119334,113.345562,0.585582,-0.595993,-0.385420,-0.391582,657.476318,94261.625000,0.146974,0.269157,1.210754,0.554382,0.479274,13.875000,18.132277,0,5.380000,0, 202
1044, 101,253655,253639,1,1,-0.109101,-0.157908,10.027330,-0.081414,0.055415,0.227684,-0.671822,-1.839317,4.437593,0.166276,-0.188657,0.191158,89.904496,179.391080,113.008991,0.587102,-0.592232,-0.387421,-0.393037,657.530273,94264.523438,0.030187,0.047383,1.210754,0.608337,0.635673,13.875000,18.168585,0,5.380000,0, 202
1045, 101,255744,255705,1,1,-0.002627,-0.143760,10.027591,-0.002317,-0.059792,0.227443,-2.113400,-2.800369,3.476542,-0.114577,-0.028710,-0.532146,90.043729,179.247646,112.307469,0.584904,-0.589627,-0.389819,-0.397831,657.415710,94264.484375,-0.359041,0.124482,1.210754,0.493774,0.580778,13.875000,18.204893,0,5.380000,0, 202
1046, 101,257834,257827,1,1,-0.048633,-0.123018,10.003226,-0.028746,0.042572,0.202969,-1.152348,-2.319843,4.437593,-0.176980,-1.799262,0.038581,89.751076,179.407008,111.956260,0.583346,-0.588765,-0.391935,-0.399312,657.418335,94266.414062,0.045279,-0.116331,1.210754,0.496399,0.539080,14.000000,18.232124,0,5.380000,0, 202
1047, 101,259927,259905,1,1,-0.058892,-0.105936,9.974368,0.004079,0.051876,0.173969,-0.191296,-1.358791,5.398644,-0.424653,0.533001,-0.235579,89.791962,179.286196,111.648950,0.581451,-0.588523,-0.394278,-0.400124,657.548462,94260.546875,0.243032,0.121526,1.210754,0.626526,0.503149,14.125000,18.245739,0,5.380000,0, 202
1048, 101,262029,261986,1,1,-0.033416,-0.115067,9.953049,-0.000400,0.007301,0.152767,0.289230,-1.358791,4.918118,-0.240039,-0.409353,-0.022153,89.898021,179.315183,111.180187,0.580454,-0.586269,-0.396458,-0.402719,657.225647,94266.343750,-0.399852,-0.257086,1.210754,0.303711,0.342753,14.000000,18.304739,0,5.380000,0, 202
1049, 101,264135,264120,1,1,-0.020994,-0.122111,10.019859,0.022725,-0.040115,0.219519,-1.152348,-1.358791,4.437593,-0.431346,0.722716,-0.822622,90.098665,179.173757,110.386895,0.578171,-0.582992,-0.399074,-0.408141,657.258545,94264.375000,0.306152,-0.039782,1.210754,0.336609,0.254008,14.000000,18.322893,0,5.380000,0, 202
1050, 101,266252,266246,1,1,-0.000533,-0.147291,10.032619,-0.025075,-0.014411,0.232658,-0.191296,-0.878266,4.918118,-0.199935,-0.096927,-0.560930,89.803621,179.349580,109.555954,0.573496,-0.581769,-0.404851,-0.410783,657.360107,94265.312500,0.497552,0.060143,1.210754,0.438171,0.323903,14.125000,18.359200,0,5.380000,0, 202
1051, 101,268365,268334,1,1,-0.058192,-0.133078,10.023653,-0.034418,0.064495,0.223439,-0.191296,-1.358791,4.437593,0.396501,-0.429453,-0.089806,89.701189,179.369483,108.794142,0.571147,-0.578676,-0.409563,-0.413743,657.119507,94270.164062,-0.182064,-0.023866,1.210754,0.197571,0.272788,14.125000,18.386429,0,5.380000,0, 202
1052, 101,270560,270528,1,1,-0.053149,-0.119751,10.021412,0.023336,-0.006497,0.221239,-0.671822,-0.878266,4.918118,-0.391515,0.227108,-0.586481,90.114237,179.121547,108.025466,0.569525,-0.574755,-0.410683,-0.420283,657.435791,94264.281250,0.558833,0.365402,1.210754,0.513855,0.377532,14.125000,18.413660,0,5.380000,0, 202
1053, 101,272681,272665,1,1,-0.054554,-0.128094,10.022372,-0.003581,0.046165,0.222232,-0.671822,-1.358791,3.957067,-1.415785,0.916228,-0.835750,89.815587,179.228562,107.337297,0.567012,-0.572260,-0.414796,-0.423037,657.166870,94267.171875,-0.208425,-0.056945,1.210754,0.244934,0.315589,14.125000,18.445427,0,5.380000,0, 202
1054, 101,274809,274766,1,1,-0.065484,-0.130609,10.028301,-0.006483,0.025402,0.228331,1.250281,-0.397740,5.398644,0.715384,-0.063342,0.692807,90.004654,179.215886,106.290796,0.562906,-0.568665,-0.420214,-0.427992,657.386292,94264.203125,0.023408,0.096025,1.210754,0.464355,0.358657,14.125000,18.477194,0,5.380000,0, 202
1055, 101,276941,276908,1,1,-0.034235,-0.123865,10.021038,0.022655,-0.015179,0.220825,-0.191296,-1.358791,4.918118,0.440807,-0.515647,0.051301,90.081009,179.135781,105.899932,0.561521,-0.567149,-0.421468,-0.430583,657.347961,94264.179688,0.300929,-0.160387,1.210754,0.426025,0.356767,14.250000,18.499886,0,5.380000,0, 202
1056, 101,279077,279054,1,1,-0.028482,-0.156814,10.005934,0.007687,0.014784,0.206189,-0.671822,-0.878266,4.918118,0.143241,-0.370054,0.054550,89.835347,179.046948,105.324406,0.558328,-0.566034,-0.424709,-0.433010,657.448059,94266.101562,-0.469874,-0.108705,1.210754,0.526123,0.635205,14.250000,18.522577,0,5.380000,0, 202
1057, 101,281219,281203,1,1,-0.032316,-0.124274,10.012863,-0.010580,-0.028424,0.212641,-0.191296,-1.358791,4.437593,-0.776890,0.181351,-0.023598,90.156578,179.325824,105.048965,0.558472,-0.563844,-0.426604,-0.433818,657.178406,94267.031250,-0.602549,-0.303874,1.210754,0.256470,0.364760,14.250000,18.563419,0,5.380000,0, 202
1058, 101,283365,283357,1,1,-0.034904,-0.143239,10.006742,0.007624,-0.030225,0.206780,-0.671822,-1.358791,4.437593,-0.311969,0.573745,-0.747585,90.163770,179.112326,104.323626,0.555248,-0.561592,-0.429586,-0.437915,657.255920,94270.890625,0.264033,-0.096031,1.210754,0.333984,0.393012,14.375000,18.595186,0,5.380000,0, 202
1059, 101,285519,285517,1,1,-0.061350,-0.116784,10.015962,0.038859,-0.014044,0.215745,-1.152348,-1.839317,3.957067,0.092933,-0.409519,0.414515,90.264208,179.045882,103.610432,0.553773,-0.557666,-0.432821,-0.441599,657.425476,94263.054688,0.207466,0.138536,1.210754,0.503540,0.458125,14.250000,18.617876,0,5.380000,0, 202
1060, 101,287752,287727,1,1,-0.051412,-0.122208,10.028335,0.006510,0.042143,0.228120,-1.152348,-0.878266,5.398644,0.389910,0.396479,-0.772306,89.892407,179.217156,102.690514,0.548645,-0.555717,-0.438313,-0.445028,657.504089,94262.054688,0.407910,0.110909,1.210754,0.582153,0.399914,14.375000,18.636028,0,5.380000,0, 202
1061, 101,289953,289931,1,1,-0.026350,-0.126521,9.995004,0.016073,-0.019262,0.194808,-4.516029,2.965941,3.957067,-0.047979,-0.074731,-0.493822,90.101233,179.167132,102.474762,0.548622,-0.554083,-0.438302,-0.447099,657.477783,94262.984375,0.146202,-0.017560,1.210754,0.555847,0.500567,14.375000,18.672333,0,5.380000,0, 202
1062, 101,292029,291994,1,1,-0.062034,-0.137718,10.021327,-0.008188,0.014943,0.221451,0.289230,4.888044,3.957067,-0.936695,-0.017416,-0.925480,90.100591,179.203564,101.808368,0.546152,-0.551387,-0.441695,-0.450106,657.405273,94264.890625,0.707185,0.138783,1.210754,0.483337,0.410071,14.375000,18.704100,0,5.380000,0, 202
1063, 101,294111,294110,1,1,-0.071200,-0.121925,10.014925,0.014728,-0.024593,0.214879,0.289230,-0.878266,4.918118,-0.108290,-0.157101,-0.660232,90.404951,179.152488,101.185195,0.544646,-0.548038,-0.444101,-0.453640,657.547546,94261.929688,-0.476459,-0.006804,1.210754,0.625610,0.637600,14.375000,18.726789,0,5.380000,0, 202
1064, 101,296197,296171,1,1,-0.020924,-0.126610,10.010184,0.022711,-0.046706,0.209872,-0.191296,-1.358791,5.398644,-0.427727,0.210509,-0.668254,90.255670,179.135631,100.292360,0.540617,-0.545031,-0.448007,-0.458218,657.324951,94267.710938,-0.693640,-0.179016,1.210754,0.403015,0.518346,14.500000,18.781244,0,5.380000,0, 202
1065, 101,298292,298289,1,1,-0.089208,-0.139367,10.022734,-0.042510,0.068342,0.222776,-0.671822,-2.319843,4.437593,0.220891,0.649843,-0.695336,89.977251,179.371600,99.733446,0.538001,-0.543215,-0.452898,-0.458646,657.332031,94262.820312,-0.401475,-0.144019,1.210754,0.410095,0.384860,14.500000,18.785782,0,5.380000,0, 202
1066, 101,300391,300371,1,1,-0.023089,-0.161229,10.035615,-0.025386,0.001664,0.235904,-0.671822,-1.839317,3.957067,0.427471,0.328241,-0.083270,89.976677,179.215216,99.001912,0.534428,-0.540937,-0.455621,-0.462799,657.338257,94267.664062,-0.828122,0.090920,1.210754,0.416321,0.590637,14.500000,18.813009,0,5.380000,0, 202
1067, 101,302498,302498,1,1,-0.027517,-0.112044,10.025811,0.006995,-0.018218,0.225456,-0.191296,-1.358791,5.398644,-0.229413,1.351695,0.500343,90.163360,179.303380,98.641414,0.533910,-0.538573,-0.457528,-0.464271,657.421753,94262.757812,0.025561,0.036646,1.210754,0.499817,0.489603,14.500000,18.831161,0,5.380000,0, 202
1068, 101,304685,304643,1,1,-0.031852,-0.144596,10.026772,-0.030460,-0.008301,0.226816,1.250281,2.485415,3.957067,-0.071460,0.754367,-1.709789,90.111307,179.330442,98.092650,0.531839,-0.536218,-0.459890,-0.467032,657.345703,94267.562500,0.647881,-0.079986,1.210754,0.423767,0.336580,14.500000,18.881077,0,5.380000,0, 202
1069, 101,306791,306766,1,1,-0.021701,-0.124385,10.019195,0.003688,-0.032472,0.218937,-0.671822,-1.358791,3.476542,0.160850,0.093590,0.177130,90.216062,179.257536,97.485480,0.529547,-0.533584,-0.461955,-0.470601,657.189026,94273.390625,0.063809,0.206273,1.210754,0.267090,0.352300,14.500000,18.903767,0,5.380000,0, 202
1070, 101,308905,308898,1,1,-0.044432,-0.132948,10.022155,-0.022148,0.027612,0.222073,0.769756,3.926993,3.476542,-0.067944,-0.847899,-0.556758,89.998903,179.340755,97.199220,0.527894,-0.532899,-0.463453,-0.471761,657.252319,94267.507812,-0.146703,-0.113357,1.210754,0.330383,0.335994,14.625000,18.917379,0,5.380000,0, 202
1071, 101,311022,310994,1,1,-0.040315,-0.133909,10.016923,0.016310,-0.024124,0.216857,-1.152348,-4.241947,4.437593,-0.494025,-0.250785,-0.440173,90.280047,179.119580,96.523728,0.525304,-0.529959,-0.465511,-0.475919,657.495483,94266.468750,0.160644,-0.008742,1.210754,0.573547,0.618476,14.625000,18.953682,0,5.380000,0, 202
1072, 101,313149,313135,1,1,-0.048440,-0.147741,10.007210,0.013321,-0.025916,0.207375,-1.152348,-0.878266,5.398644,0.340739,-0.074606,-0.108997,90.334586,179.053313,96.076432,0.523089,-0.528490,-0.467915,-0.477631,657.407715,94264.484375,-0.521568,-0.051486,1.210754,0.485779,0.616797,14.625000,18.971832,0,5.380000,0, 202
1073, 101,315279,315276,1,1,-0.063163,-0.102274,10.021307,0.022813,-0.040285,0.220921,-0.671822,-0.878266,5.398644,-0.323699,1.676021,-0.397478,90.533474,179.252823,95.521794,0.522382,-0.524627,-0.471084,-0.479544,657.297485,94261.531250,-0.657596,-0.283462,1.210754,0.375549,0.467460,14.750000,18.985445,0,5.380000,0, 202
1074, 101,317411,317371,1,1,-0.030983,-0.129338,10.038871,0.022685,-0.029892,0.238682,-1.152348,0.082786,5.398644,0.183304,-0.703033,0.343804,90.279815,179.119416,95.197469,0.519759,-0.524537,-0.471613,-0.481967,657.601562,94261.492188,0.212130,0.016997,1.210754,0.679626,0.588346,14.750000,19.012671,0,5.380000,0, 202
1075, 101,319547,319520,1,1,-0.044233,-0.138738,10.010896,-0.023256,0.025148,0.210896,0.289230,-1.839317,4.437593,0.889218,-1.014873,0.491962,90.042855,179.320920,94.732367,0.517565,-0.522852,-0.475659,-0.482183,657.562744,94263.390625,0.116228,0.072112,1.210754,0.640808,0.639583,14.750000,19.044436,0,5.380000,0, 202
1076, 101,321773,321732,1,1,-0.063515,-0.143534,10.035954,0.002461,0.010204,0.236175,-0.671822,-1.839317,4.918118,-0.196024,-0.389611,-0.849830,90.246142,179.143212,94.009392,0.514682,-0.519671,-0.477278,-0.487083,657.477295,94266.289062,0.453493,0.063529,1.210754,0.555359,0.611143,14.750000,19.062586,0,5.380000,0, 202
1077, 101,323909,323882,1,1,-0.054830,-0.122863,10.031693,0.006519,-0.028541,0.231552,-1.152348,-1.839317,5.398644,-0.144446,1.162501,0.461441,90.431985,179.243001,93.557650,0.514020,-0.516533,-0.478982,-0.489441,657.554810,94263.320312,0.459881,0.013407,1.210754,0.632874,0.590091,14.750000,19.085274,0,5.380000,0, 202
1078, 101,326057,326037,1,1,-0.044476,-0.130991,10.002348,-0.016716,0.010547,0.202285,-0.671822,-0.878266,4.918118,0.276842,-0.875450,-1.103782,90.154030,179.332941,93.051594,0.510864,-0.515394,-0.482235,-0.490751,657.414917,94267.164062,-0.145529,0.100245,1.210754,0.492981,0.533959,14.750000,19.121574,0,5.380000,0, 202
1079, 101,328208,328186,1,1,-0.054830,-0.137102,10.001534,0.001733,0.006260,0.201621,0.289230,-0.397740,4.918118,-0.781107,0.424418,-0.943944,90.247535,179.193127,92.221563,0.507242,-0.511943,-0.485545,-0.494839,657.320923,94265.187500,-0.578219,0.009980,1.210754,0.398987,0.486935,14.750000,19.135187,0,5.380000,0, 202
1080, 101,330417,330399,1,1,-0.032705,-0.134425,10.024595,-0.027799,-0.015332,0.224500,-2.113400,-1.839317,4.437593,1.160553,-1.144580,-0.389101,90.253778,179.385862,91.542594,0.505161,-0.508204,-0.489402,-0.497018,657.342468,94266.109375,-0.512017,0.016606,1.210754,0.420532,0.479513,14.875000,19.162413,0,5.380000,0, 202
1081, 101,332494,332470,1,1,-0.042472,-0.138211,10.026952,-0.004115,-0.000085,0.226993,0.289230,-0.878266,6.359696,-0.208752,-0.465497,0.179205,90.228390,179.229409,91.068080,0.502308,-0.506958,-0.490918,-0.499680,657.407532,94266.078125,0.619171,-0.053629,1.210754,0.485596,0.462055,14.875000,19.180561,0,5.380000,0, 202
1082, 101,334583,334544,1,1,-0.021561,-0.121384,10.021233,-0.001384,-0.042885,0.220899,-0.191296,-1.839317,4.437593,0.205504,0.131339,-0.177874,90.361893,179.312806,90.539990,0.500951,-0.503746,-0.493033,-0.502201,657.501221,94262.125000,-0.183528,0.016195,1.210754,0.579285,0.579618,14.875000,19.203249,0,5.380000,0, 202
1083, 101,336675,336663,1,1,-0.062836,-0.151500,10.011820,-0.011761,0.026526,0.212121,-2.113400,0.082786,4.918118,0.170925,-0.092935,0.204168,90.205858,179.199575,90.126183,0.497954,-0.503133,-0.495036,-0.503823,657.571899,94263.054688,0.432757,0.086353,1.210754,0.649963,0.599181,15.000000,19.230474,0,5.380000,0, 202
1084, 101,338840,338830,1,1,-0.093382,-0.146681,10.004590,0.008509,0.047201,0.204986,0.289230,3.926993,3.476542,-0.012383,0.341559,0.183739,90.268511,179.113911,89.721522,0.497326,-0.500239,-0.495273,-0.507082,657.421936,94264.976562,0.143741,-0.069846,1.210754,0.500000,0.532908,14.875000,19.248623,0,5.380000,0, 202
1085, 101,340932,340910,1,1,-0.038891,-0.134902,10.018421,0.001984,-0.003983,0.218404,-0.671822,-1.839317,5.879170,0.150108,-0.102386,0.266567,90.255616,179.220284,89.222604,0.494274,-0.498909,-0.498858,-0.507862,657.676208,94260.062500,1.063449,0.253330,1.210754,0.754272,0.526420,15.000000,19.262236,0,5.380000,0, 202
1086, 101,343035,342993,1,1,-0.029975,-0.135668,10.008842,-0.005051,-0.065442,0.208592,1.730806,-3.761421,4.918118,-0.919470,0.078218,0.298057,90.563022,179.256238,88.753117,0.493679,-0.495380,-0.499685,-0.511071,657.464355,94266.851562,-0.417021,0.305513,1.210754,0.542419,0.655822,15.000000,19.289459,0,5.380000,0, 202
1087, 101,345137,345120,1,1,-0.051936,-0.118918,10.018529,0.025135,-0.063942,0.218134,-0.191296,-1.839317,4.918118,0.443414,0.732437,-0.145104,90.685310,179.186557,88.076717,0.490870,-0.492207,-0.501749,-0.514807,657.659241,94258.984375,0.038120,0.116455,1.210754,0.737305,0.591533,15.000000,19.312147,0,5.380000,0, 202
1088, 101,347246,347241,1,1,-0.047817,-0.139970,10.032043,-0.004427,0.045344,0.232030,-1.152348,-0.397740,4.918118,-0.431396,-0.521875,-0.324092,90.047718,179.238207,87.573605,0.487001,-0.491593,-0.505852,-0.515054,657.518860,94266.710938,-0.052301,0.006155,1.210754,0.596924,0.616774,15.000000,19.357521,0,5.380000,0, 202
1089, 101,349357,349332,1,1,-0.050620,-0.144578,10.015808,0.000156,0.051279,0.215848,-2.113400,-0.397740,4.437593,0.403041,0.111976,-0.550439,90.040150,179.188811,86.926349,0.482937,-0.489862,-0.509593,-0.516839,657.389465,94262.796875,-0.070302,0.000820,1.210754,0.467529,0.466659,15.000000,19.362057,0,5.380000,0, 202
1090, 101,351479,351470,1,1,-0.054961,-0.135981,10.018205,0.022023,0.020896,0.218232,-2.113400,2.965941,2.996016,-0.288918,-0.749389,0.370012,90.243601,179.117954,86.355400,0.481871,-0.485824,-0.510795,-0.520446,657.620544,94259.835938,-0.143993,0.100124,1.210754,0.698608,0.628578,15.000000,19.375669,0,5.380000,0, 202
1091, 101,353602,353562,1,1,-0.040888,-0.131092,10.027922,0.003543,0.001357,0.227861,-0.191296,-1.358791,4.918118,-0.786375,-0.566794,-0.119549,90.275526,179.248138,86.156061,0.480718,-0.485173,-0.512057,-0.520878,657.180237,94265.625000,-0.315849,-0.087144,1.210754,0.258301,0.337080,15.125000,19.411968,0,5.380000,0, 202
1092, 101,355808,355765,1,1,-0.042869,-0.128115,10.019292,0.006972,0.008611,0.219197,-1.152348,-1.839317,4.918118,-1.024707,0.697734,-0.071639,90.248574,179.247332,85.824769,0.479093,-0.483807,-0.513577,-0.522148,657.173401,94268.539062,-0.486506,-0.060487,1.210754,0.251465,0.340674,15.125000,19.421041,0,5.380000,0, 202
1093, 101,357930,357898,1,1,-0.055502,-0.142011,10.019545,-0.002625,0.005317,0.219703,-1.632874,2.004889,4.437593,-0.284117,-0.766763,-0.843686,90.352905,179.231964,85.263799,0.476899,-0.480923,-0.515397,-0.525021,657.086243,94270.398438,-0.085892,-0.099341,1.210754,0.164307,0.329301,15.125000,19.466413,0,5.380000,0, 202
1094, 101,360060,360039,1,1,-0.080512,-0.151707,10.029490,-0.022377,0.005098,0.229934,-1.632874,-7.125102,5.879170,0.288024,0.351388,-0.223777,90.511693,179.309282,84.500553,0.473985,-0.476882,-0.517581,-0.529181,656.797058,94270.390625,-0.935328,-0.353601,1.210754,-0.124878,0.130850,15.250000,19.470951,0,5.380000,0, 202
1095, 101,362197,362185,1,1,-0.062230,-0.137108,10.016331,0.019489,-0.023148,0.216417,-0.671822,-0.878266,4.437593,-0.560864,-0.599784,-0.946300,90.573493,179.148827,83.602888,0.469742,-0.472912,-0.521910,-0.532266,657.110901,94267.406250,-0.162060,-0.023315,1.210754,0.188965,0.196318,15.250000,19.493637,0,5.380000,0, 202
1096, 101,364338,364335,1,1,-0.025851,-0.154549,10.008030,-0.001523,-0.026877,0.208220,-0.191296,-2.800369,4.918118,-0.849718,0.008068,-0.850640,90.408257,179.148540,83.019044,0.465758,-0.471493,-0.524729,-0.534250,657.026489,94267.351562,-0.071845,-0.210915,1.210754,0.104553,0.128365,15.125000,19.520861,0,5.380000,0, 202
1097, 101,366481,366443,1,1,-0.036091,-0.109914,10.014953,0.049885,-0.074590,0.214219,-1.632874,2.004889,4.437593,-0.504482,1.221149,-1.468801,90.711838,179.117367,82.658089,0.465774,-0.468153,-0.524044,-0.537834,657.157715,94265.367188,-0.060812,-0.256122,1.210754,0.235779,0.176934,15.250000,19.534472,0,5.380000,0, 202
1098, 101,368628,368588,1,1,-0.025488,-0.126371,10.018559,0.007472,-0.038884,0.218310,-1.152348,-1.358791,4.437593,-0.274489,0.037575,-0.295386,90.466662,179.261703,82.050332,0.462592,-0.465685,-0.528266,-0.538592,657.191040,94268.250000,0.191055,0.097527,1.210754,0.269104,0.202182,15.125000,19.557158,0,5.380000,0, 202
1099, 101,370784,370747,1,1,0.005636,-0.133912,10.013708,0.006798,-0.098478,0.213119,-0.671822,-1.358791,4.437593,-0.081041,-0.175943,0.022422,90.646719,179.198796,81.354363,0.459744,-0.462041,-0.529977,-0.542474,657.276733,94265.273438,0.305815,0.223080,1.210754,0.354797,0.256953,15.375000,19.575306,0,5.380000,0, 202
1100, 101,373072,373063,1,1,0.022004,-0.119829,10.006909,0.022718,-0.037916,0.206553,0.769756,-1.358791,6.359696,-1.073163,0.819396,-1.620605,90.205455,179.172500,80.549732,0.453801,-0.460410,-0.536596,-0.542358,657.105957,94270.125000,-0.190358,-0.001394,1.210754,0.184021,0.233434,15.375000,19.593454,0,5.380000,0, 202
1101, 101,375152,375134,1,1,-0.094503,-0.137315,10.005396,-0.005463,0.067259,0.205557,-0.671822,-2.800369,4.918118,-0.020171,-0.022083,0.156385,90.282793,179.349416,80.127299,0.453171,-0.457069,-0.537234,-0.545073,657.299561,94266.171875,0.545163,0.014889,1.210754,0.377625,0.272005,15.250000,19.611603,0,5.380000,0, 202
1102, 101,377235,377206,1,1,0.001182,-0.131150,10.015409,0.002555,-0.087523,0.214885,-1.152348,-1.839317,4.437593,-0.432682,0.474518,-1.136849,90.630962,179.246526,79.481805,0.450982,-0.453154,-0.537723,-0.549655,657.264587,94272.000000,-0.025485,0.157667,1.210754,0.342651,0.505940,15.250000,19.629751,0,5.380000,0, 202
1103, 101,379331,379320,1,1,-0.058585,-0.159205,10.051571,-0.035003,-0.001820,0.251941,1.250281,-4.722473,5.398644,-0.263459,-1.425001,0.627987,90.515135,179.374797,78.732308,0.447535,-0.449468,-0.541741,-0.551550,657.410767,94263.132812,0.080958,-0.036305,1.210754,0.488831,0.410254,15.375000,19.656973,0,5.380000,0, 202
1104, 101,381425,381398,1,1,-0.013402,-0.109308,9.973859,0.022506,0.004886,0.173440,-3.074451,-6.644576,4.918118,-0.015544,0.094432,-0.241007,90.178325,179.272726,77.948380,0.441948,-0.447542,-0.546031,-0.553388,657.275208,94263.109375,-0.054955,0.027445,1.210754,0.353271,0.245526,15.375000,19.666046,0,5.380000,0, 202
1105, 101,383527,383523,1,1,-0.005373,-0.140322,10.022152,-0.013140,-0.011106,0.222121,-0.671822,-0.878266,5.398644,-0.059964,0.413431,-0.308221,90.267268,179.298668,77.486488,0.439635,-0.445414,-0.547515,-0.555477,657.293640,94268.906250,0.603176,0.264000,1.210754,0.371704,0.311682,15.375000,19.697805,0,5.380000,0, 202
1106, 101,385629,385606,1,1,-0.078527,-0.146306,10.007169,0.021750,0.009718,0.207518,0.769756,-0.878266,3.957067,-0.191012,-0.104695,-0.796514,90.574927,179.164085,76.669440,0.436744,-0.440435,-0.548635,-0.560599,657.208679,94266.929688,0.390737,0.113195,1.210754,0.286743,0.253342,15.375000,19.706879,0,5.380000,0, 202
1107, 101,387745,387741,1,1,-0.042812,-0.114686,9.992214,0.008065,0.004179,0.191960,-0.191296,-1.839317,5.879170,-0.261258,1.116024,0.493153,90.371462,179.373827,76.181621,0.434881,-0.437567,-0.552364,-0.560632,657.091553,94270.789062,0.164956,0.026239,1.210754,0.169617,0.174432,15.375000,19.729565,0,5.380000,0, 202
1108, 101,389933,389925,1,1,0.003179,-0.140398,10.005775,0.010765,0.022315,0.205730,-0.191296,-1.839317,6.359696,-0.162679,-1.756137,-1.222698,90.042193,179.152420,76.499785,0.434521,-0.440997,-0.551498,-0.559073,656.989685,94268.789062,0.291307,-0.081495,1.210754,0.067749,0.054470,15.375000,19.747711,0,5.380000,0, 202
1109, 101,392044,392015,1,1,-0.051370,-0.130765,9.991854,0.014038,0.040713,0.191749,-0.671822,-4.241947,5.398644,0.271597,-0.882223,-0.867617,90.236921,179.265514,75.721847,0.431301,-0.436663,-0.554309,-0.562180,657.106323,94270.703125,0.190480,0.094954,1.210754,0.184387,0.217253,15.375000,19.765860,0,5.380000,0, 202
1110, 101,394161,394152,1,1,-0.054486,-0.164818,10.017284,-0.025216,-0.038653,0.217682,-2.593925,-1.839317,3.957067,-0.295230,0.012364,-0.298536,90.763946,179.312997,75.141479,0.429279,-0.433017,-0.554587,-0.566260,657.347778,94262.843750,-0.050752,0.201015,1.210754,0.425842,0.344041,15.375000,19.779470,0,5.380000,0, 202
1111, 101,396280,396246,1,1,0.088920,-0.151674,10.016033,0.018850,-0.025075,0.216527,0.289230,0.563312,3.957067,0.069032,0.744027,-1.202899,89.895644,178.917543,73.883051,0.419221,-0.430672,-0.561633,-0.568632,656.985291,94271.585938,-0.371144,-0.105674,1.210754,0.063354,0.195572,15.500000,19.806690,0,5.380000,0, 202
1112, 101,398413,398382,1,1,-0.154287,-0.123829,10.010622,0.023221,0.183553,0.209867,-0.671822,-0.397740,3.957067,0.455940,0.502835,-0.077271,89.995891,179.434629,73.703950,0.421275,-0.426889,-0.563739,-0.567883,657.333252,94265.625000,0.306649,0.168181,1.210754,0.411316,0.353888,15.500000,19.842985,0,5.380000,0, 202
1113, 101,400552,400529,1,1,-0.295106,-0.117060,10.035344,0.064621,0.053983,0.239012,-0.671822,-8.566679,4.437593,0.640834,0.289970,1.353618,91.497720,179.480678,73.122011,0.426814,-0.415623,-0.558364,-0.577336,657.426697,94262.695312,-0.234387,-0.039305,1.210754,0.504761,0.488742,15.500000,19.838449,0,5.380000,0, 202
1114, 101,402691,402679,1,1,-0.089801,-0.088260,10.026059,0.018269,-0.072950,0.225568,-1.632874,-1.358791,4.918118,0.802774,0.081623,0.034364,91.060034,179.573064,72.127433,0.417098,-0.415444,-0.566948,-0.576199,657.599304,94265.585938,0.251420,0.107671,1.210754,0.677368,0.610122,15.500000,19.856596,0,5.380000,0, 202
1115, 101,404837,404831,1,1,-0.060861,-0.154450,10.024252,-0.020770,-0.065654,0.224390,0.289230,-1.839317,4.918118,-0.442253,-0.002301,-0.550990,90.978092,179.386094,72.053817,0.414621,-0.417166,-0.566025,-0.577648,657.335510,94265.554688,-0.638294,-0.305630,1.210754,0.413574,0.521773,15.500000,19.870207,0,5.380000,0, 202
1116, 101,407062,407048,1,1,-0.028664,-0.137036,10.024141,-0.040471,-0.097055,0.223567,0.289230,-0.878266,5.398644,0.076307,1.343716,-0.284696,90.957527,179.539923,71.586632,0.414715,-0.412409,-0.567066,-0.579971,657.506958,94261.593750,-0.390101,0.182807,1.210754,0.585022,0.563253,15.500000,19.888353,0,5.380000,0, 202
1117, 101,409208,409190,1,1,-0.043311,-0.144355,10.017825,-0.004335,-0.052807,0.217819,0.289230,-3.280895,4.918118,-0.069557,-0.459661,-0.466173,90.803404,179.323721,71.126489,0.410749,-0.411772,-0.568712,-0.581632,657.530823,94264.460938,0.928909,-0.018887,1.210754,0.608887,0.508155,15.500000,19.915575,0,5.380000,0, 202
1118, 101,411359,411346,1,1,-0.001347,-0.042820,9.993779,0.130122,-0.010653,0.192018,-0.671822,-2.319843,4.918118,0.279256,0.222556,-1.258336,90.150875,179.025364,70.360190,0.406217,-0.408594,-0.576380,-0.579504,657.377869,94266.398438,0.189201,-0.013957,1.210754,0.455933,0.403712,15.500000,19.924648,0,5.380000,0, 202
1119, 101,413566,413557,1,1,-0.299736,-0.000097,10.020646,0.258226,0.078355,0.220495,0.289230,-0.878266,4.437593,-0.111329,-0.795942,-3.153276,91.156586,179.125659,69.408348,0.402224,-0.402968,-0.572298,-0.590175,657.001465,94272.210938,-0.275398,-0.163001,1.210754,0.079529,0.266993,15.625000,19.947330,0,5.380000,0, 202
1120, 101,415649,415628,1,1,-0.035538,-0.140558,10.006821,0.036204,0.005004,0.206804,-0.671822,-1.358791,4.437593,0.144161,0.122817,-0.733320,90.450727,179.115072,68.911411,0.397133,-0.402991,-0.577638,-0.588403,657.432739,94264.328125,0.521729,0.138873,1.210754,0.510803,0.403887,15.625000,19.965479,0,5.380000,0, 202
1121, 101,417737,417699,1,1,-0.039245,-0.123304,10.021043,0.048049,-0.019295,0.220744,-0.191296,-0.397740,4.437593,-0.832117,-0.206183,-0.558694,90.578581,179.152542,68.385842,0.395068,-0.399706,-0.578953,-0.590737,657.233887,94265.273438,-0.062563,-0.220056,1.210754,0.311951,0.346543,15.625000,19.979088,0,5.380000,0, 202
1122, 101,419828,419805,1,1,-0.039648,-0.099811,10.025899,0.040543,-0.024682,0.225362,-0.191296,-0.878266,4.437593,0.491556,0.158822,-0.248434,90.566157,179.325647,67.822535,0.393002,-0.396010,-0.581580,-0.592022,657.147339,94265.242188,-0.634482,0.096366,1.210754,0.225403,0.349142,15.625000,19.992699,0,5.380000,0, 202
1123, 101,421929,421927,1,1,-0.046102,-0.157644,10.017679,-0.045432,0.015415,0.217911,-1.152348,1.043838,4.918118,-0.463795,0.565632,-0.633783,90.504173,179.530785,67.207292,0.390658,-0.392038,-0.584728,-0.593115,657.397278,94266.195312,0.872805,-0.195269,1.210754,0.475342,0.364726,15.750000,20.001772,0,5.380000,0, 202
1124, 101,424124,424118,1,1,-0.037301,-0.139260,10.018758,0.012585,0.021246,0.218765,-1.632874,-3.761421,3.957067,0.471947,0.510348,0.118474,90.392090,179.283108,66.461463,0.385840,-0.389181,-0.586654,-0.596241,657.312317,94264.164062,-0.234566,-0.048053,1.210754,0.390381,0.370822,15.625000,20.028992,0,5.380000,0, 202
1125, 101,426221,426198,1,1,-0.032970,-0.141854,10.015220,-0.021521,0.026710,0.215220,-0.191296,-0.878266,4.437593,-0.187776,-0.114534,0.499341,90.346409,179.456131,66.270300,0.384876,-0.388160,-0.588480,-0.595729,657.128967,94266.046875,-0.368418,-0.135469,1.210754,0.207031,0.232669,15.750000,20.056211,0,5.380000,0, 202
1126, 101,428328,428286,1,1,-0.031947,-0.132057,10.021118,-0.011576,-0.019130,0.209439,-2.113400,0.082786,3.476542,-0.010957,-0.531104,-0.479271,90.689134,179.309323,65.573136,0.381634,-0.384194,-0.588542,-0.600307,657.183655,94267.960938,0.096495,-0.051038,1.210754,0.261719,0.241034,15.875000,20.074358,0,5.380000,0, 202
1127, 101,430441,430413,1,1,0.029056,-0.266575,10.026485,-0.223392,0.038365,0.226509,0.289230,-1.358791,5.398644,-0.283359,-0.414436,-1.802799,90.283640,179.829086,64.620468,0.377996,-0.377907,-0.595576,-0.599662,657.199707,94265.976562,0.164837,-0.239554,1.210754,0.277771,0.192014,15.750000,20.083429,0,5.380000,0, 202
1128, 101,432557,432548,1,1,-0.151534,-0.077896,10.009654,0.275555,0.050001,0.206186,0.289230,-1.839317,4.918118,0.250471,-1.039941,-0.914791,90.689087,178.403107,63.934867,0.376633,-0.372306,-0.594248,-0.605315,656.980164,94269.843750,-0.894525,-0.298080,1.210754,0.058228,0.194773,15.750000,20.101576,0,5.380000,0, 202
1129, 101,434675,434644,1,1,-0.096236,-0.112644,10.007779,-0.012928,0.108564,0.207279,-0.191296,-1.839317,4.918118,0.208112,-0.238822,0.336410,90.158531,179.740963,63.628956,0.371924,-0.373609,-0.599194,-0.602541,657.435791,94261.960938,0.624701,0.105891,1.210754,0.513855,0.340033,15.875000,20.119722,0,5.380000,0, 202
1130, 101,436804,436785,1,1,-0.085597,-0.156183,10.003892,0.008236,-0.018519,0.204457,-0.191296,-0.397740,4.437593,-0.291153,0.690385,-0.818818,90.950615,179.380971,62.824736,0.368265,-0.368837,-0.597074,-0.609789,657.177551,94265.835938,0.006502,-0.187374,1.210754,0.255615,0.261072,15.875000,20.133331,0,5.380000,0, 202
1131, 101,438941,438937,1,1,-0.076050,-0.134966,10.011007,-0.007254,0.012691,0.211195,0.769756,-1.358791,4.437593,-0.041056,-1.352914,0.728147,90.671745,179.559936,62.299228,0.365603,-0.365940,-0.599713,-0.610546,657.297729,94266.757812,0.117207,0.105311,1.210754,0.375793,0.368942,15.875000,20.156015,0,5.380000,0, 202
1132, 101,441156,441136,1,1,-0.077083,-0.152490,10.034213,0.012973,0.045125,0.234558,-1.632874,-1.358791,4.437593,-0.440660,0.500270,0.348543,90.541493,179.366341,61.815603,0.362672,-0.363773,-0.600767,-0.612550,657.381104,94263.789062,-0.325271,0.072487,1.210754,0.459167,0.474630,15.875000,20.165087,0,5.380000,0, 202
1133, 101,443288,443279,1,1,-0.069573,-0.110244,10.003731,0.007799,-0.000556,0.203577,-0.191296,-1.358791,4.437593,1.055829,0.520052,-0.216481,90.655530,179.592202,61.356388,0.360887,-0.360679,-0.603503,-0.612745,657.409424,94260.804688,-0.578410,-0.100274,1.210754,0.487488,0.508908,15.875000,20.183233,0,5.380000,0, 202
1134, 101,445422,445380,1,1,-0.238266,0.001158,10.000890,0.264636,0.107122,0.198653,-0.191296,-0.397740,4.437593,0.209393,1.324357,-0.847424,90.577031,179.151450,60.996096,0.356167,-0.361576,-0.603513,-0.614964,657.439575,94265.664062,0.174815,-0.026262,1.210754,0.517639,0.462260,15.750000,20.196842,0,5.380000,0, 202
1135, 101,447562,447533,1,1,-0.173546,-0.191991,10.014763,0.102781,0.116339,0.215903,-0.671822,-1.358791,3.957067,-1.126358,0.654322,-1.050326,90.739063,178.944003,60.537196,0.353105,-0.359763,-0.603425,-0.617871,657.382324,94262.695312,0.095437,-0.013440,1.210754,0.460388,0.386850,15.875000,20.205915,0,5.380000,0, 202
1136, 101,449712,449675,1,1,-0.087762,-0.167438,10.028525,-0.026905,0.122458,0.228523,0.769756,-0.397740,4.918118,-0.715136,-0.497346,0.151065,90.207476,179.567504,60.533405,0.354741,-0.358061,-0.608261,-0.613163,657.487244,94264.593750,0.313726,0.233763,1.210754,0.565308,0.511409,15.875000,20.228598,0,5.380000,0, 202
1137, 101,451865,451833,1,1,-0.061219,-0.129096,10.020205,0.044277,0.033755,0.220068,-0.671822,-2.800369,4.918118,0.803144,0.357116,0.630613,90.481702,179.286223,59.690813,0.349565,-0.354247,-0.608528,-0.618068,657.290466,94267.492188,0.502105,0.102760,1.210754,0.368530,0.377460,15.875000,20.242207,0,5.380000,0, 202
1138, 101,454072,454045,1,1,-0.003690,-0.153480,10.006149,-0.042680,-0.040929,0.206152,0.289230,-0.397740,4.437593,-0.361522,0.213367,-0.390108,90.701641,179.499844,59.261781,0.349066,-0.350150,-0.609321,-0.619900,657.413208,94263.531250,0.141863,0.072137,1.210754,0.491272,0.400179,15.875000,20.255816,0,5.380000,0, 202
1139, 101,456160,456158,1,1,-0.045696,-0.133207,10.027540,0.002512,0.032280,0.227477,-1.152348,-1.358791,4.918118,0.493568,-1.287332,-0.235693,90.432053,179.468575,58.920791,0.346807,-0.348748,-0.610865,-0.620438,657.230774,94265.437500,-0.222254,-0.167626,1.210754,0.308838,0.352135,15.875000,20.273962,0,5.380000,0, 202
1140, 101,458323,458296,1,1,-0.044788,-0.105204,9.979796,0.005216,-0.036698,0.179383,0.769756,-1.839317,5.398644,-0.999353,0.769536,-0.434252,90.743906,179.587229,58.735700,0.346812,-0.346749,-0.610961,-0.621460,657.282654,94269.328125,0.362901,0.163902,1.210754,0.360718,0.372198,15.875000,20.283035,0,5.380000,0, 202
1141, 101,460407,460401,1,1,-0.058536,-0.146301,10.016918,-0.018788,0.002676,0.217140,-0.671822,-0.878266,4.437593,-0.116407,0.423632,0.448231,90.709120,179.571301,58.311019,0.343832,-0.345148,-0.612017,-0.622967,657.363220,94266.312500,0.738870,-0.000266,1.210754,0.441284,0.350265,15.875000,20.310253,0,5.380000,0, 202
1142, 101,462495,462473,1,1,-0.039566,-0.146560,10.013523,-0.022553,-0.028724,0.213607,-0.191296,-0.397740,4.918118,0.109148,-0.166056,-0.336922,90.806334,179.544035,57.446365,0.339750,-0.339903,-0.614353,-0.625784,657.304688,94264.328125,0.201652,0.036540,1.210754,0.382751,0.321956,15.875000,20.319324,0,5.380000,0, 202
1143, 101,464594,464552,1,1,-0.049628,-0.142544,10.024453,0.002017,0.010682,0.224584,-0.671822,-1.358791,4.437593,-0.252105,0.150918,0.702010,90.620020,179.459068,57.053079,0.336592,-0.338803,-0.616281,-0.626192,657.374084,94263.304688,-0.455911,0.032023,1.210754,0.452148,0.436976,16.000000,20.332933,0,5.380000,0, 202
1144, 101,466699,466683,1,1,-0.029325,-0.142048,10.028257,-0.004215,0.006457,0.228303,-1.632874,-1.839317,4.437593,-0.301035,-0.516842,-0.361584,90.550782,179.439875,56.494189,0.333226,-0.336099,-0.618249,-0.627508,657.393066,94259.351562,-0.497414,-0.180804,1.210754,0.471130,0.424083,16.000000,20.346542,0,5.380000,0, 202
1145, 101,468801,468766,1,1,-0.025069,-0.123689,10.010602,-0.005296,-0.027679,0.210358,-1.152348,-0.397740,3.957067,-0.742988,1.165248,-0.778242,90.676779,179.527315,55.594171,0.329127,-0.330393,-0.620431,-0.630540,657.492188,94262.257812,0.562555,-0.183038,1.210754,0.570251,0.397415,16.000000,20.355616,0,5.380000,0, 202
1146, 101,470913,470885,1,1,-0.050541,-0.132885,10.019500,0.009484,0.010198,0.219499,-0.671822,-2.800369,4.918118,-0.501608,-0.328156,-0.339120,90.614583,179.489585,54.957345,0.325235,-0.327324,-0.622492,-0.632128,657.267273,94270.000000,0.176851,0.002580,1.210754,0.345337,0.420749,16.000000,20.387369,0,5.380000,0, 202
1147, 101,473033,473018,1,1,-0.057364,-0.116221,10.017395,0.005642,0.007059,0.217229,-1.632874,-0.878266,4.437593,0.243659,0.291408,-0.670193,90.614071,179.619618,54.278448,0.322457,-0.322654,-0.624675,-0.633796,657.466736,94264.109375,0.183724,0.163598,1.210754,0.544800,0.495046,16.000000,20.391907,0,5.380000,0, 202
1148, 101,475231,475216,1,1,-0.044593,-0.131702,10.017967,0.001321,-0.006304,0.217930,-0.191296,-1.358791,5.398644,-0.567798,0.280880,0.221410,90.687543,179.536467,53.691605,0.318694,-0.319966,-0.625797,-0.635951,657.247253,94266.992188,-0.370486,-0.045179,1.210754,0.325317,0.352555,16.000000,20.410051,0,5.380000,0, 202
1149, 101,477345,477303,1,1,-0.024009,-0.108243,10.021274,0.000919,-0.001682,0.220887,-1.152348,-1.839317,5.398644,-0.374157,-0.109726,-0.348383,90.490451,179.581697,53.168785,0.315492,-0.317400,-0.628472,-0.636195,657.418884,94266.937500,0.026631,0.184262,1.210754,0.496948,0.536500,16.125000,20.428196,0,5.380000,0, 202
1150, 101,479467,479447,1,1,-0.055474,-0.128395,10.022954,0.019031,0.017745,0.222896,-0.191296,-2.800369,4.918118,-0.008019,0.619734,0.357294,90.592364,179.493915,53.162996,0.315259,-0.317574,-0.627677,-0.637009,657.540710,94263.984375,0.185115,0.233295,1.210754,0.618774,0.572194,16.125000,20.432732,0,5.380000,0, 202
1151, 101,481594,481579,1,1,-0.064183,-0.135471,10.021503,0.030617,0.022796,0.221552,-0.191296,-0.878266,4.918118,-1.033313,0.168317,-0.219419,90.630142,179.429793,52.807020,0.313030,-0.315874,-0.628271,-0.638366,657.669922,94263.914062,0.315616,0.080373,1.210754,0.747986,0.706373,16.125000,20.455412,0,5.380000,0, 202
1152, 101,483727,483721,1,1,-0.013522,-0.112605,10.001909,0.008398,-0.061909,0.201357,-1.632874,-4.722473,6.359696,-0.891623,2.141294,-0.968864,90.807406,179.486006,52.664167,0.312395,-0.314929,-0.629730,-0.637707,657.750183,94254.093750,-0.348955,0.060135,1.210754,0.828247,0.648463,16.125000,20.464485,0,5.380000,0, 202
1153, 101,485866,485825,1,1,0.002789,-0.129988,10.005674,-0.036671,-0.035651,0.205388,-0.191296,-1.358791,3.957067,0.534071,-0.835233,0.628197,90.645585,179.610493,52.402690,0.311814,-0.312610,-0.629795,-0.639066,657.838257,94260.867188,0.151198,0.094726,1.210754,0.916321,0.859267,16.125000,20.491703,0,5.380000,0, 202
1154, 101,488011,487978,1,1,-0.051574,-0.118669,10.014763,0.001300,-0.013233,0.214590,0.289230,-1.358791,4.918118,-0.782318,1.170551,-0.901120,90.729863,179.646133,51.393263,0.306596,-0.306625,-0.632149,-0.642159,657.633240,94261.859375,-0.795969,0.046409,1.210754,0.711304,0.867531,16.125000,20.487165,0,5.380000,0, 202
1155, 101,490159,490132,1,1,-0.048800,-0.139785,10.029481,-0.004524,-0.008849,0.229569,-0.671822,-0.878266,4.918118,0.282779,0.167344,-0.874541,90.774191,179.588063,50.414886,0.300896,-0.301426,-0.634339,-0.645149,657.764282,94256.890625,-0.430494,0.077646,1.210754,0.842346,0.748666,16.125000,20.509848,0,5.380000,0, 202
1156, 101,492388,492380,1,1,-0.044876,-0.155905,10.025148,-0.021238,0.002149,0.225438,-0.191296,-1.839317,4.918118,0.242398,0.708255,-0.878052,90.758379,179.605958,49.831076,0.297076,-0.298709,-0.635656,-0.646885,657.695190,94260.734375,-0.051458,-0.017423,1.210754,0.773254,0.738669,16.125000,20.532528,0,5.380000,0, 202
1157, 101,494538,494493,1,1,-0.083866,-0.115732,10.000652,0.015355,-0.001322,0.216239,-0.671822,-2.319843,4.437593,-0.890388,-0.177775,-0.425438,90.686464,179.516127,49.363150,0.294334,-0.296223,-0.637387,-0.647578,657.646484,94264.625000,0.431775,-0.134712,1.210754,0.724548,0.663124,16.125000,20.541599,0,5.380000,0, 202
1158, 101,496741,496698,1,1,-0.032963,-0.129566,10.021940,-0.003482,-0.017394,0.221816,-1.152348,-1.358791,5.398644,-0.234524,1.276304,-1.045834,90.728647,179.586055,48.859031,0.291982,-0.292914,-0.638626,-0.648926,657.622864,94260.648438,0.431011,-0.122218,1.210754,0.700928,0.618393,16.250000,20.559744,0,5.380000,0, 202
1159, 101,498822,498813,1,1,-0.051548,-0.135804,10.027405,0.007765,-0.005928,0.227452,-0.191296,-1.358791,4.437593,-0.527384,0.125673,0.381800,90.770243,179.572804,48.253323,0.288578,-0.289504,-0.639895,-0.650726,657.597595,94260.609375,-0.197193,0.098094,1.210754,0.675659,0.631677,16.250000,20.573353,0,5.380000,0, 202
1160, 101,500909,500877,1,1,-0.034868,-0.123432,10.038068,0.005159,-0.000272,0.237886,-0.671822,-1.358791,5.879170,0.342396,-1.078259,-0.060220,90.621850,179.581779,47.850734,0.285968,-0.287574,-0.641775,-0.650883,657.480225,94266.382812,-0.809608,0.031576,1.210754,0.558289,0.748015,16.125000,20.605104,0,5.380000,0, 202
1161, 101,503006,503003,1,1,-0.060337,-0.145909,9.994242,-0.035851,0.022496,0.194399,-0.671822,-1.358791,5.398644,0.677408,-0.289490,0.330853,90.692713,179.825931,47.261115,0.283398,-0.283456,-0.642335,-0.653256,657.555481,94264.414062,-0.203244,-0.015039,1.210754,0.633545,0.639587,16.250000,20.609640,0,5.380000,0, 202
1162, 101,505104,505085,1,1,-0.070810,-0.126975,10.033542,0.024135,0.015095,0.233555,-0.671822,-6.164050,5.879170,0.412657,0.320170,-0.387599,90.705786,179.613321,46.590401,0.279176,-0.280114,-0.644498,-0.654385,657.536987,94263.390625,-0.370597,0.194821,1.210754,0.615051,0.690197,16.250000,20.623249,0,5.380000,0, 202
1163, 101,507208,507167,1,1,-0.046189,-0.110784,10.008464,0.036674,-0.018808,0.208099,-1.632874,-7.125102,5.398644,-0.171341,0.742939,-0.782523,90.737936,179.516441,46.098248,0.275893,-0.277819,-0.645273,-0.655989,657.585449,94262.359375,0.940509,0.041855,1.210754,0.663513,0.492297,16.375000,20.636856,0,5.380000,0, 202
1164, 101,509392,509357,1,1,-0.025385,-0.123634,10.019057,-0.049274,0.008407,0.218728,-0.671822,-0.878266,4.437593,-0.057003,-0.130366,-0.787496,90.551008,179.879261,45.498772,0.274067,-0.272811,-0.648665,-0.655512,657.443970,94263.312500,0.330905,-0.024876,1.210754,0.522034,0.446256,16.250000,20.645929,0,5.380000,0, 202
1165, 101,511497,511476,1,1,-0.049365,-0.163659,10.006367,-0.035246,0.019762,0.206745,0.289230,-4.241947,4.918118,0.245772,-0.828663,0.435018,90.749732,179.739925,44.942870,0.270561,-0.269990,-0.648508,-0.658285,657.254883,94269.132812,-0.242758,-0.029391,1.210754,0.332947,0.485850,16.250000,20.664072,0,5.380000,0, 202
1166, 101,513609,513608,1,1,-0.017564,-0.120120,10.010929,-0.001014,0.001599,0.210665,-0.191296,-1.358791,4.437593,-0.314336,-0.266264,0.311847,90.551875,179.595986,44.465467,0.266524,-0.268584,-0.650365,-0.658675,657.532654,94266.164062,0.567415,0.197070,1.210754,0.610718,0.550727,16.375000,20.673143,0,5.380000,0, 202
1167, 101,515722,515701,1,1,-0.051561,-0.125694,10.017746,0.018904,-0.002689,0.217649,-0.191296,-2.800369,4.437593,-0.381758,-0.085604,-0.294772,90.738189,179.606818,43.826858,0.263353,-0.264454,-0.650863,-0.661126,657.420105,94266.117188,0.474117,0.085131,1.210754,0.498169,0.476787,16.375000,20.686752,0,5.380000,0, 202
1168, 101,517850,517841,1,1,-0.105973,-0.144063,10.004890,0.057304,0.063702,0.205122,-1.152348,-0.878266,4.437593,0.442826,-0.081599,-0.807492,90.652067,179.549978,43.170849,0.261496,-0.258820,-0.651504,-0.663456,657.510925,94261.171875,0.193211,0.050005,1.210754,0.588989,0.475919,16.375000,20.700359,0,5.380000,0, 202
1169, 101,519972,519932,1,1,-0.057883,-0.115784,10.025102,0.053535,0.081654,0.224462,-1.152348,-0.878266,4.918118,-0.521136,0.873344,2.743811,90.239517,179.473548,43.901037,0.261863,-0.266784,-0.653250,-0.658421,657.422974,94262.125000,-0.278044,0.052625,1.210754,0.501038,0.498690,16.375000,20.709433,0,5.380000,0, 202
1170, 101,522105,522068,1,1,-0.000226,-0.091758,10.011717,-0.011649,-0.101086,0.210620,-0.191296,-1.839317,5.398644,0.348718,0.283396,0.204255,90.960901,179.706799,43.400128,0.261967,-0.260944,-0.650787,-0.663143,657.346008,94264.039062,-0.704736,0.147158,1.210754,0.424072,0.554196,16.375000,20.723040,0,5.380000,0, 202
1171, 101,524239,524214,1,1,0.015628,-0.147468,10.013302,-0.091048,-0.041342,0.212901,-0.191296,-1.839317,3.476542,-0.763712,0.227939,-0.472471,90.793882,179.881173,42.889152,0.259626,-0.257409,-0.653309,-0.662965,657.342407,94263.976562,-0.205734,-0.080182,1.210754,0.420471,0.400334,16.500000,20.741182,0,5.380000,0, 202
1172, 101,526455,526422,1,1,-0.034934,-0.142952,10.025991,-0.000459,0.048542,0.225954,-3.074451,-7.605628,5.398644,-0.577949,0.097824,0.039835,90.460419,179.599141,42.404652,0.254461,-0.257018,-0.655686,-0.662772,657.258423,94265.875000,-0.629080,0.008868,1.210754,0.336487,0.422376,16.375000,20.759327,0,5.380000,0, 202
1173, 101,528595,528570,1,1,-0.056572,-0.124003,10.019580,0.004832,-0.011768,0.219499,-1.152348,-0.878266,4.918118,0.402981,-0.336695,0.407827,90.810131,179.736619,42.129782,0.254436,-0.253875,-0.654582,-0.665080,657.404785,94264.867188,-0.633890,0.013238,1.210754,0.482849,0.630046,16.375000,20.768398,0,5.380000,0, 202
1174, 101,530740,530723,1,1,-0.054197,-0.159216,10.012784,-0.073231,0.027435,0.212891,-1.152348,-1.839317,3.957067,0.169535,0.228991,0.101494,90.731509,-179.950718,41.392920,0.249890,-0.249868,-0.655706,-0.667211,657.566711,94261.875000,-0.113168,0.059834,1.210754,0.644775,0.500054,16.375000,20.782005,0,5.380000,0, 202
1175, 101,532888,532865,1,1,-0.041374,-0.100521,10.010491,0.027459,-0.003227,0.210043,-0.191296,0.563312,4.918118,0.432743,0.346227,0.100381,90.609378,179.648168,40.605051,0.244625,-0.246087,-0.658880,-0.667440,657.474304,94265.773438,0.366492,0.044765,1.210754,0.552368,0.558084,16.375000,20.791079,0,5.380000,0, 202
1176, 101,535041,535023,1,1,-0.009022,-0.175738,10.026661,-0.049371,0.028890,0.227042,-0.671822,-1.358791,4.918118,-0.389362,-0.224214,0.248137,90.632143,179.669397,40.481981,0.242916,-0.246351,-0.657646,-0.669182,657.445740,94262.796875,-0.666887,-0.116991,1.210754,0.523804,0.591624,16.500000,20.800150,0,5.380000,0, 202
1177, 101,537249,537232,1,1,-0.058793,-0.157863,10.024067,0.003618,0.032352,0.224429,-0.191296,-2.319843,4.918118,0.354780,-0.235748,-0.329362,90.722766,179.658236,39.906084,0.240846,-0.241767,-0.659728,-0.669552,657.562073,94262.718750,-0.168946,0.078797,1.210754,0.640137,0.647294,16.500000,20.822828,0,5.380000,0, 202
1178, 101,539332,539303,1,1,-0.028943,-0.154652,10.021509,-0.009803,0.001589,0.221739,0.289230,-1.358791,5.398644,-0.600337,0.311114,-0.218590,90.779512,179.623416,39.348078,0.237500,-0.238637,-0.660492,-0.671115,657.630798,94262.703125,0.082456,0.116117,1.210754,0.708862,0.686202,16.500000,20.827364,0,5.380000,0, 202
1179, 101,541601,541594,1,1,-0.037450,-0.117930,10.028502,0.001676,-0.031865,0.228215,-0.671822,1.524364,5.879170,0.122002,-0.236870,-0.188145,90.840389,179.732986,38.974132,0.236068,-0.235714,-0.661139,-0.672016,657.592468,94261.593750,-0.143182,0.198940,1.210754,0.670532,0.716391,16.500000,20.863651,0,5.380000,0, 202
1180, 101,543769,543725,1,1,-0.039257,-0.143068,10.046353,-0.022610,0.022179,0.248774,-0.191296,-1.839317,5.398644,-0.285083,-0.147607,0.219437,90.747403,179.813664,38.551053,0.233863,-0.232989,-0.662717,-0.672183,657.373779,94264.539062,0.087125,-0.193146,1.210754,0.451843,0.472852,16.500000,20.863651,0,5.380000,0, 202
1181, 101,545856,545845,1,1,-0.030285,-0.129791,10.023523,-0.008882,0.001399,0.223405,-0.671822,-1.839317,4.437593,0.475396,-0.592704,0.135509,90.682250,179.728464,38.163317,0.230962,-0.231376,-0.663710,-0.672763,657.491882,94261.578125,-0.429605,0.013758,1.210754,0.569946,0.573981,16.625000,20.868187,0,5.380000,0, 202
1182, 101,547949,547923,1,1,-0.046771,-0.138715,10.027778,-0.008002,0.032119,0.227791,-0.671822,-1.358791,4.918118,0.532191,-0.903409,0.275958,90.609344,179.779458,37.195462,0.225424,-0.225606,-0.666172,-0.674167,657.573608,94262.546875,0.332299,0.006254,1.210754,0.651672,0.608860,16.500000,20.872723,0,5.380000,0, 202
1183, 101,550051,550048,1,1,-0.080637,-0.115209,9.981190,0.039871,-0.013133,0.181092,-0.671822,-0.878266,4.918118,0.406018,-0.395619,0.371753,90.882142,179.744870,36.853225,0.224824,-0.222223,-0.665966,-0.675692,657.453857,94263.429688,-0.641070,-0.091267,1.210754,0.531921,0.611720,16.500000,20.899937,0,5.380000,0, 202
1184, 101,552156,552124,1,1,-0.036790,-0.133696,10.013296,-0.023232,-0.019884,0.213210,-0.671822,-1.358791,5.398644,0.882818,0.666878,0.273856,90.855047,179.850123,36.267106,0.220838,-0.219312,-0.666664,-0.677268,657.517273,94264.382812,0.274392,-0.018334,1.210754,0.595337,0.623153,16.625000,20.909008,0,5.380000,0, 202
1185, 101,554269,554254,1,1,-0.042511,-0.140919,10.018904,-0.028029,-0.025618,0.218913,-1.152348,-1.839317,4.918118,0.275372,-0.040111,-0.766708,90.943217,179.888837,35.600551,0.216184,-0.216124,-0.667990,-0.678487,657.573608,94261.390625,-0.113470,0.003888,1.210754,0.651672,0.579337,16.625000,20.922615,0,5.380000,0, 202
1186, 101,556384,556339,1,1,-0.077898,-0.124998,10.012835,0.029044,-0.006852,0.204591,-1.152348,-1.839317,4.918118,-0.201304,-0.134940,0.255999,90.760783,179.714544,35.108924,0.213014,-0.213541,-0.669150,-0.679164,657.498901,94262.335938,0.131543,-0.081017,1.210754,0.576965,0.531231,16.625000,20.931686,0,5.380000,0, 202
1187, 101,558503,558477,1,1,-0.046731,-0.150980,10.031086,0.002049,0.005710,0.231329,-0.671822,-0.878266,3.957067,-1.113276,-0.221156,-0.273920,90.828006,179.716019,34.752993,0.211036,-0.211329,-0.669414,-0.680212,657.713989,94260.328125,0.527189,0.205707,1.210754,0.792053,0.679613,16.625000,20.945293,0,5.380000,0, 202
1188, 101,560697,560669,1,1,-0.036678,-0.146172,10.023942,-0.047933,-0.007488,0.223957,-0.671822,-0.878266,4.918118,0.286959,0.865292,-0.258036,90.851413,179.977233,34.237068,0.209544,-0.206720,-0.670699,-0.680824,658.012329,94256.359375,0.345043,0.397214,1.210754,1.090393,0.868898,16.625000,20.958900,0,5.380000,0, 202
1189, 101,562824,562803,1,1,-0.102749,-0.139057,10.014030,0.050689,0.034495,0.214335,-3.554977,-6.644576,5.398644,-0.233787,0.237790,-0.645248,90.790467,179.761823,33.457057,0.203533,-0.203540,-0.672067,-0.682255,657.999390,94256.289062,-0.027631,0.133339,1.210754,1.077454,0.926318,16.625000,20.977043,0,5.380000,0, 202
1190, 101,564955,564946,1,1,-0.083351,-0.121852,9.999217,-0.005438,-0.015533,0.199293,-1.152348,-1.358791,4.437593,-0.045985,-1.034722,-0.581879,90.934372,-179.939817,32.407369,0.198972,-0.195649,-0.673993,-0.684006,657.662659,94260.164062,-0.226299,-0.053928,1.210754,0.740723,0.767140,16.625000,20.990650,0,5.380000,0, 202
1191, 101,567090,567087,1,1,-0.089701,-0.136794,10.022553,0.069236,0.049241,0.222528,-0.191296,-1.358791,5.879170,0.146218,1.024048,-0.716726,90.653460,179.621517,32.193639,0.194936,-0.197188,-0.674844,-0.683888,657.928345,94255.226562,0.184566,0.168735,1.210754,1.006409,0.911618,16.625000,20.999722,0,5.380000,0, 202
1192, 101,569227,569194,1,1,-0.024752,-0.115809,9.997616,0.043435,0.046708,0.197114,-1.152348,-0.397740,4.437593,0.171970,-0.810043,-0.456040,90.371934,179.524173,31.596701,0.190318,-0.194719,-0.677377,-0.683392,657.932007,94257.156250,0.434528,0.130213,1.210754,1.010071,0.891012,16.625000,21.008793,0,5.380000,0, 202
1193, 101,571372,571348,1,1,-0.058969,-0.120398,10.017488,0.060115,0.012986,0.217197,-0.671822,-2.319843,4.918118,-0.897240,0.023674,-0.151668,90.689490,179.588486,31.158343,0.188614,-0.191221,-0.676327,-0.685887,657.716431,94262.000000,-0.318984,-0.069512,1.210754,0.794495,0.861577,16.625000,21.026936,0,5.380000,0, 202
1194, 101,573524,573492,1,1,-0.044190,-0.149409,10.024035,0.020101,0.030191,0.224180,-0.191296,-1.358791,4.437593,0.270638,0.661173,-0.552855,90.690548,179.665886,30.726743,0.186489,-0.188207,-0.677165,-0.686475,657.809631,94257.062500,-0.094504,-0.007911,1.210754,0.887695,0.847687,16.750000,21.036007,0,5.380000,0, 202
1195, 101,575680,575651,1,1,-0.068975,-0.148805,10.010080,0.057815,0.051071,0.210127,0.289230,-1.839317,4.918118,-0.216285,-0.758459,-0.202084,90.642245,179.580549,30.280103,0.183228,-0.186155,-0.678043,-0.687046,657.666016,94258.984375,0.269378,-0.001221,1.210754,0.744080,0.689568,16.625000,21.045076,0,5.380000,0, 202
1196, 101,577963,577963,1,1,-0.082833,-0.134412,10.017397,0.053528,0.018142,0.217482,-0.191296,1.524364,5.879170,-0.048726,-0.393384,0.100464,90.798875,179.719161,30.036658,0.182842,-0.183634,-0.677722,-0.688143,657.649902,94261.867188,-0.022743,-0.194951,1.210754,0.727966,0.736530,16.625000,21.063219,0,5.380000,0, 202
1197, 101,580040,580031,1,1,-0.027773,-0.117380,10.011072,-0.049840,-0.046245,0.210568,-0.191296,-2.319843,3.957067,-0.119016,0.007337,-0.467448,90.926798,-179.909983,29.739627,0.183454,-0.179446,-0.678021,-0.688790,657.605469,94263.757812,0.085387,-0.095454,1.210754,0.683533,0.723713,16.750000,21.081362,0,5.380000,0, 202
1198, 101,582120,582099,1,1,-0.040183,-0.120478,10.030457,0.035439,-0.000540,0.230198,-1.632874,0.082786,5.398644,-0.079623,-0.223381,0.243431,90.715636,179.661501,29.255968,0.177677,-0.179488,-0.679367,-0.688967,657.691406,94262.781250,0.115222,0.075909,1.210754,0.769470,0.759135,16.750000,21.081362,0,5.380000,0, 202
1199, 101,584207,584162,1,1,-0.013467,-0.161065,10.017579,-0.001744,0.024827,0.214408,-0.671822,-1.358791,4.437593,0.023924,0.029998,0.732484,90.638284,179.854686,28.993463,0.177126,-0.176890,-0.680544,-0.688619,657.591919,94261.734375,-0.649194,0.114516,1.210754,0.669983,0.715031,16.750000,21.099504,0,5.380000,0, 202
1200, 101,586299,586284,1,1,-0.085390,-0.165601,10.031344,0.021203,0.038406,0.231979,0.289230,-0.878266,5.879170,0.363724,-0.416274,-0.936133,90.844631,179.862500,28.160088,0.172469,-0.171579,-0.680581,-0.691104,657.649414,94262.664062,0.093965,0.273475,1.210754,0.727478,0.714682,16.750000,21.113110,0,5.380000,0, 202
1201, 101,588399,588367,1,1,-0.027052,-0.126236,10.026062,0.001152,-0.002855,0.225893,-0.191296,-0.878266,3.957067,-0.286787,-0.537208,-0.102181,90.726181,179.792559,27.892744,0.170264,-0.170589,-0.681588,-0.690903,657.692261,94258.718750,0.070554,-0.098018,1.210754,0.770325,0.662311,16.750000,21.117645,0,5.380000,0, 202
1202, 101,590505,590492,1,1,-0.016033,-0.125319,10.020219,0.001795,-0.005234,0.220014,1.730806,2.965941,5.879170,-1.032998,0.385225,0.088876,90.707672,179.739747,27.535961,0.167786,-0.168796,-0.682325,-0.691222,657.556885,94263.554688,-0.672285,-0.117502,1.210754,0.634949,0.703149,16.750000,21.135788,0,5.380000,0, 202
1203, 101,592615,592577,1,1,-0.033376,-0.144994,10.022044,0.005005,0.007655,0.222144,-0.191296,-1.839317,4.437593,-0.191724,-0.004866,-0.243268,90.780905,179.763175,27.132083,0.165578,-0.166159,-0.682332,-0.692386,657.524475,94264.437500,-0.168518,-0.132312,1.210754,0.602539,0.686393,16.750000,21.163000,0,5.380000,0, 202
1204, 101,594804,594759,1,1,-0.026258,-0.143273,10.018411,-0.014857,0.010037,0.219919,-1.152348,-0.397740,4.437593,-0.090584,0.089100,-0.634575,90.835833,179.946183,26.861718,0.165114,-0.163364,-0.682655,-0.692843,657.597534,94263.468750,0.435088,-0.071819,1.210754,0.675598,0.655766,16.750000,21.158464,0,5.380000,0, 202
1205, 101,596911,596892,1,1,-0.067160,-0.139924,10.033068,0.036567,-0.001114,0.233201,0.289230,0.082786,5.879170,-0.552925,0.529239,-0.473062,90.892572,179.780442,26.333980,0.161012,-0.161141,-0.682821,-0.694164,657.599976,94261.460938,0.089423,0.074132,1.210754,0.678040,0.617728,16.750000,21.172071,0,5.380000,0, 202
1206, 101,599023,599022,1,1,-0.068396,-0.118515,10.011725,0.060038,0.005377,0.211479,0.289230,-2.319843,4.437593,-0.712511,-0.162621,0.174813,90.749957,179.716675,25.575623,0.155839,-0.157200,-0.684649,-0.694449,657.540955,94262.406250,0.179152,0.002526,1.210754,0.619019,0.575286,16.750000,21.181143,0,5.380000,0, 202
1207, 101,601146,601120,1,1,-0.044720,-0.128194,10.019946,0.023053,0.005786,0.219838,-0.671822,-0.397740,4.918118,-0.430385,0.033500,-0.617234,90.738858,179.785933,25.312480,0.154643,-0.155223,-0.685170,-0.694646,657.459106,94263.335938,0.586979,-0.028407,1.210754,0.537170,0.494078,16.875000,21.194748,0,5.380000,0, 202
1208, 101,603272,603249,1,1,-0.010443,-0.139677,10.024289,0.003077,-0.002973,0.224267,-1.152348,-1.358791,4.437593,-0.185016,-0.511500,-0.288188,90.768426,179.706389,24.444345,0.148938,-0.150472,-0.686041,-0.696077,657.326416,94267.210938,0.191370,0.038060,1.210754,0.404480,0.443041,16.875000,21.208355,0,5.380000,0, 202
1209, 101,605408,605395,1,1,0.002492,-0.129233,10.009876,-0.028162,-0.025390,0.209639,-3.554977,-4.241947,5.398644,0.449231,-0.188306,0.128750,90.816777,179.850601,23.718148,0.144402,-0.146219,-0.687484,-0.696516,657.218445,94267.156250,-0.220438,-0.076497,1.210754,0.296509,0.392649,16.875000,21.221962,0,5.380000,0, 202
1210, 101,607546,607540,1,1,-0.014559,-0.126966,10.018036,-0.006811,-0.009331,0.217844,-1.152348,-1.839317,5.398644,-0.019145,-0.339270,-0.893953,90.753871,179.830480,23.113531,0.141299,-0.142027,-0.688236,-0.697276,657.390869,94264.164062,-0.032981,-0.019641,1.210754,0.468933,0.455856,16.875000,21.235567,0,5.380000,0, 202
1211, 101,609688,609644,1,1,-0.027008,-0.135288,10.023959,0.013753,-0.016802,0.214358,-0.671822,-2.319843,5.398644,-0.724547,-0.724479,0.451362,90.877040,179.965635,22.464308,0.138577,-0.136885,-0.688193,-0.698892,657.298462,94265.140625,-0.053951,0.032231,1.210754,0.376526,0.403172,16.875000,21.235567,0,5.380000,0, 202
1212, 101,611913,611908,1,1,-0.046690,-0.132988,10.019580,-0.008833,0.001662,0.219567,-0.191296,-0.397740,4.918118,0.574572,-0.492824,-0.083702,90.795747,-179.982561,21.697062,0.133845,-0.132317,-0.689546,-0.699360,657.342590,94263.125000,0.367349,-0.073974,1.210754,0.420654,0.398948,16.875000,21.249174,0,5.380000,0, 202
1213, 101,614055,614050,1,1,-0.068793,-0.137465,10.010029,0.013927,0.020252,0.210179,-1.632874,-2.800369,2.996016,-0.374113,-0.383662,-0.083322,90.760517,179.997150,21.573356,0.133753,-0.130920,-0.689430,-0.699755,657.473328,94264.039062,0.430092,-0.053342,1.210754,0.551392,0.461234,16.875000,21.267315,0,5.380000,0, 202
1214, 101,616206,616205,1,1,-0.048700,-0.143651,10.024293,0.006535,0.011473,0.224432,-0.671822,-1.358791,4.918118,-0.114931,0.156506,-0.319130,90.800473,179.924176,21.271110,0.130956,-0.130053,-0.690001,-0.699883,657.266479,94265.945312,-0.203830,-0.211306,1.210754,0.344543,0.388733,16.875000,21.280920,0,5.380000,0, 202
1215, 101,618407,618366,1,1,-0.067085,-0.126548,10.022374,0.013887,0.009858,0.222383,0.289230,-1.358791,4.918118,0.081140,-0.188674,-0.189850,90.755312,-179.971769,20.376968,0.126070,-0.124078,-0.691385,-0.700498,657.587585,94263.984375,0.373971,0.102194,1.210754,0.665649,0.608040,16.875000,21.280920,0,5.380000,0, 202
1216, 101,620483,620475,1,1,-0.039378,-0.136914,10.012467,-0.008908,0.014933,0.212466,-0.191296,-1.358791,3.957067,-0.198638,-0.082139,-0.646780,90.728114,179.999472,19.668232,0.121533,-0.120005,-0.692275,-0.701130,657.493652,94262.937500,-0.102961,-0.063863,1.210754,0.571716,0.596618,16.875000,21.299063,0,5.380000,0, 202
1217, 101,622566,622547,1,1,-0.046583,-0.151751,10.017257,-0.037395,-0.003655,0.217444,-0.671822,-1.358791,5.879170,-0.416383,1.200882,0.188937,90.927925,-179.825480,19.549941,0.122073,-0.118006,-0.691359,-0.702279,657.650391,94262.914062,0.244160,0.210622,1.210754,0.728455,0.623932,16.875000,21.303598,0,5.380000,0, 202
1218, 101,624657,624613,1,1,-0.044331,-0.131956,10.021818,-0.018934,-0.022300,0.231579,-0.671822,-1.358791,4.918118,-0.952770,0.257910,-1.635979,90.969780,-179.860696,18.911185,0.117985,-0.114323,-0.691714,-0.703237,657.766479,94261.882812,0.635318,0.176258,1.210754,0.844543,0.633067,16.875000,21.317204,0,5.380000,0, 202
1219, 101,626753,626738,1,1,-0.033114,-0.132602,10.004560,-0.008427,-0.018222,0.204474,1.250281,4.888044,4.437593,-0.902468,0.733932,-0.549490,90.885093,179.993339,18.044641,0.111701,-0.110069,-0.692937,-0.703738,657.475647,94263.812500,-0.221970,-0.037623,1.210754,0.553711,0.541969,16.875000,21.326275,0,5.380000,0, 202
1220, 101,628929,628922,1,1,-0.047933,-0.135969,10.027935,0.006338,0.004265,0.227968,-0.671822,-0.397740,4.918118,-0.739446,0.867814,0.120558,90.798991,179.986604,17.831285,0.110489,-0.108685,-0.693559,-0.703531,657.570557,94261.812500,0.326026,0.135600,1.210754,0.648621,0.623162,16.875000,21.335344,0,5.380000,0, 202
1221, 101,631026,630999,1,1,-0.036647,-0.126375,10.019887,-0.011288,-0.007556,0.219742,-2.113400,-1.839317,4.437593,-0.090246,0.818434,-0.414114,90.795460,-179.948191,17.141902,0.106426,-0.104331,-0.694387,-0.703999,657.465637,94265.679688,0.058221,-0.017430,1.210754,0.543701,0.572317,17.000000,21.348951,0,5.380000,0, 202
1222, 101,633130,633124,1,1,-0.034770,-0.130442,10.010590,-0.001235,-0.008860,0.210496,-0.671822,-1.358791,4.918118,-0.597045,0.323979,0.028889,90.822931,179.982697,16.733187,0.103440,-0.102333,-0.694799,-0.704332,657.533936,94265.632812,-0.092177,-0.037824,1.210754,0.612000,0.630941,17.000000,21.362556,0,5.380000,0, 202
1223, 101,635234,635202,1,1,-0.053569,-0.136669,10.012308,0.033902,-0.001992,0.212327,0.289230,-0.397740,4.437593,0.319783,-1.126009,0.177791,90.847670,179.884698,16.027517,0.098606,-0.098556,-0.694903,-0.705460,657.422729,94268.523438,-0.481625,0.116400,1.210754,0.500793,0.679171,17.000000,21.376162,0,5.380000,0, 202
1224, 101,637349,637335,1,1,-0.038663,-0.133754,10.021860,-0.043313,0.006274,0.221732,0.769756,-0.878266,4.437593,-0.758060,0.440988,-0.160732,90.760039,-179.744160,15.531452,0.096387,-0.094662,-0.695791,-0.705424,657.461853,94266.523438,-0.207901,0.018300,1.210754,0.539917,0.584981,17.000000,21.385233,0,5.380000,0, 202
1225, 101,639469,639469,1,1,-0.036776,-0.146250,10.020461,-0.003009,-0.005010,0.220594,-0.671822,-0.878266,5.398644,-0.661811,0.562863,-0.084681,90.890673,179.999472,15.293169,0.094814,-0.093358,-0.695350,-0.706245,657.525269,94260.609375,0.330089,-0.111481,1.210754,0.603333,0.510307,17.000000,21.389769,0,5.380000,0, 202
1226, 101,641591,641566,1,1,-0.049692,-0.140031,10.023365,0.010828,0.016812,0.223446,-0.671822,-0.878266,3.957067,0.282484,-0.430973,0.005380,90.749971,-179.987888,14.539944,0.090138,-0.088819,-0.696826,-0.705988,657.534912,94263.523438,0.329539,0.107234,1.210754,0.612976,0.596700,17.000000,21.398838,0,5.380000,0, 202
1227, 101,643722,643699,1,1,-0.055657,-0.138398,10.031004,0.004256,-0.004554,0.231111,-0.671822,-2.319843,4.437593,-0.809994,-0.006282,-1.043101,90.869786,-179.906404,13.953019,0.087105,-0.084655,-0.696594,-0.707109,657.288879,94264.390625,-0.774509,-0.207755,1.210754,0.366943,0.455506,17.000000,21.426050,0,5.380000,0, 202
1228, 101,645929,645899,1,1,-0.004943,-0.172309,10.057204,-0.060909,0.009549,0.257492,-0.191296,2.004889,4.437593,-0.477430,0.600162,0.522975,90.906628,-179.854713,13.496075,0.084625,-0.081530,-0.696736,-0.707637,657.644958,94265.390625,0.948472,0.311351,1.210754,0.723022,0.665496,17.000000,21.421515,0,5.380000,0, 202
1229, 101,648061,648043,1,1,-0.042027,-0.123978,10.019429,-0.003640,-0.028629,0.219243,-0.191296,-0.878266,5.398644,-0.182916,0.806358,-0.325790,90.908643,-179.905817,13.101364,0.081660,-0.079663,-0.697861,-0.707089,657.636597,94260.468750,0.353091,0.085614,1.210754,0.714661,0.661606,17.125000,21.426050,0,5.380000,0, 202
1230, 101,650195,650186,1,1,-0.046752,-0.157012,9.998513,-0.005764,0.037398,0.198784,-0.191296,-1.839317,5.879170,-0.004966,0.945129,-0.629765,90.721277,-179.890107,11.885292,0.074276,-0.072124,-0.697726,-0.708844,657.386902,94262.359375,-0.214709,-0.098162,1.210754,0.464966,0.473422,17.000000,21.444189,0,5.380000,0, 202
1231, 101,652334,652290,1,1,-0.032025,-0.134641,10.007757,0.037098,-0.000764,0.197682,-1.632874,-0.878266,4.437593,0.177087,0.306575,-0.211853,90.749500,179.872841,11.148924,0.068360,-0.069023,-0.699068,-0.708426,657.435669,94262.320312,0.075133,-0.054717,1.210754,0.513733,0.460207,17.125000,21.453260,0,5.380000,0, 202
1232, 101,654481,654436,1,1,-0.041146,-0.145045,10.017657,0.051706,0.060659,0.232938,-0.671822,-0.878266,4.918118,-0.239411,0.453450,-0.774949,90.692290,-179.963928,10.137823,0.063072,-0.061874,-0.700093,-0.708564,657.363770,94264.250000,-0.248960,0.060871,1.210754,0.441833,0.461527,17.125000,21.462330,0,5.380000,0, 202
1233, 101,656627,656587,1,1,-0.047022,-0.132766,10.006615,0.014526,0.016320,0.206582,-0.671822,-1.358791,3.957067,-0.536705,-0.509102,0.198655,90.701483,-179.947508,9.817793,0.061198,-0.059812,-0.700215,-0.708785,657.275269,94268.046875,-0.547166,-0.072736,1.210754,0.353333,0.501989,17.125000,21.494076,0,5.380000,0, 202
1234, 101,658782,658744,1,1,-0.045004,-0.132185,10.016043,0.004090,-0.023504,0.215988,-0.671822,-0.878266,4.918118,-0.566498,0.428718,0.192295,90.922344,-179.892361,9.359512,0.058809,-0.056557,-0.699109,-0.710345,657.322510,94267.062500,-0.168878,-0.057425,1.210754,0.400574,0.471734,17.000000,21.494076,0,5.380000,0, 202
1235, 101,660991,660950,1,1,-0.061687,-0.138525,10.017601,-0.016001,-0.004349,0.217735,-0.671822,0.563312,3.957067,0.590271,0.660281,-0.495613,90.861658,-179.680707,8.778280,0.056470,-0.051727,-0.699861,-0.710162,657.314209,94264.101562,-0.636024,-0.103825,1.210754,0.392273,0.451838,17.125000,21.498611,0,5.380000,0, 202
1236, 101,663151,663124,1,1,-0.003254,-0.145807,10.004269,-0.038542,0.002405,0.204257,1.250281,1.043838,4.918118,0.023185,0.317371,-0.087884,90.815158,-179.881474,8.307749,0.052307,-0.050119,-0.700268,-0.710195,657.444458,94265.062500,0.489775,0.223347,1.210754,0.522522,0.495570,17.125000,21.503147,0,5.380000,0, 202
1237, 101,665234,665227,1,1,-0.067365,-0.139371,10.004988,0.044441,0.011678,0.205080,-0.671822,-2.319843,5.398644,0.374843,-0.842754,-0.203758,90.774314,-179.974938,7.413777,0.047621,-0.043826,-0.700569,-0.710644,657.376831,94265.007812,0.153008,-0.060633,1.210754,0.454895,0.453219,17.000000,21.516752,0,5.380000,0, 202
1238, 101,667320,667300,1,1,-0.051569,-0.139260,10.013240,-0.002812,0.012871,0.213332,0.289230,-1.839317,4.918118,0.417434,0.162484,0.024396,90.753550,-179.789772,7.112837,0.045436,-0.042270,-0.701169,-0.710290,657.520935,94263.046875,-0.280449,0.141016,1.210754,0.598999,0.575751,17.125000,21.516752,0,5.380000,0, 202
1239, 101,669415,669377,1,1,-0.049996,-0.131710,10.023516,-0.038281,-0.015580,0.223420,-0.191296,-0.878266,7.320748,0.385565,0.106011,0.114163,90.869438,-179.582653,6.513735,0.043027,-0.037276,-0.700731,-0.711151,657.573730,94262.023438,1.071799,0.076725,1.210754,0.651794,0.485110,17.125000,21.525822,0,5.380000,0, 202
1240, 101,671513,671501,1,1,-0.049743,-0.133847,10.019475,-0.011051,0.003875,0.219486,-0.191296,0.082786,4.437593,-0.198722,0.026107,-0.358982,90.768132,-179.731647,5.834599,0.037871,-0.034081,-0.701524,-0.710823,657.239441,94268.789062,-0.343260,0.032201,1.210754,0.317505,0.501581,17.125000,21.553032,0,5.380000,0, 202
1241, 101,673616,673583,1,1,-0.055062,-0.185414,10.039640,0.027234,0.051557,0.240334,-0.671822,-1.358791,3.957067,-0.391064,0.161302,-0.172923,90.788527,-179.941224,5.350558,0.033591,-0.032412,-0.701476,-0.711163,657.249084,94265.843750,-0.283174,-0.149761,1.210754,0.327148,0.378820,17.125000,21.553032,0,5.380000,0, 202
1242, 101,675730,675707,1,1,-0.030551,-0.139645,10.011221,0.015231,0.016578,0.211216,-0.191296,-1.839317,5.398644,-0.276157,-0.193525,-0.454616,90.716093,-179.979665,4.789314,0.029853,-0.029233,-0.702066,-0.710885,657.621765,94260.890625,0.789908,0.318999,1.210754,0.699829,0.538061,17.125000,21.562103,0,5.380000,0, 202
1243, 101,677849,677841,1,1,-0.041624,-0.126436,10.018229,0.005180,-0.014538,0.218102,-0.191296,-0.878266,4.918118,-0.007042,-0.328562,0.096325,90.821872,-179.845875,4.255162,0.027531,-0.024960,-0.702038,-0.711169,657.452209,94259.890625,-0.031094,-0.052950,1.210754,0.530273,0.502492,17.125000,21.566637,0,5.380000,0, 202
1244, 101,680049,680043,1,1,-0.054965,-0.138191,10.023841,0.021318,-0.005557,0.223920,-0.671822,-0.878266,4.437593,0.019263,-0.107290,0.175477,90.839665,-179.857582,3.577844,0.023783,-0.020361,-0.701789,-0.711697,657.453735,94263.726562,-0.289406,0.035467,1.210754,0.531799,0.537711,17.125000,21.589314,0,5.380000,0, 202
1245, 101,682162,682135,1,1,-0.055546,-0.163109,10.024680,0.004078,0.028448,0.225120,-0.191296,-0.397740,4.918118,-0.307510,1.011603,-0.295114,90.785365,-179.756645,3.095999,0.020723,-0.017459,-0.702027,-0.711635,657.358337,94266.632812,-0.055648,0.003862,1.210754,0.436401,0.473895,17.125000,21.598383,0,5.380000,0, 202
1246, 101,684447,684444,1,1,-0.054947,-0.129930,10.014801,0.005134,-0.013347,0.214784,-0.671822,-1.358791,5.398644,0.135484,0.339735,-0.243263,90.833989,-179.751386,2.775619,0.018772,-0.015456,-0.701772,-0.711987,657.322449,94264.554688,0.158958,-0.068731,1.210754,0.400513,0.383873,17.125000,21.625593,0,5.380000,0, 202
1247, 101,686572,686544,1,1,-0.031156,-0.141692,10.012795,-0.018027,0.015904,0.212818,-0.191296,-1.839317,5.398644,0.945371,-0.505097,0.091910,90.725095,-179.744952,1.857738,0.013099,-0.009807,-0.702550,-0.711446,657.215698,94267.500000,-0.284748,-0.116003,1.210754,0.293762,0.379176,17.125000,21.625593,0,5.380000,0, 202
1248, 101,688711,688689,1,1,-0.032964,-0.141256,10.026122,0.003256,0.013536,0.226162,-0.671822,-1.839317,4.437593,0.099483,-0.110899,0.242668,90.733613,-179.847296,1.208266,0.008547,-0.006352,-0.702104,-0.711995,657.220703,94268.484375,0.245996,-0.023390,1.210754,0.298767,0.316469,17.250000,21.625593,0,5.380000,0, 202
1249, 101,690850,690838,1,1,-0.016985,-0.135995,10.044221,-0.044176,0.005956,0.244057,-1.152348,-1.839317,4.918118,-0.074633,1.259553,0.159214,90.742526,-179.657567,0.476798,0.003652,-0.002185,-0.702317,-0.711852,657.184082,94267.460938,-0.425643,0.078517,1.210754,0.262146,0.367811,17.125000,21.634663,0,5.380000,0, 202
1250, 101,692996,692992,1,1,-0.050845,-0.143811,10.013000,0.005480,0.016014,0.213148,-1.152348,0.082786,4.918118,-0.067033,-0.463211,-1.160268,90.731099,-179.740089,-0.023383,0.001622,0.001931,-0.702066,-0.712107,657.250488,94269.367188,0.040928,-0.014153,1.210754,0.328552,0.358021,17.250000,21.648268,0,5.380000,0, 202
1251, 101,695143,695137,1,1,-0.031496,-0.149898,10.021304,-0.005537,-0.003655,0.221472,-2.113400,-0.878266,4.437593,0.259477,-0.704658,0.411292,90.875196,-179.776057,-0.817710,-0.003889,0.006226,-0.701775,-0.712361,657.326782,94268.351562,-0.165998,-0.074581,1.210754,0.404846,0.473500,17.250000,21.657337,0,5.380000,0, 202
1252, 101,697369,697349,1,1,-0.039743,-0.140489,10.017179,0.006213,0.013394,0.217232,0.769756,-0.878266,4.918118,0.908258,0.640705,0.255112,90.721783,-179.790851,-1.242255,-0.006431,0.008916,-0.702582,-0.711518,657.464539,94259.453125,-0.347981,-0.113235,1.210754,0.542603,0.446757,17.250000,21.670942,0,5.380000,0, 202
1253, 101,699518,699500,1,1,-0.048253,-0.141773,10.016406,-0.013630,-0.009282,0.216512,-1.632874,-8.086153,5.879170,-0.624063,-0.342344,0.140331,90.854712,-179.620110,-1.840995,-0.009548,0.013210,-0.701986,-0.712004,657.416992,94266.289062,0.010949,-0.035098,1.210754,0.495056,0.527145,17.250000,21.680012,0,5.380000,0, 202
1254, 101,701723,701713,1,1,-0.053160,-0.134276,10.014176,-0.007234,0.012701,0.214207,-0.191296,-1.358791,4.918118,0.357366,0.701250,-0.013481,90.682653,-179.623744,-2.309982,-0.012030,0.016503,-0.702688,-0.711205,657.470398,94263.304688,0.272700,-0.093435,1.210754,0.548462,0.428403,17.250000,21.689083,0,5.380000,0, 202
1255, 101,703804,703780,1,1,-0.051563,-0.140871,10.012819,0.020127,0.007736,0.212920,-1.152348,0.082786,4.918118,0.157340,-0.025859,-0.238641,90.746665,-179.781712,-2.755031,-0.015771,0.018243,-0.702248,-0.711524,657.145447,94268.179688,0.590333,-0.026591,1.210754,0.223511,0.225530,17.250000,21.698153,0,5.380000,0, 202
1256, 101,705892,705891,1,1,-0.010380,-0.099903,10.005996,-0.021292,-0.039081,0.205401,-1.152348,0.563312,5.398644,-0.112945,-0.251544,-0.849814,90.791833,-179.788228,-3.055550,-0.018331,0.019396,-0.703187,-0.710504,657.317993,94267.132812,0.325998,0.163006,1.210754,0.396057,0.360110,17.250000,21.711758,0,5.380000,0, 202
1257, 101,707982,707966,1,1,-0.046225,-0.148923,10.025176,0.007197,0.016352,0.225373,-0.191296,-1.839317,4.918118,0.013133,-0.487255,-0.495724,90.739821,-179.725281,-3.513795,-0.020135,0.023244,-0.702142,-0.711372,657.205566,94268.101562,-0.157887,-0.069226,1.210754,0.283630,0.328670,17.375000,21.716291,0,5.380000,0, 202
1258, 101,710077,710045,1,1,-0.055674,-0.131943,10.019381,0.032448,-0.017548,0.219336,-0.671822,-1.358791,4.437593,0.186346,-0.939457,-0.617196,90.828470,-179.810850,-4.352274,-0.025885,0.027830,-0.701424,-0.711730,657.197510,94268.023438,-0.269731,-0.022303,1.210754,0.275574,0.367464,17.250000,21.734430,0,5.380000,0, 202
1259, 101,712178,712169,1,1,-0.039563,-0.103423,10.007996,-0.037596,-0.043947,0.207441,1.250281,4.888044,4.437593,-0.113144,0.758015,-0.793394,90.822535,-179.509311,-4.820032,-0.028082,0.031434,-0.702716,-0.710221,657.402466,94263.109375,0.304757,0.095161,1.210754,0.480530,0.389885,17.250000,21.734430,0,5.380000,0, 202
1260, 101,714380,714365,1,1,-0.054915,-0.124468,10.017262,-0.001522,-0.028715,0.217144,-0.671822,-2.800369,5.398644,-0.183332,0.479720,-0.048218,90.844105,-179.612911,-5.289465,-0.030503,0.034781,-0.701936,-0.710736,657.043213,94272.875000,-0.427848,-0.232777,1.210754,0.121277,0.268740,17.375000,21.748035,0,5.380000,0, 202
1261, 101,716483,716441,1,1,-0.020059,-0.133415,10.001977,-0.023814,-0.004213,0.201858,-1.152348,-1.839317,4.437593,0.451151,0.523468,-0.360820,90.771930,-179.668577,-6.064779,-0.035629,0.039209,-0.701232,-0.710962,657.300171,94262.992188,0.012056,-0.107754,1.210754,0.378235,0.257966,17.250000,21.761641,0,5.380000,0, 202
1262, 101,718592,718573,1,1,-0.032869,-0.144560,10.022368,-0.019245,0.001493,0.222446,-0.671822,0.082786,4.437593,0.867578,-0.447984,-0.483379,90.788958,-179.603308,-6.961057,-0.040796,0.045091,-0.700773,-0.710788,657.245544,94264.914062,0.191718,-0.028857,1.210754,0.323608,0.265339,17.250000,21.770710,0,5.380000,0, 202
1263, 101,720706,720702,1,1,-0.025158,-0.131384,10.026760,-0.044636,-0.022064,0.226529,-0.191296,-1.839317,5.879170,-0.319038,-0.666032,-0.487264,90.851454,-179.503928,-7.537956,-0.043793,0.049211,-0.700106,-0.710994,657.241638,94263.914062,0.542407,0.176146,1.210754,0.319702,0.185591,17.375000,21.775246,0,5.380000,0, 202
1264, 101,722822,722796,1,1,-0.043253,-0.134281,10.018222,-0.014293,0.009276,0.218201,-0.191296,-0.878266,3.957067,-0.091498,0.438107,-0.475517,90.671335,-179.563050,-8.266299,-0.048588,0.053370,-0.700923,-0.709575,657.056824,94268.765625,-0.004452,-0.069672,1.210754,0.134888,0.093813,17.375000,21.788849,0,5.380000,0, 202
1265, 101,724948,724935,1,1,-0.045381,-0.140895,10.007236,-0.015305,0.010923,0.207314,0.289230,-0.878266,4.918118,0.202701,0.565532,-0.139667,90.695521,-179.533544,-8.698475,-0.051611,0.055677,-0.700243,-0.709857,657.059021,94266.765625,-0.296819,0.049293,1.210754,0.137085,0.119779,17.375000,21.797918,0,5.380000,0, 202
1266, 101,727077,727063,1,1,-0.058383,-0.146597,10.024137,0.005435,0.010058,0.224373,-0.671822,-2.800369,5.398644,0.351292,-0.355608,-0.231534,90.716804,-179.568651,-9.128659,-0.053838,0.058733,-0.699889,-0.709794,656.988281,94270.632812,-0.082510,0.014694,1.210754,0.066345,0.125494,17.375000,21.811523,0,5.380000,0, 202
1267, 101,729212,729208,1,1,-0.075079,-0.143685,10.022876,0.048692,-0.018812,0.223051,-0.191296,-0.878266,4.437593,-0.412895,-1.246418,0.602978,90.845238,-179.717508,-9.653122,-0.056605,0.062382,-0.699698,-0.709456,657.028870,94269.609375,-0.190650,-0.108503,1.210754,0.106934,0.133045,17.375000,21.820593,0,5.380000,0, 202
1268, 101,731425,731417,1,1,-0.037667,-0.140288,10.023745,-0.017205,-0.000024,0.223782,-0.671822,0.563312,4.918118,-0.599139,0.817801,0.070420,90.751569,-179.548611,-10.134919,-0.060657,0.064299,-0.699506,-0.709139,656.909912,94270.554688,-0.416447,-0.150465,1.210754,-0.012024,0.094358,17.375000,21.829662,0,5.380000,0, 202
1269, 101,733561,733520,1,1,-0.069859,-0.128669,10.008969,0.015398,-0.015786,0.209016,-2.593925,-4.722473,4.437593,-0.590410,-0.379630,-1.134376,90.737649,-179.555824,-10.932478,-0.065079,0.069669,-0.699078,-0.708662,657.118164,94268.531250,0.734294,0.056275,1.210754,0.196228,0.110003,17.375000,21.843267,0,5.380000,0, 202
1270, 101,735699,735660,1,1,-0.053101,-0.133782,10.022742,0.010481,0.011210,0.222764,-0.671822,-0.878266,4.918118,0.711050,-0.031043,0.157456,90.624405,-179.609427,-11.546180,-0.069129,0.073149,-0.699429,-0.707580,656.987610,94264.554688,-0.550455,-0.256569,1.210754,0.065674,0.016554,17.375000,21.852337,0,5.380000,0, 202
1271, 101,737843,737814,1,1,-0.053848,-0.127729,10.020541,-0.009867,-0.017201,0.220480,-1.152348,-1.358791,4.437593,-0.802999,0.385577,-0.814077,90.746529,-179.487563,-12.267101,-0.072918,0.078222,-0.698117,-0.707953,657.099304,94266.484375,0.638354,0.114843,1.210754,0.177368,0.030451,17.375000,21.861406,0,5.380000,0, 202
1272, 101,739996,739972,1,1,-0.060066,-0.148753,10.005828,0.025258,0.009745,0.206077,-0.671822,-0.878266,4.437593,0.031697,-1.031898,-0.012543,90.698751,-179.620807,-12.778647,-0.076088,0.081306,-0.697749,-0.707634,656.969971,94272.296875,-0.301585,-0.041832,1.210754,0.048035,0.142585,17.375000,21.879545,0,5.380000,0, 202
1273, 101,742204,742180,1,1,-0.047528,-0.114328,10.024353,-0.019047,-0.022842,0.224074,-0.191296,-0.878266,4.437593,-0.228116,0.077082,0.180281,90.705766,-179.478957,-13.049143,-0.077666,0.083065,-0.697812,-0.707196,656.896912,94270.312500,-0.095534,-0.133400,1.210754,-0.025024,0.039358,17.375000,21.884079,0,5.380000,0, 202
1274, 101,744287,744247,1,1,-0.040143,-0.144434,10.014953,-0.005895,0.001992,0.215073,-0.671822,-1.839317,4.918118,0.144991,-0.457355,0.405092,90.737738,-179.548857,-13.592699,-0.081469,0.085920,-0.697266,-0.706966,656.972900,94274.179688,0.114891,0.233478,1.210754,0.050964,0.158295,17.375000,21.897684,0,5.380000,0, 202
1275, 101,746375,746356,1,1,-0.017844,-0.149048,10.008225,-0.044078,0.018104,0.208238,-0.671822,-1.839317,4.918118,-0.245312,-0.451787,0.626397,90.699749,-179.442703,-13.958908,-0.083052,0.088830,-0.697139,-0.706547,657.086670,94266.359375,-0.030381,0.145497,1.210754,0.164734,0.106783,17.500000,21.888615,0,5.380000,0, 202
1276, 101,748547,748538,1,1,-0.039816,-0.131857,10.013672,-0.004897,-0.013671,0.213609,-0.671822,-1.839317,5.398644,-0.336616,0.483822,-0.516735,90.754035,-179.566657,-14.149931,-0.085128,0.089087,-0.697207,-0.706200,656.947998,94269.210938,-0.440828,-0.128860,1.210754,0.026062,0.103856,17.500000,21.911287,0,5.380000,0, 202
1277, 101,750634,750614,1,1,-0.059388,-0.131510,10.013142,0.020430,0.004908,0.213159,-0.191296,-1.358791,4.437593,0.389601,-0.191118,0.665604,90.613681,-179.597475,-14.681084,-0.088376,0.092336,-0.697222,-0.705369,657.115540,94265.234375,0.098930,-0.052473,1.210754,0.193604,0.108670,17.500000,21.920357,0,5.380000,0, 202
1278, 101,752727,752691,1,1,-0.044014,-0.148588,10.029175,-0.009015,0.021627,0.229345,-1.152348,-1.839317,4.918118,-0.935223,-0.268320,0.109244,90.629978,-179.483848,-15.158188,-0.090634,0.095923,-0.696636,-0.705183,657.291016,94267.164062,0.595283,0.296598,1.210754,0.369080,0.275613,17.500000,21.929426,0,5.380000,0, 202
1279, 101,754829,754817,1,1,-0.051234,-0.150932,10.029344,0.015411,0.003752,0.229598,-0.191296,-0.878266,5.398644,-0.348155,0.397274,-0.382263,90.729958,-179.573815,-15.634706,-0.093728,0.098649,-0.695507,-0.705516,656.972107,94268.085938,-0.500305,-0.228620,1.210754,0.050171,0.103045,17.500000,21.943029,0,5.380000,0, 202
1280, 101,756935,756892,1,1,-0.074797,-0.130931,10.014756,0.020833,-0.020656,0.214848,0.289230,-2.800369,4.437593,-0.258057,0.634989,-0.723835,90.713873,-179.495268,-16.584854,-0.099552,0.104446,-0.694883,-0.704499,657.201416,94266.054688,-0.078435,0.068131,1.210754,0.279480,0.259311,17.500000,21.956635,0,5.380000,0, 202
1281, 101,759044,759025,1,1,-0.039200,-0.148566,10.032791,-0.011483,0.012573,0.232953,-1.152348,-0.878266,3.957067,-0.318635,-0.044145,-0.077755,90.673978,-179.472168,-17.009341,-0.101984,0.107196,-0.694714,-0.703904,656.962219,94272.898438,-0.879124,-0.147651,1.210754,0.040283,0.279040,17.500000,21.965704,0,5.380000,0, 202
1282, 101,761163,761161,1,1,-0.042363,-0.134946,10.022328,-0.026745,-0.000425,0.222291,-0.671822,-1.358791,4.918118,0.019471,0.469170,0.368310,90.663337,-179.381354,-17.743710,-0.106774,0.111381,-0.694136,-0.703113,657.255859,94266.976562,0.242114,0.128178,1.210754,0.333923,0.245324,17.500000,21.970238,0,5.380000,0, 202
1283, 101,763282,763255,1,1,-0.048091,-0.134804,10.018730,-0.021878,0.006075,0.218727,-1.632874,-1.358791,5.879170,-0.058317,1.137759,-0.372790,90.609945,-179.370617,-18.397062,-0.109820,0.116284,-0.693654,-0.702326,657.334290,94264.007812,-0.088560,0.018822,1.210754,0.412354,0.372341,17.500000,21.974773,0,5.380000,0, 202
1284, 101,765483,765453,1,1,-0.058607,-0.130542,10.033682,0.017513,-0.011477,0.233680,-1.152348,-0.878266,3.957067,0.078839,-0.061349,-0.484015,90.662866,-179.542519,-18.844490,-0.113658,0.117888,-0.693050,-0.702044,657.340454,94263.984375,0.625974,-0.081816,1.210754,0.418518,0.312454,17.500000,21.979307,0,5.380000,0, 202
1285, 101,767607,767586,1,1,-0.088696,-0.179388,10.029083,0.050918,0.021749,0.229927,-0.671822,-1.358791,5.398644,-0.039396,0.554838,-0.579267,90.670768,-179.469422,-19.625481,-0.118006,0.123047,-0.692103,-0.701376,657.330322,94261.976562,-0.521951,-0.064391,1.210754,0.408386,0.353499,17.625000,21.988377,0,5.380000,0, 202
1286, 101,769737,769730,1,1,-0.036770,-0.144744,10.026595,0.011091,0.009639,0.226696,-0.671822,-1.358791,5.879170,0.303471,-0.732064,-0.165893,90.648010,-179.579784,-20.265455,-0.122269,0.126552,-0.691301,-0.700812,657.005005,94270.742188,-0.852662,-0.186528,1.210754,0.083069,0.229490,17.625000,22.006516,0,5.380000,0, 202
1287, 101,771865,771828,1,1,-0.035306,-0.129088,10.036870,-0.013415,-0.014643,0.236743,-0.191296,-0.878266,4.437593,0.189279,0.475782,0.194022,90.700677,-179.473111,-20.821509,-0.125376,0.130209,-0.690602,-0.700282,656.830933,94272.648438,-0.461553,-0.262173,1.210754,-0.091003,0.056425,17.500000,22.020119,0,5.380000,0, 202
1288, 101,774004,773979,1,1,-0.039511,-0.143364,10.029598,-0.000041,-0.010565,0.229695,-1.152348,-1.358791,4.437593,-1.003279,-0.157002,-0.123825,90.740955,-179.491470,-21.343363,-0.128722,0.133196,-0.689778,-0.699926,657.183472,94263.781250,0.140774,-0.119104,1.210754,0.261536,0.115938,17.500000,22.024652,0,5.380000,0, 202
1289, 101,776290,776262,1,1,-0.028012,-0.137098,10.015395,-0.016488,0.011708,0.215352,-1.152348,1.043838,4.437593,-0.471330,0.794385,-0.429657,90.600035,-179.463138,-22.014294,-0.132478,0.137568,-0.689811,-0.698345,656.974365,94269.554688,-0.610071,-0.096709,1.210754,0.052429,0.121639,17.500000,22.051861,0,5.380000,0, 202
1290, 101,778441,778412,1,1,-0.038501,-0.137739,10.036332,-0.016202,-0.003319,0.236337,-1.152348,0.082786,5.398644,0.064121,0.016462,-0.493099,90.661131,-179.403388,-22.513968,-0.135237,0.140865,-0.688758,-0.698198,657.115479,94267.625000,0.057532,-0.082755,1.210754,0.193542,0.239729,17.625000,22.042791,0,5.380000,0, 202
1291, 101,780598,780568,1,1,-0.044893,-0.147942,10.012087,-0.003907,0.003046,0.212279,-1.152348,0.563312,4.918118,0.438856,-0.338278,0.507748,90.659703,-179.408292,-23.176015,-0.139296,0.144814,-0.687948,-0.697390,657.038940,94267.546875,-0.126337,-0.095927,1.210754,0.117004,0.154590,17.625000,22.060930,0,5.380000,0, 202
1292, 101,782841,782834,1,1,-0.052712,-0.128153,10.019895,-0.001394,-0.021476,0.219830,0.769756,0.563312,4.918118,0.566008,-0.446195,0.718626,90.670973,-179.419944,-23.862704,-0.143457,0.148944,-0.687695,-0.695924,657.052979,94267.523438,-0.363546,-0.037280,1.210754,0.131042,0.163614,17.625000,22.065464,0,5.380000,0, 202
1293, 101,785043,785042,1,1,-0.022625,-0.135607,10.017354,-0.036189,0.013539,0.217223,-1.632874,-1.839317,4.437593,-0.433029,1.198838,-0.739378,90.573971,-179.352626,-24.587873,-0.148652,0.152520,-0.686383,-0.695355,657.146423,94268.445312,0.025581,0.030090,1.210754,0.224487,0.200179,17.625000,22.079067,0,5.380000,0, 202
1294, 101,787123,787100,1,1,-0.052393,-0.134324,10.029889,-0.009500,-0.007909,0.229918,-0.671822,-0.397740,5.398644,-0.150927,0.400219,-0.095328,90.610683,-179.346998,-25.325127,-0.151915,0.158126,-0.685323,-0.694443,656.899902,94270.367188,0.116076,-0.124542,1.210754,-0.022034,-0.017982,17.625000,22.088137,0,5.380000,0, 202
1295, 101,789209,789171,1,1,-0.028346,-0.134292,10.029613,-0.039298,0.030148,0.229430,-1.632874,0.563312,5.398644,0.248921,0.273195,0.383029,90.446690,-179.294214,-25.950923,-0.155157,0.162407,-0.685366,-0.692693,657.142334,94266.414062,0.192413,0.085837,1.210754,0.220398,0.115851,17.625000,22.092670,0,5.380000,0, 202
1296, 101,791302,791290,1,1,-0.045520,-0.125322,10.019715,-0.025127,-0.000176,0.219571,-3.074451,-4.241947,4.918118,0.159293,0.312991,-0.048306,90.529226,-179.306563,-26.180831,-0.156738,0.163594,-0.684557,-0.692857,657.101990,94268.296875,-0.102772,-0.107888,1.210754,0.180054,0.185769,17.625000,22.110809,0,5.380000,0, 202
1297, 101,793396,793369,1,1,-0.047587,-0.133658,10.020333,0.011586,-0.003031,0.220330,-0.671822,-0.878266,5.398644,0.836501,-0.169030,-0.210993,90.577358,-179.479394,-26.740915,-0.161226,0.165829,-0.683712,-0.692130,656.922119,94271.226562,-0.545877,-0.063544,1.210754,0.000183,0.104324,17.625000,22.115343,0,5.380000,0, 202
