index,checksum,uptime mp,uptime nav,errorflag mp,errorflag NAV,accel x,accel y,accel z,accelworld x,accelworld y,accelworld z,accelhighg x,accelhighg y,accelhighg z,gyro x,gyro y,gyro z,euler x,euler y,euler z,quat w,quat x,quat y,quat z,altitude,presusre,verticalvel,filtered vvel,maxalt,altitudeagl,filtered alt,imutemp,barotemp,state,battstate,pyros fired,pyros cont,pyros state,checksum2\r
2531,101,0,4724,1,1,1.665237,-3.765423,13.083695,3.663559,-1.681356,3.309526,-2.593925,-8.086153,-4.692398,6.144404,59.549599,-40.572003,79.682606,168.007299,169.712634,0.595633,-0.794453,-0.10267,-0.059368,915.894287,91385.46094,-12.496599,-10.243508,0,-35.041809,-31.412388,23.625,28.291512,0,5.32,8,202,,
2532,101,4864,6452,1,1,2.427495,-3.072362,15.490056,-0.010589,0.47385,6.169264,4.613962,-10.008257,4.437593,-60.382643,57.652541,-152.919644,101.485177,-174.678208,-59.76841,-0.364704,0.341129,-0.521071,-0.692175,900.424438,91547.36719,-7.394369,-10.520849,0,-50.511658,-47.763062,23.625,28.373018,0,5.32,0,202,,
2533,101,8575,8572,1,1,4.374613,0.872995,11.097035,-0.661268,-0.696418,2.120463,2.691859,2.004889,0.593386,-53.70881,-7.028821,-92.111064,102.014695,163.012969,-35.089557,0.335632,-0.070857,0.647998,0.680022,881.702148,91761.17188,-9.114347,-9.898552,0,-69.233948,-65.54718,23.625,28.386602,0,5.32,0,202,,
2534,101,10677,10643,1,1,4.879377,4.520029,9.858473,-0.660699,-3.261801,1.616206,0.769756,2.485415,4.437593,-103.103092,-76.971403,-271.08458,75.236433,168.20547,22.923155,0.04089,-0.21803,-0.759729,-0.61123,861.790771,91982.82813,-9.714263,-11.145976,0,-89.145325,-85.486183,23.75,28.409243,0,5.32,0,202,,
2535,101,12791,12778,1,1,0.337421,-0.403107,13.377849,-0.43672,3.920398,2.992863,2.211333,2.965941,6.840222,-62.331548,-61.294753,-156.084262,72.612609,179.646515,59.036433,0.332433,-0.366821,-0.61923,-0.609495,843.838501,92174.91406,-9.486277,-10.635973,0,-107.097595,-103.39254,23.75,28.413771,0,5.32,0,202,,
2536,101,14915,14911,1,1,-6.717933,-2.791445,11.09067,2.584927,-2.488243,2.968203,-9.801813,-5.683524,1.554438,12.265978,-50.392425,-131.209546,80.157693,-165.183016,-62.135467,0.244972,-0.462675,0.60709,0.597798,825.952271,92381.07813,-12.438477,-10.320057,0,-124.983826,-120.741341,23.75,28.409243,0,5.32,0,202,,
2537,101,17111,17100,1,1,-0.633922,9.190639,14.656915,1.383828,-6.921338,6.006433,-3.554977,3.926993,5.398644,62.095449,-35.011584,27.990513,81.381267,174.92471,-3.401184,-0.029177,0.0314,-0.864507,-0.500791,806.515808,92591.29688,-10.700508,-11.311468,0,-144.420288,-140.441589,23.75,28.400187,0,5.32,0,202,,
2538,101,19229,19193,1,1,0.009597,-3.356308,13.434116,-1.29761,2.236083,3.802548,1.250281,-2.319843,8.762325,-0.289324,29.088109,-354.706395,73.946237,173.056298,118.560459,-0.49138,0.704156,0.376059,0.348268,789.604492,92790.5,-9.376079,-9.737359,0,-161.331604,-157.530106,23.75,28.395658,0,5.32,0,202,,
2539,101,21351,21318,1,1,-0.355962,0.732946,9.924753,-0.154224,-1.868513,-0.020943,-0.671822,2.965941,-1.809243,-68.198633,0.151053,394.121477,96.372753,-177.595655,-7.120308,-0.032311,0.056998,-0.664306,-0.744584,770.283264,93000.78906,-9.270749,-10.260913,0,-180.652832,-177.206009,23.75,28.382074,0,5.32,0,202,,
2540,101,23485,23461,1,1,-2.489208,-4.175603,11.927891,-0.6067,-2.665754,2.78598,-1.632874,-4.241947,6.840222,-13.95335,119.386748,-341.805233,83.345978,170.542775,178.44014,-0.587332,0.802689,-0.05374,0.08856,752.473694,93198.11719,-8.154014,-9.125209,0,-198.462402,-195.219208,23.75,28.36849,0,5.32,0,202,,
2541,101,25622,25608,1,1,-0.203835,-1.366462,13.709961,-1.295903,0.18873,3.916026,0.28923,-0.878266,6.359696,27.524949,35.339262,-82.070706,90.441991,179.774718,86.174885,-0.464408,0.500514,0.489352,0.542537,733.83252,93407.39844,-9.51915,-10.336012,0,-217.103577,-213.620163,23.625,28.354906,0,5.32,0,202,,
2542,101,27765,27755,1,1,-6.151885,0.279138,15.280009,-0.411153,9.261735,3.817132,-5.477081,0.082786,10.203903,37.161751,-161.80613,-614.321803,72.118424,166.620347,133.807285,0.682289,-0.607943,-0.149932,-0.37737,715.719055,93612.69531,-8.970448,-9.880276,0,-235.217041,-231.743851,23.625,28.341322,0,5.32,0,202,,
2543,101,29908,29904,1,1,-0.81748,0.45585,16.362198,-1.176235,4.094464,6.024594,-0.671822,0.082786,12.606533,47.380804,-5.72585,-205.961158,73.5153,-178.494481,-113.76236,0.579513,-0.600266,0.412019,0.366177,696.915894,93829.98438,-10.666258,-10.839129,0,-254.020203,-249.99707,23.75,28.32321,0,5.32,0,202,,
2544,101,32063,32052,1,1,-1.92361,-1.496711,13.256633,-5.099097,-0.674772,2.657837,-2.593925,-3.280895,5.87917,53.093769,13.359597,-41.75226,94.94271,-147.482226,-28.4114,-0.109283,0.252965,-0.648758,-0.709351,678.077637,94044.1875,-12.575306,-10.748097,0,-272.858459,-268.649414,23.625,28.314154,0,5.32,0,202,,
2545,101,34297,34269,1,1,-5.941797,-7.910391,-0.105696,0.391191,1.137667,0.019545,-7.399185,-7.605628,-5.172924,-10.687149,-14.202852,-64.383801,2.684934,72.544716,-152.631819,-0.20414,0.570205,-0.158273,0.779835,664.438843,94181.89844,0.575187,-5.464721,0,-286.497253,-285.730652,23.625,28.286983,0,5.32,0,202,,
2546,101,36501,36475,1,1,-7.710135,-6.17285,-0.138298,-0.018661,-0.007063,0.076701,-7.399185,-7.605628,-4.692398,-0.096474,-1.154093,0.157026,3.074214,76.711958,-131.60862,-0.336463,0.557206,-0.273429,0.708202,664.285156,94189.01563,0.176041,-0.065519,0,-286.65094,-286.653625,23.625,28.273399,0,5.32,0,202,,
2547,101,38576,38535,1,1,-7.717177,-6.16802,-0.148805,-0.021995,-0.008781,0.079327,-9.321287,-6.16405,-4.692398,0.230318,-1.044618,-0.554503,3.345275,77.036399,-131.815903,-0.335841,0.55895,-0.274954,0.706531,664.195312,94187.17188,0.068319,-0.091225,0,-286.740784,-286.750061,23.625,28.259815,0,5.32,0,202,,
2548,101,40808,40786,1,1,-7.732336,6.117811,0.118087,-0.022658,-0.011246,0.059524,-7.879711,5.683524,6.614501,-0.244935,-0.49609,0.145497,176.39484,102.830253,131.959268,-0.705653,0.276207,-0.559373,0.335956,664.180298,94187.17188,0.078425,-0.063262,0,-286.755798,-286.751007,23.5,28.259815,0,5.32,0,202,,
2549,101,42897,42870,1,1,-7.750611,6.141395,0.155814,0.018615,-0.035909,0.088961,-5.477081,11.93036,5.172924,-1.069022,1.278815,0.302275,176.595866,102.763584,131.8918,-0.705602,0.275474,-0.560219,0.335254,664.445679,94186.57031,0.851744,0.119284,0,-286.490417,-286.605133,23.5,28.223589,0,5.32,0,202,,
2550,101,44995,44964,1,1,-7.751877,6.140718,0.127488,-0.002778,0.013489,0.089202,-7.879711,6.644576,5.65345,-0.527168,-0.721802,-0.490157,176.415057,102.428713,131.813089,-0.703239,0.277849,-0.561603,0.335941,664.364441,94183.72656,-0.116908,0.115639,0,-286.571655,-286.578003,23.5,28.210005,0,5.32,0,202,,
2551,101,47100,47065,1,1,-7.721211,6.139571,0.126448,-0.00995,0.001392,0.064461,-8.360237,6.644576,5.65345,-0.410869,-0.255066,0.399164,176.154472,101.90326,132.257256,-0.701226,0.278626,-0.565216,0.333436,664.379089,94187.90625,-0.392625,0.039711,0,-286.557007,-286.561005,23.5,28.191893,0,5.32,0,202,,
2552,101,49206,49168,1,1,-7.739787,6.12998,0.132272,-0.000412,0.020294,0.073109,-7.399185,6.644576,5.172924,-0.76971,0.796524,0.070794,176.005943,101.464441,132.179187,-0.698385,0.281045,-0.56734,0.333761,664.291626,94190.08594,0.191765,-0.006551,0,-286.64447,-286.564697,23.5,28.173779,0,5.32,0,202,,
2553,101,51394,51367,1,1,-7.742422,6.124168,0.136941,0.004552,0.005481,0.071651,-8.840761,6.16405,5.172924,-0.110539,-0.63906,-0.340562,175.994564,101.164944,132.237162,-0.696984,0.281593,-0.56932,0.332858,664.348877,94186.25,0.420564,-0.209228,0,-286.587219,-286.63028,23.375,28.160194,0,5.32,0,202,,
2554,101,53505,53472,1,1,-7.738458,6.142077,0.127649,-0.011864,-0.001747,0.079536,-9.321287,6.644576,5.65345,-0.127851,0.432764,0.610363,175.62923,100.636554,132.757909,-0.694853,0.282549,-0.57284,0.330453,664.420105,94186.59375,0.431144,0.101183,0,-286.515991,-286.49118,23.375,28.128496,0,5.32,0,202,,
2555,101,55618,55575,1,1,-7.737779,6.114638,0.134478,-0.000959,-0.01285,0.062059,-7.879711,6.644576,5.172924,0.2931,0.000737,0.143842,175.867549,100.78679,132.45096,-0.695335,0.282259,-0.571835,0.331427,664.406006,94184.84375,-0.282693,-0.071582,0,-286.53009,-286.523438,23.375,28.105854,0,5.32,0,202,,
2556,101,57734,57733,1,1,-7.751185,6.126481,0.117083,-0.018954,0.01065,0.079682,-8.840761,7.125102,5.65345,-0.069237,-0.653642,-0.831208,175.751887,100.843782,132.455072,-0.695357,0.282797,-0.571155,0.332093,664.295593,94188.07031,-0.356853,0.064775,0,-286.640503,-286.566406,23.375,28.083214,0,5.32,0,202,,
2557,101,59855,59847,1,1,-7.752425,6.125745,0.134232,-0.002994,-0.017025,0.080425,-8.360237,7.605628,5.172924,-0.496271,-0.324296,0.086157,175.658327,100.329421,132.686602,-0.693119,0.283496,-0.57466,0.330124,664.403503,94187.26563,-0.185445,0.140278,0,-286.532593,-286.453247,23.375,28.0651,0,5.32,0,202,,
2558,101,61983,61950,1,1,-7.74486,6.124448,0.127559,-0.017082,-0.018587,0.073582,-7.879711,6.16405,5.65345,-0.606931,-0.873443,0.69817,175.406471,100.275093,132.980027,-0.693057,0.283682,-0.574999,0.329505,664.185181,94190.53906,-1.012059,-0.083008,0,-286.750916,-286.549408,23.25,28.03793,0,5.32,0,202,,
2559,101,64120,64117,1,1,-7.712752,6.140591,0.122547,-0.013317,0.036847,0.058355,-6.438133,6.16405,5.65345,-0.398586,-0.709023,-0.405325,175.44543,100.473517,132.807851,-0.693969,0.282303,-0.574177,0.330202,664.505066,94183.90625,0.804839,0.193645,0,-286.43103,-286.544861,23.25,28.006231,0,5.32,0,202,,
2560,101,66260,66242,1,1,-7.751073,6.126536,0.136374,-0.006018,-0.010755,0.079892,-8.360237,7.125102,4.692398,-0.750263,-0.512,0.979014,175.183601,99.749442,133.137777,-0.690197,0.285521,-0.57802,0.328633,664.253296,94188.07813,-0.143826,-0.096479,0,-286.6828,-286.615784,23.125,27.988117,0,5.32,0,202,,
2561,101,68478,68471,1,1,-7.76714,6.12877,0.129133,0.010317,-0.004262,0.093788,-7.399185,11.449834,4.211873,-0.231464,0.219766,-0.227996,175.974401,99.800784,132.256914,-0.689903,0.285074,-0.577781,0.330053,664.696777,94178.35938,0.722288,0.070054,0,-286.239319,-286.514557,23.25,27.965475,0,5.32,0,202,,
2562,101,70617,70595,1,1,-7.731706,6.104702,0.139234,0.001453,0.031824,0.051159,-8.840761,4.722473,6.614501,0.133744,0.006652,-0.377531,175.011986,99.616267,133.027824,-0.68875,0.287432,-0.578079,0.329897,664.60022,94182.57813,0.391486,0.110461,0,-286.335876,-286.435974,23.125,27.942833,0,5.32,0,202,,
2563,101,72763,72758,1,1,-7.798917,6.100864,0.133444,0.000093,-0.042746,0.101506,-9.801813,6.16405,5.172924,-0.322369,0.140187,0.403061,175.538922,99.442275,132.679826,-0.688151,0.28645,-0.5798,0.328977,664.489563,94182.86719,0.355588,-0.088477,0,-286.446533,-286.547485,23.25,27.915661,0,5.32,0,202,,
2564,101,74911,74889,1,1,-7.750725,6.108612,0.129381,-0.009108,-0.021521,0.068401,-7.879711,6.644576,5.65345,0.218612,0.920954,-0.146408,175.25775,99.510775,133.052167,-0.688878,0.286088,-0.5795,0.3283,664.608582,94183.14844,0.474893,0.144716,0,-286.327515,-286.398743,23.125,27.888491,0,5.32,0,202,,
2565,101,77115,77071,1,1,-7.726073,6.110754,0.140046,0.004389,-0.008686,0.046387,-9.801813,10.008257,5.65345,-0.080316,0.279414,-0.137655,175.3094,99.133454,132.986911,-0.686778,0.287417,-0.581631,0.327769,664.254211,94190.21094,-0.861971,-0.094124,0,-286.681885,-286.431885,23.125,27.879433,0,5.32,0,202,,
2566,101,79198,79159,1,1,-7.743381,6.106475,0.137972,-0.006229,-0.002583,0.061453,-9.801813,0.878266,4.692398,-1.133068,-0.439121,-0.190716,174.555866,98.836129,133.659781,-0.685147,0.288746,-0.58324,0.327154,664.445618,94182.48438,-0.330023,-0.126031,0,-286.490479,-286.483643,23.125,27.856791,0,5.32,0,202,,
2567,101,81281,81248,1,1,-7.721191,6.109954,0.126469,0.020182,-0.001239,0.046026,-4.516029,6.16405,4.692398,0.060892,-0.631537,-0.023903,176.00989,98.928132,132.28623,-0.685777,0.287479,-0.58305,0.327291,664.578796,94182.76563,-0.200575,0.139334,0,-286.3573,-286.393768,23.125,27.829618,0,5.32,0,202,,
2568,101,83374,83329,1,1,-7.764143,6.110257,0.125058,-0.008352,-0.009127,0.076814,-8.360237,4.722473,6.133976,-0.831701,-0.523925,0.304876,174.569048,98.322185,133.660505,-0.682315,0.290018,-0.586387,0.326321,664.337463,94187.97656,-0.622593,0.045736,0,-286.598633,-286.415497,23,27.806976,0,5.32,0,202,,
2569,101,85545,85523,1,1,-7.779266,6.118461,0.121184,0.000216,0.01272,0.096831,-9.801813,8.566679,4.692398,0.178463,0.175315,-0.353074,175.045618,98.258999,133.015557,-0.681591,0.290572,-0.586526,0.327092,664.336792,94188.21094,-0.286117,-0.304356,0,-286.599304,-286.52597,23,27.784332,0,5.32,0,202,,
2570,101,87632,87611,1,1,-7.769173,6.101773,0.127536,-0.008063,0.004961,0.078669,-8.360237,7.605628,4.211873,-0.463277,-0.105338,0.474244,174.314719,97.999773,133.753764,-0.680446,0.291745,-0.587914,0.325938,664.265381,94185.46094,0.033078,-0.079521,0,-286.670715,-286.695709,23,27.761688,0,5.32,0,202,,
2571,101,89732,89708,1,1,-7.769733,6.106431,0.134395,-0.011754,-0.000183,0.082075,-7.399185,7.125102,5.172924,-0.621517,-0.99263,-0.379804,173.801991,97.865109,134.315192,-0.680007,0.292215,-0.588719,0.324979,664.197998,94186.6875,-0.573417,-0.224987,0,-286.738098,-286.697845,23,27.739046,0,5.32,0,202,,
2572,101,91842,91805,1,1,-7.769258,6.087644,0.129974,0.004867,-0.018224,0.070034,-7.879711,7.605628,5.65345,0.412608,0.31451,0.037894,174.568693,97.550251,133.566344,-0.677965,0.292944,-0.590586,0.325201,664.25293,94187.72656,0.356378,0.143737,0,-286.683167,-286.778137,22.875,27.734516,0,5.32,0,202,,
2573,101,93950,93907,1,1,-7.766531,6.096334,0.125808,-0.017439,-0.019213,0.07318,-7.879711,6.16405,4.692398,-0.713073,0.228212,0.821295,173.589681,97.330838,134.611895,-0.676888,0.293266,-0.592121,0.324363,664.186829,94191.03125,0.243498,0.121438,0,-286.749268,-286.759644,23,27.702816,0,5.32,0,202,,
2574,101,96064,96062,1,1,-7.772724,6.099643,0.13352,-0.006994,0.001088,0.080227,-7.879711,7.125102,4.692398,-0.189234,-0.737987,0.506913,173.504823,97.225899,134.565874,-0.676482,0.294116,-0.59246,0.323819,664.344666,94186.34375,0.15038,0.047534,0,-286.591431,-286.613708,23,27.675644,0,5.32,0,202,,
2575,101,98184,98176,1,1,-7.752017,6.118178,0.131045,-0.006604,-0.003429,0.075386,-8.840761,8.086153,5.172924,0.174207,0.154671,0.358614,173.801909,97.390185,134.453435,-0.67782,0.292574,-0.591999,0.323259,664.411255,94184.53906,0.612655,0.013988,0,-286.524841,-286.627411,22.875,27.657528,0,5.32,0,202,,
2576,101,100308,100290,1,1,-7.79197,6.090373,0.1397,0.004662,-0.012913,0.089741,-9.321287,8.086153,5.65345,-0.001197,0.63899,-0.202024,173.913938,97.3109,134.119712,-0.676732,0.293815,-0.59195,0.324501,664.227783,94188.64844,0.179642,0.230194,0,-286.708313,-286.625122,22.875,27.643942,0,5.32,0,202,,
2577,101,102514,102498,1,1,-7.772613,6.094788,0.13248,-0.014876,-0.00803,0.077118,-7.879711,5.683524,5.172924,0.160954,-1.019689,0.586228,173.249224,97.234771,134.855815,-0.676693,0.294107,-0.592427,0.323446,664.281311,94183.05469,0.03878,-0.243079,0,-286.654785,-286.708313,22.875,27.607712,0,5.32,0,202,,
2578,101,104637,104612,1,1,-7.773454,6.106892,0.139149,0.009954,0.007731,0.08535,-7.879711,6.644576,5.172924,-0.278148,-0.348307,0.147181,174.052112,97.304589,134.0017,-0.676718,0.293623,-0.592077,0.324472,664.427979,94187.25781,0.147378,0.031782,0,-286.508118,-286.519348,22.75,27.585068,0,5.32,0,202,,
2579,101,106767,106726,1,1,-7.77038,6.094726,0.127179,-0.025498,-0.008877,0.075231,-8.840761,6.644576,5.172924,-0.749535,0.308096,1.14147,173.086747,97.314452,135.03631,-0.677222,0.293959,-0.59194,0.323366,664.510254,94183.46875,0.330044,-0.103258,0,-286.425842,-286.575165,22.875,27.566952,0,5.32,0,202,,
2580,101,108901,108896,1,1,-7.757056,6.087469,0.126874,-0.006442,-0.01028,0.060296,-7.399185,9.527731,4.692398,-0.127535,0.156797,0.01201,173.80169,97.121568,134.338346,-0.676032,0.293774,-0.593356,0.323428,664.374146,94186.67969,-0.265369,0.025268,0,-286.561951,-286.481476,22.75,27.544308,0,5.32,0,202,,
2581,101,111038,111020,1,1,-7.786777,6.073465,0.13397,-0.019061,-0.007052,0.075153,-7.879711,4.722473,5.172924,-0.444686,0.696032,0.152138,172.663139,96.92425,135.290994,-0.67471,0.295983,-0.593809,0.323344,664.436584,94186.85938,0.214809,0.003179,0,-286.499512,-286.508331,22.75,27.526192,0,5.32,0,202,,
2582,101,113189,113143,1,1,-7.782163,6.086554,0.133247,0.017333,-0.023571,0.075195,-8.840761,6.16405,5.172924,-0.570185,-0.361102,-0.342359,173.869077,96.478997,134.186402,-0.672201,0.296803,-0.596511,0.322845,664.420654,94188.03906,0.248146,0.191583,0,-286.515442,-286.456604,22.75,27.508076,0,5.32,0,202,,
2583,101,115339,115317,1,1,-7.755625,6.094913,0.110615,-0.030931,0.006865,0.063528,-9.801813,4.241947,5.172924,-0.276699,-1.265232,1.11544,172.622417,96.441841,135.474617,-0.672461,0.296293,-0.597141,0.321603,664.484131,94182.25781,0.249555,0.01471,0,-286.451965,-286.560913,22.75,27.48996,0,5.32,0,202,,
2584,101,117494,117493,1,1,-7.782018,6.075936,0.13663,0.016373,-0.00448,0.072965,-7.879711,5.683524,5.172924,-0.332981,0.08359,-0.121168,173.234061,95.915247,134.727886,-0.669217,0.298327,-0.599862,0.321427,664.578613,94178.50781,0.249639,-0.028901,0,-286.357483,-286.404449,22.625,27.467316,0,5.32,0,202,,
2585,101,119782,119781,1,1,-7.774283,6.101757,0.126641,0.001494,0.014186,0.082661,-8.840761,7.605628,5.65345,-0.687091,-0.252851,0.110433,172.068325,95.320051,135.942348,-0.666087,0.299407,-0.603688,0.319757,664.408203,94187.58594,0.081927,0.027555,0,-286.527893,-286.473907,22.75,27.453728,0,5.32,0,202,,
2586,101,121859,121824,1,1,-7.765065,6.088111,0.13256,-0.016275,-0.012974,0.067053,-7.399185,6.644576,5.172924,-0.017766,-0.825516,0.591104,170.562132,95.233533,137.580582,-0.665807,0.299643,-0.604345,0.318877,664.410522,94186.77344,0.087663,0.088963,0,-286.525574,-286.567322,22.75,27.435612,0,5.32,0,202,,
2587,101,123944,123901,1,1,-7.76827,6.10065,0.120378,-0.021476,0.01735,0.077141,-6.918659,5.683524,5.65345,-0.339675,-0.075217,0.871252,170.131352,94.852811,137.88764,-0.663784,0.301279,-0.606266,0.317905,664.466309,94179.09375,-0.289941,0.017377,0,-286.469788,-286.560364,22.75,27.408438,0,5.32,0,202,,
2588,101,126035,125998,1,1,-7.740646,6.105461,0.117808,-0.029196,0.018279,0.058358,-9.321287,1.358791,5.65345,-0.114171,0.718763,0.043524,169.226789,94.617251,138.911322,-0.662722,0.300147,-0.608572,0.316782,664.581909,94180.26563,-0.213834,-0.024527,0,-286.354187,-286.394501,22.625,27.390322,0,5.32,0,202,,
2589,101,128130,128091,1,1,-7.774675,6.062517,0.144221,0.006961,-0.006637,0.05904,-8.360237,6.16405,4.692398,-0.821459,0.38681,0.181862,168.646004,94.041733,139.30847,-0.659156,0.304114,-0.61071,0.316325,664.601379,94182.39063,0.687518,0.085049,0,-286.334717,-286.46875,22.625,27.376736,0,5.32,0,202,,
2590,101,130230,130191,1,1,-7.76687,6.073879,0.129732,0.015274,0.011961,0.059665,-9.321287,2.800369,5.65345,0.052089,0.534907,-0.713905,170.014774,93.866265,137.913964,-0.658298,0.303666,-0.612027,0.315996,664.597961,94185.50781,0.58977,0.192929,0,-286.338135,-286.408661,22.625,27.363148,0,5.32,0,202,,
2591,101,132338,132293,1,1,-7.831091,6.076642,0.092005,-0.026148,-0.010211,0.11614,-7.879711,8.086153,4.692398,-0.8636,-0.837291,0.330956,167.558474,93.314379,140.432856,-0.654618,0.304671,-0.615591,0.315751,664.584595,94183.78906,0.001683,0.133694,0,-286.351501,-286.383423,22.625,27.335974,0,5.32,0,202,,
2592,101,134447,134435,1,1,-7.784178,6.115767,0.11304,0.00749,0.023992,0.098909,-9.801813,5.202998,5.172924,-0.224145,-0.211397,0.299417,168.231808,93.032115,139.766789,-0.653451,0.305275,-0.617183,0.314474,664.526428,94184.96094,0.096838,0.05196,0,-286.409668,-286.360809,22.5,27.317856,0,5.32,0,202,,
2593,101,136642,136602,1,1,-7.796179,6.091929,0.121614,-0.018335,-0.013533,0.09376,-8.840761,5.683524,5.172924,-0.808469,0.403197,-0.14816,163.582225,92.854646,144.48589,-0.65245,0.306466,-0.618224,0.313348,664.533752,94182.15625,-0.357032,-0.016442,0,-286.402344,-286.374512,22.5,27.29974,0,5.32,0,202,,
2594,101,138756,138714,1,1,-7.784821,6.080093,0.130061,-0.007922,-0.004536,0.077654,-7.879711,7.125102,5.65345,-0.146902,-0.356101,0.508605,161.23962,92.485679,146.762638,-0.650615,0.307957,-0.620185,0.311822,664.393188,94187.21875,-0.1214,0.038665,0,-286.542908,-286.499695,22.5,27.290682,0,5.32,0,202,,
2595,101,140876,140875,1,1,-7.775959,6.089527,0.121676,-0.020168,-0.004834,0.076361,-8.840761,7.605628,5.65345,-0.062952,-2.253055,0.902566,159.875426,92.388636,148.206376,-0.650288,0.307956,-0.620964,0.310952,664.384644,94183.55469,0.832873,0.174005,0,-286.551453,-286.647827,22.5,27.258978,0,5.32,0,202,,
2596,101,142999,142982,1,1,-7.776543,6.089333,0.128372,-0.022399,-0.009216,0.076778,-8.360237,6.644576,5.172924,-0.573425,-0.153768,0.590943,158.710661,92.403334,149.393094,-0.650464,0.308127,-0.620904,0.310536,664.241455,94189.47656,0.03415,-0.138813,0,-286.694641,-286.59787,22.5,27.263506,0,5.32,0,202,,
2597,101,145128,145099,1,1,-7.773039,6.084557,0.133033,-0.01108,-0.011786,0.071153,-8.840761,6.16405,4.211873,0.018466,0.204264,0.105194,156.137264,92.062276,151.972529,-0.648454,0.308854,-0.623021,0.309778,664.12439,94186.71094,-0.484319,-0.207684,0,-286.811707,-286.719299,22.5,27.24086,0,5.32,0,202,,
2598,101,147268,147264,1,1,-7.774171,6.082009,0.117896,-0.01823,-0.010443,0.070273,-7.879711,6.644576,5.172924,-0.763508,-1.128565,0.413419,158.446646,92.145303,149.641221,-0.648462,0.308209,-0.62258,0.311285,664.20929,94186.9375,-0.138019,-0.034266,0,-286.726807,-286.718506,22.5,27.218214,0,5.32,0,202,,
2599,101,149407,149389,1,1,-7.773277,6.093131,0.130268,-0.012447,-0.005277,0.076594,-9.801813,8.086153,6.133976,-1.023807,-0.691619,0.684293,156.449991,92.0697,151.660649,-0.648498,0.308777,-0.622979,0.309845,664.259399,94186.11719,-0.035774,-0.093313,0,-286.676697,-286.689331,22.375,27.200098,0,5.32,0,202,,
2600,101,151553,151517,1,1,-7.777563,6.075553,0.134755,0.022343,-0.055454,0.069026,-6.918659,4.241947,5.172924,0.393917,0.16585,0.305799,156.834421,91.637663,151.47122,-0.646397,0.307775,-0.626209,0.30872,664.202698,94188.19531,-0.152286,0.09814,0,-286.733398,-286.692322,22.5,27.191038,0,5.32,0,202,,
2601,101,153785,153742,1,1,-7.811675,6.094258,0.108956,0.001836,-0.034651,0.075508,-8.840761,6.16405,5.65345,-0.535797,-0.43005,-0.05177,149.725478,91.574607,158.29029,-0.64475,0.311655,-0.625322,0.310067,664.26178,94187.375,-0.190597,0.088958,0,-286.674316,-286.618042,22.5,27.172922,0,5.32,0,202,,
2602,101,155925,155911,1,1,-7.774951,6.08572,0.117655,-0.009677,-0.006183,0.073187,-8.840761,6.644576,5.65345,-1.293629,-0.55007,1.25795,155.697372,91.793023,152.38107,-0.646737,0.309182,-0.624619,0.309822,664.190186,94190.57813,0.370446,0.03925,0,-286.745911,-286.698242,22.375,27.150276,0,5.32,0,202,,
2603,101,158076,158043,1,1,-7.779951,6.092127,0.134812,-0.000294,0.020958,0.081276,-7.399185,6.644576,5.172924,-0.115868,-0.199686,0.366689,147.724984,91.472038,160.20792,-0.644339,0.311309,-0.62628,0.309334,664.177795,94186.73438,-0.238417,0.179357,0,-286.758301,-286.7612,22.5,27.136688,0,5.32,0,202,,
2604,101,160280,160270,1,1,-7.772443,6.085868,0.138115,0.019032,0.003123,0.071556,-8.360237,6.644576,5.65345,0.097897,-0.003506,0.104037,143.375356,91.159065,164.660261,-0.642636,0.311083,-0.628578,0.308441,664.007751,94191.78906,0.057407,0.129902,0,-286.928345,-286.869232,22.5,27.127628,0,5.32,0,202,,
2605,101,162365,162364,1,1,-7.781806,6.088575,0.127818,-0.007542,-0.004277,0.080473,-6.438133,8.086153,4.692398,-0.372385,-0.738404,0.143151,140.134991,91.223911,167.924135,-0.642998,0.311443,-0.628336,0.307816,664.145508,94187.99219,0.385503,0.205029,0,-286.790588,-286.857422,22.5,27.109512,0,5.32,0,202,,
2606,101,164454,164450,1,1,-7.774,6.087025,0.128841,-0.009939,-0.022973,0.073357,-7.879711,6.644576,5.172924,-0.085638,0.378116,1.638321,132.023322,91.081775,176.166493,-0.642214,0.311417,-0.629842,0.3064,664.131958,94184.14844,-0.152395,0.112393,0,-286.804138,-286.905029,22.375,27.095922,0,5.32,0,202,,
2607,101,166542,166498,1,1,-7.776695,6.082584,0.134661,0.000104,-0.003269,0.085927,-7.879711,7.125102,5.172924,-0.28937,0.001791,-0.312044,130.007856,90.97049,178.054576,-0.641114,0.312154,-0.630172,0.307271,663.962158,94191.23438,0.168618,-0.016429,0,-286.973938,-286.943054,22.375,27.082335,0,5.32,0,202,,
2608,101,168636,168594,1,1,-7.772477,6.073627,0.143442,-0.002999,-0.020575,0.064114,-8.840761,5.683524,4.692398,0.046058,-0.765973,0.818886,126.320879,91.054051,-178.200769,-0.641262,0.312839,-0.629839,0.306947,664.062012,94189.375,0.787114,0.12694,0,-286.874084,-286.962616,22.375,27.068747,0,5.32,0,202,,
2609,101,170812,170796,1,1,-7.770269,6.08345,0.122542,-0.006389,0.015904,0.068153,-7.879711,6.644576,5.172924,-0.194861,0.114644,0.280605,125.113971,90.916115,-177.151529,-0.640372,0.312903,-0.630471,0.307444,664.072083,94187.60938,-0.314221,-0.024855,0,-286.864014,-286.901855,22.375,27.046101,0,5.32,0,202,,
2610,101,172910,172897,1,1,-7.781359,6.073924,0.125118,0.005432,-0.013073,0.071059,-7.879711,6.644576,4.692398,0.625989,1.23256,-0.033629,111.736916,90.747444,-163.688202,-0.639074,0.312802,-0.63225,0.306595,663.994446,94186.78906,0.189355,-0.12599,0,-286.94165,-286.997864,22.375,27.027983,0,5.32,0,202,,
2611,101,175007,174984,1,1,-7.77375,6.075789,0.13675,0.00422,-0.010912,0.066369,-7.879711,6.16405,4.692398,0.057649,-0.253298,0.880272,87.644168,90.770257,-139.570189,-0.637632,0.313913,-0.633826,0.305203,663.849426,94190.85156,0.30482,-0.175016,0,-287.08667,-287.117004,22.375,27.018923,0,5.32,0,202,,
2612,101,177118,177087,1,1,-7.772377,6.103445,0.129467,0.000752,0.015237,0.082239,-9.321287,7.605628,5.172924,0.049843,0.221441,-0.011574,78.646042,90.760879,-130.591769,-0.636861,0.31421,-0.634491,0.305124,664.016541,94190.9375,0.484746,0.02548,0,-286.919556,-286.952576,22.25,27.009865,0,5.32,0,202,,
2613,101,179236,179194,1,1,-7.779999,6.078801,0.129897,-0.001015,-0.004932,0.07306,-6.918659,4.722473,5.65345,0.049673,-0.773053,0.419209,89.371086,90.759704,-141.340588,-0.637619,0.314036,-0.633604,0.305563,664.036499,94189.125,0.104431,0.116645,0,-286.899597,-286.969452,22.25,26.991747,0,5.32,0,202,,
2614,101,181356,181354,1,1,-7.786039,6.084786,0.143835,-0.005895,0.001337,0.081696,-6.918659,8.086153,5.65345,-0.560501,-0.783876,-0.41125,87.992466,90.868632,-139.992404,-0.637705,0.314863,-0.633346,0.305069,664.112244,94186.40625,0.082967,0.300939,0,-286.823853,-286.881775,22.25,26.964569,0,5.32,0,202,,
2615,101,183661,183640,1,1,-7.768895,6.064742,0.129929,-0.007737,-0.031564,0.055604,-7.879711,5.202998,5.172924,0.017202,0.340404,-0.092399,59.762598,90.928027,-111.599035,-0.634972,0.315459,-0.636069,0.304489,663.841431,94192.1875,0.272194,-0.131411,0,-287.094666,-287.119537,22.25,26.982687,0,5.32,0,202,,
2616,101,185792,185752,1,1,-7.744322,6.065047,0.142017,0.010279,-0.008683,0.036648,-7.879711,9.047205,4.692398,0.226582,-0.565051,0.063503,53.400639,90.956372,-105.279006,-0.634758,0.315089,-0.636942,0.30349,663.949585,94189.46875,0.024483,-0.019289,0,-286.986511,-287.055511,22.25,26.955511,0,5.32,0,202,,
2617,101,188021,187982,1,1,-7.79806,6.0706,0.13246,0.01142,-0.023608,0.082258,-8.840761,7.125102,5.172924,-0.34371,0.216177,0.269428,30.619376,91.383437,-82.573948,-0.63092,0.316827,-0.640319,0.302574,663.695435,94195.55469,-0.040835,-0.083259,0,-287.240662,-287.143951,22.25,26.941923,0,5.32,0,202,,
2618,101,190153,190148,1,1,-7.807311,6.070385,0.134075,-0.017284,-0.0741,0.08919,-8.840761,6.644576,5.172924,0.154348,0.052643,0.346602,32.051725,91.672477,-83.748064,-0.629503,0.318619,-0.641014,0.302173,663.898743,94188.82031,-0.039044,-0.051388,0,-287.037354,-287.085815,22.25,26.919275,0,5.32,0,202,,
2619,101,192290,192275,1,1,-7.784626,6.09709,0.131003,-0.00124,0.008048,0.087984,-8.360237,4.722473,5.65345,-0.558477,-0.658952,0.515849,22.497321,91.998878,-74.463009,-0.627364,0.318972,-0.643715,0.300503,663.97113,94186.875,0.261376,-0.025895,0,-286.964966,-287.157928,22.125,26.914745,0,5.32,0,202,,
2620,101,194430,194386,1,1,-7.781079,6.077963,0.12884,0.007296,0.012076,0.073372,-8.360237,7.605628,5.65345,0.306724,0.385911,0.469286,18.284761,92.240284,-70.346031,-0.625641,0.319783,-0.645206,0.300036,663.977844,94187.09375,0.316248,0.12604,0,-286.958252,-287.061554,22.125,26.892097,0,5.32,0,202,,
2621,101,196573,196559,1,1,-7.78443,6.072513,0.113089,-0.011261,-0.013259,0.072462,-8.840761,7.605628,4.692398,-0.253389,0.543939,0.634796,16.592876,92.538948,-68.546139,-0.623977,0.320238,-0.647051,0.299042,663.615723,94195.11719,-0.464284,-0.231688,0,-287.320374,-287.198608,22,26.883038,0,5.32,0,202,,
2622,101,198729,198689,1,1,-7.778467,6.079524,0.139653,0.003385,-0.004621,0.07243,-8.360237,7.605628,5.172924,-0.688796,-0.682881,0.590458,15.819616,92.906849,-67.761931,-0.622123,0.321508,-0.648867,0.297603,663.717529,94194.25781,-0.472652,0.341506,0,-287.218567,-287.150848,22,26.86945,0,5.32,0,202,,
2623,101,200936,200916,1,1,-7.783502,6.079638,0.121156,0.000137,-0.002839,0.076225,-7.879711,6.644576,4.211873,-0.070023,-0.180743,0.274592,14.231948,92.859885,-66.205304,-0.621944,0.321125,-0.648891,0.298337,663.623779,94192.3125,0.177514,-0.061472,0,-287.312317,-287.30014,22.125,26.86492,0,5.32,0,202,,
2624,101,203024,203010,1,1,-7.790419,6.075613,0.131394,0.000742,0.004666,0.079332,-7.879711,5.683524,5.172924,-1.335092,0.274075,-0.698126,13.817435,93.167892,-65.873862,-0.620141,0.322693,-0.650154,0.297646,663.53363,94197.35938,-0.281325,0.034465,0,-287.402466,-287.304565,22.125,26.85586,0,5.32,0,202,,
2625,101,205195,205153,1,1,-7.79138,6.077994,0.135087,-0.0004,-0.015841,0.081592,-7.879711,6.16405,4.692398,0.189189,-0.333037,-0.02353,14.405086,93.17893,-66.334736,-0.620308,0.322606,-0.650224,0.297242,663.55896,94195.54688,-0.259105,0.00246,0,-287.377136,-287.315765,22.125,26.837742,0,5.32,0,202,,
2626,101,207277,207242,1,1,-7.785049,6.067087,0.118192,-0.031516,-0.018342,0.069622,-8.840761,6.644576,5.172924,-1.250194,-0.966442,1.004105,16.486663,93.081996,-68.437013,-0.620722,0.322011,-0.64969,0.298186,663.465698,94197.61719,-0.398808,-0.060437,0,-287.470398,-287.366058,22,26.828684,0,5.32,0,202,,
2627,101,209368,209333,1,1,-7.765814,6.07837,0.131417,-0.024494,-0.011397,0.061606,-8.840761,7.125102,4.211873,0.477842,0.536122,0.27882,17.211237,93.073294,-69.078505,-0.621339,0.321692,-0.649714,0.297193,663.670166,94194.76563,0.813246,0.131883,0,-287.26593,-287.349579,22.125,26.815094,0,5.32,0,202,,
2628,101,211465,211432,1,1,-7.787686,6.079513,0.133344,-0.007819,0.011066,0.079594,-9.801813,5.683524,5.172924,-0.746142,-1.297459,0.557209,13.642042,93.456474,-65.707239,-0.618664,0.32381,-0.651492,0.296581,663.70105,94194.89063,-0.04044,0.162026,0,-287.235046,-287.20282,22,26.801504,0,5.32,0,202,,
2629,101,213571,213534,1,1,-7.77796,6.079553,0.129908,-0.023458,0.023856,0.071861,-7.879711,7.125102,5.172924,-1.098538,0.078991,0.25657,14.549285,93.511471,-66.656861,-0.618505,0.324526,-0.651403,0.296326,663.737793,94190.01563,-0.206965,0.069919,0,-287.198303,-287.230774,22,26.792446,0,5.32,0,202,,
2630,101,215677,215672,1,1,-7.781585,6.05567,0.123923,-0.002974,-0.013838,0.060002,-7.879711,7.125102,5.65345,-0.751652,1.005474,0.424679,12.223807,93.507052,-64.23213,-0.618226,0.323265,-0.652221,0.296487,663.66394,94191.04688,-0.051128,0.057298,0,-287.272156,-287.270233,22,26.787916,0,5.32,0,202,,
2631,101,217787,217778,1,1,-7.785258,6.068635,0.126621,0.001529,-0.014866,0.070898,-8.360237,7.125102,5.172924,0.028426,0.915158,-0.082495,10.854916,93.888819,-62.807291,-0.616103,0.323915,-0.654509,0.295151,663.64209,94192.17188,0.040236,-0.017775,0,-287.294006,-287.325928,22,26.774326,0,5.32,0,202,,
2632,101,219901,219887,1,1,-7.790374,6.066512,0.125324,-0.006429,-0.008357,0.073619,-8.360237,8.086153,5.172924,0.64789,-0.22798,-0.2246,11.479387,93.859859,-63.499538,-0.616233,0.324404,-0.654023,0.295418,663.479919,94196.14063,-0.381108,-0.150413,0,-287.456177,-287.388367,22,26.774326,0,5.32,0,202,,
2633,101,222101,222055,1,1,-7.786336,6.076,0.135037,0.005981,-0.027101,0.097109,-8.840761,7.125102,5.172924,-0.164723,0.497943,0.736124,11.059683,94.096081,-62.986816,-0.614838,0.325525,-0.655059,0.294797,663.654724,94194.32031,-0.202105,-0.081349,0,-287.281372,-287.293701,22,26.756208,0,5.32,0,202,,
2634,101,224213,224208,1,1,-7.766087,6.055873,0.119206,-0.034817,-0.01881,0.047774,-8.840761,6.644576,5.172924,-1.363196,-0.425766,0.124954,11.171622,94.671579,-63.09599,-0.612244,0.326696,-0.658195,0.291901,663.771179,94195.44531,0.486639,0.202484,0,-287.164917,-287.169525,22,26.742619,0,5.32,0,202,,
2635,101,226334,226312,1,1,-7.817424,6.051418,0.129338,0.002885,-0.056695,0.085621,-8.840761,3.761421,4.692398,-0.508882,0.279532,0.791505,8.829496,94.963938,-60.724855,-0.610078,0.32657,-0.660381,0.291639,663.837646,94190.64844,1.018157,0.055963,0,-287.09845,-287.294098,22,26.724501,0,5.32,0,202,,
2636,101,228461,228424,1,1,-7.780367,6.087758,0.128791,-0.015529,0.007674,0.078838,-7.879711,7.605628,5.65345,-0.699929,-0.103975,-0.117576,9.086368,95.279206,-61.059521,-0.60829,0.32821,-0.661593,0.290785,663.761841,94189.69531,0.216875,-0.120594,0,-287.174255,-287.260681,22,26.719971,0,5.32,0,202,,
2637,101,230595,230591,1,1,-7.788571,6.089198,0.147459,0.026619,0.014253,0.086417,-7.399185,7.605628,6.614501,-0.845217,0.443253,1.257935,7.735882,95.159124,-59.754723,-0.608952,0.32785,-0.661103,0.290921,663.713379,94189.74219,-0.392643,0.084305,0,-287.222717,-287.188232,22,26.715441,0,5.32,0,202,,
2638,101,232733,232710,1,1,-7.783499,6.093936,0.136261,0.045935,0.015474,0.085108,-8.360237,7.125102,4.692398,-0.279841,1.681055,0.428363,5.318328,95.57662,-57.298341,-0.605456,0.327372,-0.664234,0.291623,663.549377,94195.78125,-0.240655,-0.102486,0,-287.386719,-287.286713,21.875,26.706381,0,5.32,0,202,,
2639,101,234881,234873,1,1,-7.755201,6.085417,0.130702,-0.010922,-0.039008,0.057544,-9.801813,7.125102,5.172924,-0.315881,0.672442,0.503177,8.110974,96.008814,-59.727204,-0.604948,0.328103,-0.666457,0.286741,663.788696,94191.85156,0.736759,0.240582,0,-287.1474,-287.217682,21.875,26.701851,0,5.32,0,202,,
2640,101,237031,237000,1,1,-7.778822,6.078232,0.121108,-0.015986,-0.003574,0.071658,-8.360237,10.488783,4.692398,-0.661491,-0.67652,0.83647,7.234896,96.344121,-59.177176,-0.601987,0.330609,-0.667464,0.287752,663.755615,94194,0.256438,-0.007023,0,-287.180481,-287.219086,21.875,26.683733,0,5.32,0,202,,
2641,101,239278,239245,1,1,-7.773121,6.063593,0.129587,-0.008101,-0.013957,0.058265,-10.282339,2.800369,5.172924,-0.052956,-0.186653,0.574663,6.817631,96.83457,-58.737858,-0.599191,0.331801,-0.670066,0.286164,663.35553,94199.13281,-0.411736,-0.073441,0,-287.580566,-287.385681,21.875,26.665613,0,5.32,0,202,,
2642,101,241481,241471,1,1,-7.78635,6.088505,0.114242,-0.018875,-0.009975,0.083824,-8.360237,2.800369,4.692398,-0.121437,0.288809,0.683513,6.323545,97.080163,-58.208245,-0.597722,0.332054,-0.671561,0.285437,663.585449,94192.22656,-0.290067,-0.077511,0,-287.350647,-287.3638,21.875,26.661083,0,5.32,0,202,,
2643,101,243556,243555,1,1,-7.827882,6.086246,0.116878,0.001887,-0.021617,0.115215,-9.321287,8.086153,5.65345,0.386655,-0.758805,0.444452,5.324059,97.353166,-57.289871,-0.595587,0.332709,-0.673068,0.285587,663.621765,94192.3125,-0.114614,-0.03022,0,-287.314331,-287.326263,21.875,26.652023,0,5.32,0,202,,
2644,101,245637,245636,1,1,-7.78348,6.074948,0.137364,-0.010096,-0.021001,0.073506,-5.957607,4.722473,4.692398,-1.220218,-1.170947,0.088605,6.658417,97.533407,-58.516485,-0.595413,0.333539,-0.673693,0.283501,663.411621,94193.30469,-0.640773,0.038516,0,-287.524475,-287.386749,21.875,26.652023,0,5.32,0,202,,
2645,101,247722,247683,1,1,-7.794986,6.074354,0.131331,0.028406,0.008018,0.082115,-9.321287,7.125102,6.133976,-0.247618,0.781216,0.047378,4.35199,97.824606,-56.407315,-0.592782,0.334615,-0.675206,0.284147,663.701782,94194.46094,0.639324,0.322353,0,-287.234314,-287.339783,21.875,26.633904,0,5.32,0,202,,
2646,101,249813,249775,1,1,-7.778529,6.076473,0.137182,0.004083,-0.004701,0.070566,-8.360237,5.202998,6.133976,0.352776,-0.889266,-0.405802,5.595074,97.990484,-57.514352,-0.592215,0.33481,-0.676076,0.283028,663.408203,94196.49219,-0.162089,-0.185632,0,-287.527893,-287.462036,21.875,26.629374,0,5.32,0,202,,
2647,101,251913,251869,1,1,-7.782001,6.069534,0.128785,-0.013376,-0.03793,0.058213,-7.879711,7.125102,4.692398,-0.282779,-0.986464,0.794761,6.156492,97.862226,-57.992664,-0.59266,0.334696,-0.675281,0.284128,663.429749,94193.51563,-0.54789,-0.067926,0,-287.506348,-287.479095,21.75,26.629374,0,5.32,0,202,,
2648,101,254016,253972,1,1,-7.779968,6.083639,0.146485,0.024169,-0.002327,0.076218,-7.879711,5.683524,6.133976,-0.485563,0.615365,0.553284,5.358871,97.652464,-57.255393,-0.594368,0.334036,-0.674323,0.28361,663.654785,94193.71875,0.236927,0.141715,0,-287.281311,-287.324249,21.75,26.606726,0,5.32,0,202,,
2649,101,256195,256163,1,1,-7.785093,6.085724,0.143916,0.0109,0.011111,0.081519,-7.879711,7.605628,5.65345,-0.151909,0.420021,0.259362,5.279059,98.317424,-57.26322,-0.590083,0.33569,-0.677742,0.282453,663.375916,94199.71875,-0.559565,0.225625,0,-287.560181,-287.39447,21.875,26.602196,0,5.32,0,202,,
2650,101,258300,258261,1,1,-7.777227,6.073723,0.133357,0.003076,0.002463,0.067796,-8.360237,6.644576,4.692398,0.013278,-0.178553,0.228486,5.078111,98.555395,-57.044886,-0.588682,0.336141,-0.679043,0.281714,663.600159,94195.82813,0.003152,0.212842,0,-287.335938,-287.373596,21.875,26.593136,0,5.32,0,202,,
2651,101,260411,260370,1,1,-7.780091,6.070567,0.131713,-0.028936,0.017471,0.068033,-8.840761,5.202998,5.172924,-0.770562,-1.062001,0.589483,5.971303,98.832229,-58.063083,-0.587244,0.338429,-0.679574,0.280696,663.467407,94195.82813,0.308874,0.15714,0,-287.468689,-287.503754,21.75,26.593136,0,5.32,0,202,,
2652,101,262527,262526,1,1,-7.786852,6.07219,0.138012,-0.000302,-0.00953,0.074501,-7.879711,7.605628,4.692398,-0.02461,-0.439477,0.82254,5.234885,98.924703,-57.170374,-0.586734,0.337181,-0.680848,0.280177,663.368774,94197.97656,0.02993,-0.032343,0,-287.567322,-287.56076,21.75,26.575016,0,5.32,0,202,,
2653,101,264647,264640,1,1,-7.795966,6.069159,0.133458,0.013448,-0.013282,0.07975,-7.399185,4.241947,4.692398,-0.553009,1.155482,0.385936,4.474068,99.128345,-56.428489,-0.585144,0.337257,-0.682158,0.280223,663.385803,94198.96875,0.352769,0.09721,0,-287.550293,-287.571167,21.75,26.575016,0,5.32,0,202,,
2654,101,266775,266750,1,1,-7.785285,6.071529,0.138377,-0.007505,-0.015175,0.072854,-9.321287,6.644576,5.172924,0.318279,-1.021777,0.313935,5.347157,99.269614,-57.248101,-0.584909,0.338096,-0.682555,0.278732,663.115173,94200.08594,-0.429807,0.139894,0,-287.820923,-287.66861,21.75,26.561426,0,5.32,0,202,,
2655,101,268905,268864,1,1,-7.787677,6.076933,0.125624,0.006103,-0.001375,0.077905,-8.360237,7.125102,5.172924,0.391931,0.582531,0.042671,4.39652,99.10319,-56.362024,-0.585223,0.337185,-0.682041,0.280429,663.384399,94195.21094,-0.496517,0.142507,0,-287.551697,-287.540741,21.75,26.552366,0,5.32,0,202,,
2656,101,271039,271030,1,1,-7.794428,6.065111,0.120328,-0.005092,-0.016029,0.075886,-6.918659,8.086153,4.211873,0.690782,-0.073903,-0.366051,4.5967,99.301286,-56.561797,-0.584186,0.337928,-0.682904,0.279595,663.269653,94199.14063,0.409664,-0.16181,0,-287.666443,-287.712585,21.75,26.556896,0,5.32,0,202,,
2657,101,273259,273216,1,1,-7.791471,6.061583,0.128608,-0.022362,0.004561,0.071478,-6.918659,6.644576,5.65345,0.200637,-0.787457,-0.510619,5.304759,99.453777,-57.398376,-0.583153,0.338938,-0.683295,0.279574,663.386047,94194.38281,0.433127,0.092006,0,-287.550049,-287.677246,21.75,26.534246,0,5.32,0,202,,
2658,101,275548,275519,1,1,-7.7851,6.067166,0.130895,-0.003018,-0.002394,0.069938,-8.360237,7.605628,6.614501,-0.201433,-0.448016,0.120045,4.692207,99.571707,-56.685994,-0.582611,0.33897,-0.684077,0.27875,663.325928,94197.27344,-0.58282,0.058785,0,-287.610168,-287.553925,21.75,26.543306,0,5.32,0,202,,
2659,101,277690,277680,1,1,-7.798688,6.075477,0.140788,0.010813,-0.001668,0.085894,-8.360237,6.16405,5.65345,-1.004637,-0.315516,0.870024,4.372467,99.96406,-56.366471,-0.580177,0.339817,-0.68614,0.277725,663.301636,94197.39844,0.030497,-0.033414,0,-287.63446,-287.644836,21.75,26.529716,0,5.32,0,202,,
2660,101,279840,279810,1,1,-7.797085,6.069307,0.122393,-0.022756,-0.012913,0.080565,-9.321287,6.16405,5.65345,-0.363705,-1.128698,0.867701,4.794374,100.257963,-56.770374,-0.578755,0.340953,-0.687372,0.27625,663.336243,94195.53906,0.017218,0.034328,0,-287.599854,-287.629852,21.625,26.516127,0,5.32,0,202,,
2661,101,281997,281986,1,1,-7.786067,6.067207,0.128517,-0.0072,-0.003601,0.070692,-7.399185,6.644576,4.692398,0.0697,0.153103,1.0701,4.254853,100.721917,-56.240942,-0.57573,0.341822,-0.689871,0.275263,663.249268,94201.53125,-0.240975,0.137068,0,-287.686829,-287.612,21.625,26.511597,0,5.32,0,202,,
2662,101,284207,284170,1,1,-7.782839,6.059901,0.133898,0.016506,-0.023065,0.06369,-7.879711,7.125102,5.65345,0.03269,0.153755,0.60122,3.823409,100.683525,-55.702768,-0.575811,0.341767,-0.689706,0.275576,663.142029,94201.61719,0.042953,-0.08034,0,-287.794067,-287.690735,21.625,26.502537,0,5.32,0,202,,
2663,101,286292,286251,1,1,-7.774627,6.074079,0.14232,0.01278,0.022436,0.066058,-9.801813,5.683524,5.172924,-0.539833,0.294074,-1.088883,3.797298,101.070797,-55.841069,-0.573285,0.342689,-0.691639,0.274854,663.062073,94202.72656,-0.464649,-0.099256,0,-287.874023,-287.736267,21.75,26.488947,0,5.32,0,202,,
2664,101,288384,288344,1,1,-7.806859,6.052706,0.127553,-0.007773,-0.026584,0.07816,-10.282339,6.644576,4.692398,-0.267675,-0.162601,0.845043,4.130097,101.38116,-56.120208,-0.571281,0.344029,-0.692872,0.274245,663.331421,94198.71875,0.226413,0.084451,0,-287.604675,-287.632874,21.75,26.493477,0,5.32,0,202,,
2665,101,290554,290543,1,1,-7.793326,6.057797,0.151752,0.03126,-0.030081,0.070879,-8.360237,4.241947,6.614501,-0.938579,-0.259195,0.715218,3.744715,101.361872,-55.606534,-0.571978,0.342344,-0.693609,0.273036,663.078857,94197.8125,-0.752686,-0.222776,0,-287.857239,-287.774139,21.625,26.484417,0,5.32,0,202,,
2666,101,292644,292641,1,1,-7.767071,6.064351,0.13811,-0.023585,0.019608,0.054043,-7.399185,6.16405,4.692398,0.032538,1.057379,0.607439,4.537797,101.636568,-56.602263,-0.570377,0.345191,-0.693815,0.272277,663.205994,94200.90625,-0.170448,-0.085285,0,-287.730103,-287.679779,21.625,26.470827,0,5.32,0,202,,
2667,101,294738,294738,1,1,-7.770339,6.075191,0.134754,0.000176,0.031863,0.063241,-8.360237,3.761421,4.692398,-0.027219,0.012806,-0.152798,3.55815,102.062643,-55.640732,-0.567202,0.345413,-0.696404,0.272017,663.420654,94199.96094,0.202627,0.338811,0,-287.515442,-287.534698,21.625,26.466297,0,5.32,0,202,,
2668,101,296836,296829,1,1,-7.741069,6.031434,0.158917,0.027219,0.005225,0.013623,-9.321287,10.008257,4.211873,0.222035,-0.006548,0.612409,3.583808,102.349579,-55.573117,-0.565739,0.345661,-0.698031,0.270575,663.409058,94197.10156,0.092261,0.209956,0,-287.527039,-287.540863,21.5,26.452707,0,5.32,0,202,,
2669,101,298941,298930,1,1,-7.791662,6.068414,0.122411,-0.01883,0.000388,0.075754,-5.477081,8.086153,6.133976,-0.520382,0.18202,-0.689165,3.774928,102.497179,-55.798838,-0.564909,0.346499,-0.698498,0.270032,663.30188,94195.07813,-0.348304,-0.185028,0,-287.634216,-287.675354,21.625,26.457237,0,5.32,0,202,,
2670,101,301054,301041,1,1,-7.811848,6.03712,0.152215,0.021544,-0.023675,0.072902,-8.840761,5.683524,5.172924,-0.009859,-0.288635,-0.555296,3.564154,102.845252,-55.616045,-0.562633,0.347374,-0.700197,0.269258,663.103577,94201.03125,-0.362773,-0.189483,0,-287.83252,-287.706451,21.625,26.457237,0,5.32,0,202,,
2671,101,303166,303144,1,1,-7.719516,6.048426,0.139681,-0.034624,0.034614,0.006726,-6.918659,7.125102,4.692398,-0.789002,-0.248073,1.727117,4.230131,103.223686,-56.281858,-0.56085,0.349222,-0.701505,0.267175,663.251221,94201.15625,-0.065672,0.155434,0,-287.684875,-287.642517,21.625,26.443647,0,5.32,0,202,,
2672,101,305295,305257,1,1,-7.792795,6.062788,0.132735,0.000641,-0.003368,0.073343,-7.879711,6.16405,5.172924,-0.361235,0.578397,-0.313913,3.319441,103.440217,-55.325967,-0.559016,0.348404,-0.703303,0.267359,663.165649,94198.30469,-0.692072,-0.099796,0,-287.770447,-287.648193,21.625,26.430058,0,5.32,0,202,,
2673,101,307500,307471,1,1,-7.788434,6.054662,0.132098,0.008838,-0.013644,0.064892,-7.879711,6.644576,5.172924,-0.247701,-1.484026,0.402969,3.125143,103.626858,-55.087053,-0.557862,0.348382,-0.704453,0.26677,663.043823,94203.34375,-0.258381,0.014442,0,-287.892273,-287.668732,21.625,26.420998,0,5.32,0,202,,
2674,101,309628,309581,1,1,-7.790477,6.069137,0.127579,-0.015153,-0.013733,0.075326,-7.879711,6.644576,5.172924,0.574042,-0.459346,-0.142292,3.510064,103.932113,-55.430622,-0.556403,0.349441,-0.705728,0.265059,663.224548,94200.36719,0.096606,0.046161,0,-287.711548,-287.71402,21.625,26.420998,0,5.32,0,202,,
2675,101,311752,311745,1,1,-7.78576,6.063925,0.130166,0.000063,-0.007554,0.068455,-9.321287,3.280895,5.172924,0.344529,1.082885,0.200385,3.185441,103.918603,-55.136258,-0.556176,0.349167,-0.70581,0.265674,663.440979,94194.49219,0.020463,-0.010438,0,-287.495117,-287.607452,21.625,26.411938,0,5.32,0,202,,
2676,101,313888,313868,1,1,-7.778293,6.047329,0.128904,-0.002456,-0.00348,0.052356,-7.879711,4.722473,4.211873,-0.096069,-0.20039,-0.330935,3.108156,104.320095,-55.131965,-0.553529,0.350579,-0.707518,0.264799,663.100586,94201.5625,0.086429,-0.231044,0,-287.83551,-287.825775,21.625,26.398346,0,5.32,0,202,,
2677,101,316029,315989,1,1,-7.798115,6.07552,0.141152,0.006908,-0.014608,0.085466,-7.879711,5.683524,5.172924,0.0385,-0.097769,1.037388,3.112037,104.924826,-54.992937,-0.550199,0.351291,-0.71076,0.262098,663.170105,94198.54688,-0.260015,0.073874,0,-287.765991,-287.794464,21.625,26.402876,0,5.32,0,202,,
2678,101,318173,318153,1,1,-7.806434,6.067574,0.123227,-0.013506,-0.031673,0.086864,-7.879711,6.16405,6.133976,-0.002902,-0.677129,1.085695,3.16595,105.357505,-55.040564,-0.547626,0.352461,-0.712734,0.260551,663.067871,94201.60156,-0.269297,-0.186746,0,-287.868225,-287.784607,21.625,26.393816,0,5.32,0,202,,
2679,101,320322,320281,1,1,-7.780321,6.082574,0.133764,-0.01464,0.003026,0.075678,-7.399185,6.16405,5.172924,0.290489,-0.756109,-0.552571,3.16647,105.636676,-55.071344,-0.545858,0.353379,-0.713923,0.259763,663.229492,94198.71094,-0.174467,-0.007107,0,-287.706604,-287.755829,21.5,26.384756,0,5.32,0,202,,
2680,101,322478,322464,1,1,-7.798141,6.057748,0.147451,0.048049,-0.04351,0.074467,-7.399185,7.125102,5.172924,0.360716,0.702294,0.37442,2.431309,105.633199,-54.182508,-0.545635,0.35133,-0.714972,0.260125,663.097534,94197.79688,-0.485732,0.023993,0,-287.838562,-287.771515,21.5,26.375696,0,5.32,0,202,,
2681,101,324757,324743,1,1,-7.778472,6.0719,0.129887,0.008363,-0.003,0.067606,-7.399185,6.644576,5.172924,-0.679733,0.824241,0.985752,2.609696,105.841697,-54.504995,-0.544172,0.353024,-0.715348,0.259861,663.236572,94197.79688,0.296016,-0.054121,0,-287.699524,-287.754272,21.625,26.375696,0,5.32,0,202,,
2682,101,326830,326814,1,1,-7.785765,6.064449,0.136823,0.001126,-0.001324,0.068873,-8.360237,6.16405,6.133976,-0.017412,0.126406,-0.131055,2.887871,105.884707,-54.853037,-0.543978,0.353986,-0.715102,0.259635,663.068176,94201.76563,-0.712855,-0.050276,0,-287.86792,-287.742004,21.625,26.375696,0,5.32,0,202,,
2683,101,328912,328904,1,1,-7.755263,6.083727,0.139794,0.001733,0.020005,0.056737,-5.477081,4.241947,5.172924,-0.410438,0.221791,0.086995,2.766997,106.174717,-54.653596,-0.542278,0.354057,-0.716774,0.258482,663.010681,94203.86719,-0.565789,-0.03145,0,-287.925415,-287.7995,21.625,26.362106,0,5.32,0,202,,
2684,101,330994,330994,1,1,-7.772712,6.059096,0.126901,-0.011709,-0.007769,0.055145,-7.399185,7.125102,5.65345,-0.411111,-0.565192,0.410077,2.922525,106.213314,-54.844455,-0.542092,0.354614,-0.716711,0.258284,663.030945,94200.9375,-0.106504,-0.009123,0,-287.905151,-287.868408,21.625,26.357576,0,5.32,0,202,,
2685,101,333089,333045,1,1,-7.809095,6.066361,0.122672,0.01251,-0.025046,0.076792,-5.957607,7.125102,4.692398,0.612824,-0.0843,-0.156456,3.127574,106.383092,-55.129018,-0.540787,0.356888,-0.716567,0.258288,663.273987,94198,0.2274,0.153186,0,-287.662109,-287.714264,21.5,26.353046,0,5.32,0,202,,
2686,101,335187,335144,1,1,-7.785326,6.064319,0.135742,0.004909,0.024401,0.068401,-8.360237,6.16405,5.172924,-0.739092,0.746886,0.554125,2.573018,106.279014,-54.68148,-0.541427,0.354972,-0.716935,0.258563,663.18634,94199.03125,-0.063443,-0.005177,0,-287.749756,-287.735992,21.5,26.348515,0,5.32,0,202,,
2687,101,337293,337283,1,1,-7.778447,6.066164,0.129045,0.001452,-0.012929,0.064043,-7.399185,7.125102,5.65345,0.294444,-0.598184,0.599843,2.664971,106.640679,-54.529601,-0.539375,0.354947,-0.719057,0.256992,663.08844,94203.03906,-0.103951,0.114994,0,-287.847656,-287.787994,21.5,26.343985,0,5.32,0,202,,
2688,101,339397,339385,1,1,-7.783363,6.073063,0.114454,-0.003893,-0.01807,0.071973,-9.321287,6.16405,3.731347,-0.511264,-0.382627,0.737462,2.496985,106.666224,-54.334647,-0.539135,0.354578,-0.7194,0.257045,662.873352,94204.07031,-0.840777,-0.120693,0,-288.062744,-287.904602,21.5,26.339455,0,5.32,0,202,,
2689,101,341592,341555,1,1,-7.794867,6.064423,0.115342,-0.020726,0.004585,0.075742,-7.399185,4.241947,4.692398,0.127755,-0.142386,0.09757,2.703046,106.703818,-54.766157,-0.538573,0.356412,-0.718695,0.257656,663.151978,94200.1875,0.029378,-0.010921,0,-287.784119,-287.777008,21.5,26.330395,0,5.32,0,202,,
2690,101,343700,343659,1,1,-7.782609,6.084857,0.119157,-0.037635,-0.005298,0.078637,-9.801813,3.761421,5.172924,-0.731397,-1.175624,0.957201,3.154557,106.753808,-55.03413,-0.539069,0.356098,-0.719101,0.255917,663.263306,94195.26563,0.300668,-0.114367,0,-287.672791,-287.902649,21.5,26.325865,0,5.32,0,202,,
2691,101,345814,345769,1,1,-7.81237,6.077468,0.124315,-0.0'b'45469,0.026805,0.097556,-7.399185,11.93036,5.172924,-0.378545,-0.404183,0.166007,3.177335,106.955749,-55.384197,-0.537117,0.358708,-0.718972,0.256736,663.055115,94200.26563,-0.048838,-0.006049,0,-287.880981,-287.880371,21.5,26.321335,0,5.32,0,202,,
2692,101,347934,347916,1,1,-7.74676,6.045639,0.140559,0.005376,-0.005186,0.026601,-8.360237,4.722473,7.095027,-0.661753,0.349551,0.734433,2.683547,107.318166,-54.555081,-0.535191,0.35673,-0.722094,0.254745,662.947388,94201.41406,-0.514119,-0.118795,0,-287.988708,-287.936646,21.625,26.303213,0,5.32,0,202,,
2693,101,350062,350031,1,1,-7.801023,6.06246,0.107979,-0.017609,-0.026126,0.079286,-10.762865,6.16405,5.172924,-0.68072,0.180395,0.840699,2.536491,107.663678,-54.451542,-0.53282,0.357627,-0.72365,0.254041,663.185425,94196.375,-0.037644,0.08324,0,-287.750671,-287.744934,21.625,26.312275,0,5.32,0,202,,
2694,101,352200,352200,1,1,-7.794456,6.060245,0.120515,-0.000956,-0.011962,0.072929,-7.879711,7.605628,4.211873,-0.247988,-0.012263,0.707697,2.318582,108.26093,-54.272427,-0.528608,0.359239,-0.726291,0.253026,662.939331,94204.35156,-0.678001,-0.219454,0,-287.996765,-287.814606,21.5,26.307745,0,5.32,0,202,,
2695,101,354336,354321,1,1,-7.798491,6.042438,0.139513,0.002041,-0.006399,0.065455,-9.321287,10.008257,4.211873,-1.020535,0.38071,0.70444,2.535905,108.653194,-54.594569,-0.526339,0.360993,-0.727631,0.251404,663.039551,94201.45313,0.15985,-0.16129,0,-287.896545,-287.892059,21.5,26.298683,0,5.32,0,202,,
2696,101,356480,356445,1,1,-7.795578,6.078034,0.136824,0.039978,-0.002508,0.084881,-7.399185,7.605628,4.211873,0.319065,1.389696,-0.243955,1.808124,108.649643,-53.682667,-0.526079,0.358531,-0.72888,0.251853,663.17157,94201.5,0.381336,0.074416,0,-287.764526,-287.828369,21.5,26.294153,0,5.32,0,202,,
2697,101,358709,358666,1,1,-7.773176,6.080339,0.135591,0.012102,0.008198,0.068699,-7.399185,6.16405,5.65345,0.401259,0.046458,0.129587,2.206316,108.649697,-54.079963,-0.526727,0.359434,-0.728405,0.250583,662.993896,94201.57813,-0.189376,-0.028247,0,-287.9422,-287.938019,21.5,26.285093,0,5.32,0,202,,
2698,101,360848,360836,1,1,-7.778814,6.072593,0.134466,-0.006518,0.006477,0.068363,-7.879711,6.16405,5.172924,0.021428,0.647709,0.596659,2.489141,108.857957,-54.425833,-0.525281,0.36064,-0.72897,0.250242,662.988037,94199.67188,-0.319792,-0.131751,0,-287.948059,-287.979858,21.5,26.276033,0,5.32,0,202,,
2699,101,363002,362969,1,1,-7.789913,6.075164,0.131117,-0.013875,0.002061,0.078644,-8.360237,7.125102,5.65345,0.195815,-0.333215,0.192428,2.586535,108.787449,-54.536301,-0.525787,0.360722,-0.728522,0.250365,663.029419,94203.60156,0.378435,0.015098,0,-287.906677,-287.876801,21.5,26.280563,0,5.32,0,202,,
2700,101,365208,365199,1,1,-7.802495,6.055292,0.123251,-0.013262,-0.014634,0.076261,-6.918659,8.566679,5.65345,-0.641853,-0.471597,0.906729,2.492249,109.103625,-54.486079,-0.52362,0.361613,-0.729877,0.249675,663.013794,94201.73438,0.086199,-0.073705,0,-287.922302,-287.907135,21.5,26.266972,0,5.32,0,202,,
2701,101,367386,367372,1,1,-7.794142,6.064631,0.126262,0.002036,-0.007798,0.07545,-8.360237,7.605628,4.211873,-0.278674,0.177248,-0.383012,2.208621,109.48199,-54.149166,-0.52108,0.361678,-0.731998,0.248685,663.082275,94198.64063,0.45529,-0.100267,0,-287.853821,-287.905121,21.5,26.280563,0,5.32,0,202,,
2702,101,369467,369456,1,1,-7.780334,6.086597,0.119749,-0.007683,0.017782,0.077979,-6.918659,4.241947,5.172924,-0.722726,-0.588227,-0.161477,2.068646,109.826546,-54.021995,-0.518739,0.362328,-0.733618,0.247857,662.842957,94204.71094,-0.006589,0.076698,0,-288.09314,-287.997314,21.5,26.266972,0,5.32,0,202,,
2703,101,371558,371549,1,1,-7.791715,6.054111,0.121764,-0.007235,-0.013483,0.067013,-7.879711,5.202998,5.172924,-0.174764,0.432787,-0.14338,2.225699,110.343707,-54.1812,-0.515623,0.363877,-0.735723,0.245843,662.839783,94205.74219,0.322352,-0.083974,0,-288.096313,-288.005737,21.5,26.262442,0,5.32,0,202,,
2704,101,373653,373646,1,1,-7.782569,6.05933,0.12331,-0.008497,-0.00515,0.063024,-8.360237,7.605628,5.65345,-0.511434,-0.82097,0.903514,2.21183,110.459609,-54.158134,-0.514894,0.364068,-0.736273,0.245441,663.061279,94196.9375,0.403614,-0.103736,0,-287.874817,-288.07373,21.5,26.248852,0,5.32,0,202,,
2705,101,375839,375803,1,1,-7.786025,6.069867,0.121922,-0.013413,-0.013202,0.072195,-7.879711,6.644576,5.172924,-0.71821,0.428065,-0.965454,2.303072,110.524817,-54.173092,-0.514738,0.36391,-0.736705,0.244703,662.885254,94203.88281,0.205299,-0.1381,0,-288.050842,-288.055603,21.375,26.248852,0,5.32,0,202,,
2706,101,377939,377939,1,1,-7.793456,6.057171,0.120776,-0.002195,-0.012478,0.070257,-7.399185,6.644576,5.172924,-0.176,-0.807142,0.373363,2.078931,110.816855,-54.025345,-0.512487,0.364659,-0.737969,0.244505,662.932983,94200.94531,-0.341913,-0.017242,0,-288.003113,-287.986633,21.5,26.244322,0,5.32,0,202,,
2707,101,380040,380039,1,1,-7.797888,6.063306,0.135132,0.009045,-0.010374,0.077705,-8.360237,7.605628,5.172924,0.167801,-0.176689,0.330764,2.131105,110.784022,-54.050552,-0.512808,0.36451,-0.737857,0.244392,662.878357,94202.01563,0.009175,-0.036083,0,-288.057739,-288.10968,21.5,26.23526,0,5.32,0,202,,
2708,101,382144,382143,1,1,-7.775502,6.073699,0.127702,-0.009611,0.007893,0.06634,-8.360237,6.16405,4.692398,0.367606,-1.149406,0.64773,2.204049,110.663442,-54.130397,-0.513636,0.364411,-0.737233,0.244684,662.976013,94202.05469,-0.415243,0.216622,0,-287.960083,-287.957825,21.5,26.23073,0,5.32,0,202,,
2709,101,384255,384249,1,1,-7.782071,6.058148,0.130339,-0.007717,-0.009298,0.061993,-7.879711,6.16405,4.692398,-0.064549,0.033195,0.118087,2.319191,110.662978,-54.235544,-0.51378,0.36457,-0.737143,0.244416,662.945923,94201.10156,0.244611,-0.007011,0,-287.990173,-288.050873,21.5,26.2262,0,5.32,0,202,,
2710,101,386371,386362,1,1,-7.805342,6.070803,0.137342,-0.001175,0.006695,0.088228,-7.879711,6.644576,5.172924,-0.474211,-0.259197,0.831252,2.212068,110.881578,-54.230684,-0.512062,0.36554,-0.73788,0.244349,662.974304,94202.13281,0.070913,0.011385,0,-287.961792,-288.00177,21.375,26.22167,0,5.32,0,202,,
2711,101,388493,388466,1,1,-7.788461,6.07167,0.128091,-0.013562,-0.001534,0.075311,-8.360237,6.644576,5.172924,-0.199337,-0.439789,0.283535,2.253473,111.334255,-54.180517,-0.509421,0.366106,-0.740088,0.242336,662.847717,94202.17969,-0.414335,-0.10624,0,-288.088379,-288.050781,21.375,26.21714,0,5.32,0,202,,
2712,101,390629,390625,1,1,-7.784861,6.07021,0.141864,0.005409,0.004539,0.07177,-8.840761,6.16405,4.692398,-1.112928,1.091137,0.0736,2.111843,111.808195,-54.028466,-0.506399,0.366944,-0.742276,0.240705,662.90741,94203.21094,-0.467408,0.002895,0,-288.028687,-288.004608,21.375,26.21261,0,5.32,0,202,,
2713,101,392837,392803,1,1,-7.817545,6.068769,0.135799,0.007564,-0.030709,0.096546,-8.360237,7.125102,4.211873,-0.616456,0.079563,-0.437586,2.130345,112.45496,-53.96569,-0.502309,0.367884,-0.745324,0.23841,662.948364,94202.33594,0.431432,-0.01899,0,-287.987732,-288.035553,21.5,26.199018,0,5.32,0,202,,
2714,101,394966,394920,1,1,-7.783624,6.052529,0.127921,-0.012161,-0.024809,0.059706,-9.321287,7.125102,7.095027,-0.71219,-0.019003,-0.028986,2.234924,112.753077,-54.08695,-0.500478,0.368908,-0.746418,0.237252,663.038025,94200.3125,0.431681,0.174475,0,-287.898071,-288.035034,21.5,26.203548,0,5.32,0,202,,
2715,101,397095,397087,1,1,-7.806878,6.075507,0.119054,0.001286,-0.022418,0.092068,-8.360237,4.722473,6.614501,0.493827,-1.061106,1.04346,1.87226,113.069021,-53.709305,-0.498056,0.368752,-0.748223,0.236906,663.048523,94198.36719,-0.213615,-0.125212,0,-287.887573,-287.986816,21.375,26.199018,0,5.32,0,202,,
2716,101,399237,399200,1,1,-7.806025,6.08503,0.106346,0.002751,-0.027069,0.097089,-7.399185,6.16405,5.172924,-0.391287,0.518546,0.132472,1.679805,113.241272,-53.455806,-0.496847,0.368322,-0.749371,0.236486,662.869141,94204.35938,-0.001748,0.015806,0,-288.066956,-288.009247,21.375,26.194489,0,5.32,0,202,,
2717,101,401380,401373,1,1,-7.797006,6.070781,0.116649,-0.00469,-0.006943,0.081369,-7.399185,10.488783,5.172924,-0.327391,-0.14847,0.676397,1.792498,113.593757,-53.712256,-0.494399,0.370308,-0.750266,0.235676,662.8974,94203.40625,0.42067,-0.064606,0,-288.038696,-288.107666,21.375,26.189959,0,5.32,0,202,,
2718,101,403535,403505,1,1,-7.801744,6.068362,0.143982,-0.026194,0.012209,0.083944,-8.360237,9.047205,4.211873,0.116254,0.248111,-0.112638,2.337245,113.851126,-54.387396,-0.493116,0.372969,-0.750271,0.234145,662.842712,94204.51563,0.032137,0.087411,0,-288.093384,-288.064026,21.375,26.176367,0,5.32,0,202,,
2719,101,405691,405684,1,1,-7.778477,6.041771,0.10863,0.03395,0.014676,0.048779,-7.879711,6.16405,4.692398,0.988185,-0.085304,0.126697,1.039721,113.631754,-53.114075,-0.492957,0.369718,-0.750802,0.237903,662.784546,94206.38281,-0.276438,-0.036229,0,-288.15155,-287.994171,21.375,26.189959,0,5.32,0,202,,
2720,101,407773,407772,1,1,-7.811059,6.073012,0.133231,0.014025,-0.045923,0.093926,-6.438133,9.047205,4.692398,-0.452973,-0.571807,1.289876,1.977195,114.049727,-53.665052,-0.492134,0.370233,-0.752709,0.232725,662.892822,94201.53906,0.302534,-0.018623,0,-288.043274,-288.121521,21.375,26.176367,0,5.32,0,202,,
2721,101,409931,409907,1,1,-7.742266,6.053302,0.143166,0.005306,0.020514,0.027795,-8.360237,8.086153,5.65345,-0.575806,-1.226547,0.326873,1.836084,114.35656,-53.748845,-0.489512,0.372079,-0.753431,0.232974,662.875793,94202.53125,0.468005,-0.000766,0,-288.060303,-288.170227,21.375,26.176367,0,5.32,0,202,,
2722,101,412012,411989,1,1,-7.790012,6.061096,0.12331,0.003343,-0.010636,0.06998,-10.762865,6.16405,5.172924,-0.081496,1.228004,0.461645,1.707456,115.106132,-53.597027,-0.484511,0.373293,-0.756774,0.230641,663.028259,94198.72656,-0.223604,0.126263,0,-287.907837,-287.972321,21.375,26.158245,0,5.32,0,202,,
2723,101,414098,414080,1,1,-7.785989,6.059003,0.130369,-0.000681,-0.003123,0.065617,-8.840761,6.644576,5.172924,-1.239115,-0.978334,-0.120658,1.792308,115.39091,-53.714769,-0.482687,0.374342,-0.757733,0.229612,662.670593,94206.61719,0.142669,-0.153765,0,-288.265503,-288.165375,21.375,26.162777,0,5.32,0,202,,
2724,101,416194,416178,1,1,-7.785496,6.071082,0.121314,-0.016807,-0.009746,0.072516,-7.399185,6.644576,5.65345,-0.081634,0.024753,0.332281,1.877628,115.777471,-53.735475,-0.480392,0.374974,-0.759418,0.227819,662.735229,94206.61719,-0.099782,0.043474,0,-288.200867,-288.112061,21.375,26.162777,0,5.32,0,202,,
2725,101,418395,418366,1,1,-7.794194,6.062783,0.131875,-0.000205,-0.014393,0.074423,-8.360237,7.605628,5.65345,0.099433,-0.046066,0.15403,1.819681,116.19149,-53.680656,-0.477592,0.375761,-0.761169,0.226563,662.744263,94205.58594,0.172139,0.030036,0,-288.191833,-288.170288,21.375,26.167307,0,5.32,0,202,,
2726,101,420499,420458,1,1,-7.801501,6.059666,0.123003,-0.002415,-0.000401,0.078174,-7.399185,6.16405,4.692398,-0.123985,-0.778113,1.159458,1.621153,116.645288,-53.615677,-0.474079,0.37714,-0.762829,0.226067,662.715332,94202.77344,0.262746,-0.09014,0,-288.220764,-288.278717,21.375,26.149185,0,5.32,0,202,,
2727,101,422609,422565,1,1,-7.792393,6.056069,0.135026,-0.003378,-0.011943,0.075115,-7.879711,6.16405,5.172924,-0.120075,0.296731,-0.456589,1.671226,116.891065,-53.528384,-0.472552,0.377021,-0.764142,0.225024,662.857117,94198.80469,0.283861,0.039624,0,-288.078979,-288.229248,21.25,26.149185,0,5.32,0,202,,
2728,101,424725,424721,1,1,-7.798617,6.067569,0.128203,-0.005001,-0.035031,0.080752,-6.438133,6.16405,4.692398,-0.906407,-0.245228,1.375315,1.87718,117.35351,-53.616254,-0.47024,0.377617,-0.766173,0.221941,662.815186,94200.86719,0.193023,0.021111,0,-288.120911,-288.202057,21.375,26.140125,0,5.32,0,202,,
2729,101,426925,426889,1,1,-7.780468,6.063147,0.142966,0.004872,0.012397,0.063973,-8.360237,6.16405,5.172924,-0.018861,0.065369,-0.145412,1.643079,118.011462,-53.572476,-0.465187,0.379686,-0.768483,0.221074,662.612122,94208.79688,0.16194,0.0951,0,-288.323975,-288.215118,21.375,26.140125,0,5.32,0,202,,
2730,101,429043,429038,1,1,-7.788166,6.060748,0.13203,0.007663,-0.00413,0.068425,-8.360237,7.125102,5.172924,-0.128143,0.207438,0.607193,1.560544,118.25418,-53.442467,-0.463548,0.379661,-0.769715,0.22027,662.687256,94201.85938,-0.027684,0.133056,0,-288.24884,-288.290131,21.375,26.140125,0,5.32,0,202,,
2731,101,431161,431150,1,1,-7.792023,6.044604,0.156876,0.033468,0.005919,0.061875,-9.321287,6.16405,5.65345,-0.622082,-0.872251,-0.248487,1.524319,118.357015,-53.477157,-0.462676,0.380256,-0.769937,0.220301,662.761597,94205.89844,0.159843,0.133707,0,-288.1745,-288.184845,21.375,26.131063,0,5.32,0,202,,
2732,101,433291,433268,1,1,-7.795951,6.049255,0.125404,-0.001891,0.001976,0.067437,-7.879711,9.047205,4.692398,-0.822493,0.133985,0.337675,1.544409,118.309231,-53.565465,-0.462891,0.380668,-0.769494,0.220687,662.804688,94201.02344,0.495332,-0.00157,0,-288.131409,-288.260101,21.375,26.122004,0,5.32,0,202,,
2733,101,435423,435383,1,1,-7.780735,6.054446,0.138886,-0.01634,-0.006271,0.058773,-8.360237,7.125102,4.692398,-0.793114,-0.560693,-0.866076,1.895243,118.627613,-53.789516,-0.461509,0.381432,-0.770672,0.218136,662.679565,94203.96094,0.181629,-0.021103,0,-288.256531,-288.351898,21.375,26.126534,0,5.32,0,202,,
2734,101,437561,437550,1,1,-7.786997,6.06567,0.136373,-0.000355,0.010279,0.070584,-8.360237,6.644576,5.65345,0.42677,-0.369875,0.131504,1.591518,118.719944,-53.532373,-0.460373,0.381119,-0.771311,0.218827,662.479309,94207.96094,-0.152474,-0.037286,0,-288.456787,-288.401245,21.375,26.122004,0,5.32,0,202,,
2735,101,439707,439668,1,1,-7.786017,6.063066,0.114241,-0.023729,0.004651,0.067905,-7.879711,6.16405,5.172924,-0.993255,0.48108,0.09554,1.618087,118.47933,-53.603451,-0.461773,0.380053,-0.770638,0.220098,662.685181,94207.04688,-0.310852,0.068589,0,-288.250916,-288.22876,21.25,26.112942,0,5.32,0,202,,
2736,101,441855,441842,1,1,-7.779652,6.057552,0.126939,-0.000827,0.008319,0.059678,-8.840761,6.16405,5.172924,-0.327175,0.311796,0.313199,1.50944,118.441067,-53.466362,-0.462087,0.38042,-0.770276,0.22007,662.63501,94205.07031,-0.206405,-0.136729,0,-288.301086,-288.318634,21.25,26.112942,0,5.32,0,202,,
2737,101,444083,444073,1,1,-7.792255,6.067907,0.129063,0.007844,0.00298,0.07601,-7.399185,7.125102,5.65345,0.667999,-0.548016,0.323201,1.459003,118.695546,-53.364948,-0.460415,0.380473,-0.771518,0.21913,662.746338,94201.17969,0.199956,-0.026257,0,-288.189758,-288.347168,21.375,26.103882,0,5.32,0,202,,
2738,101,446234,446205,1,1,-7.798636,6.056128,0.128356,-0.01039,-0.016922,0.07379,-7.399185,6.644576,5.172924,-0.956211,-0.893695,0.199949,1.748002,118.91205,-53.64185,-0.459403,0.381631,-0.771996,0.217551,662.639648,94206.21875,0.003657,0.009895,0,-288.296448,-288.2659,21.25,26.09482,0,5.32,0,202,,
2739,101,448436,448433,1,1,-7.806347,6.058396,0.148623,0.043695,-0.020043,0.081459,-8.840761,7.125102,4.211873,0.336311,1.867047,0.498141,1.428681,119.216007,-53.207382,-0.457131,0.38061,-0.774023,0.216923,662.631592,94206.17969,-0.31021,0.148282,0,-288.304504,-288.262238,21.375,26.099352,0,5.32,0,202,,
2740,101,450513,450513,1,1,-7.803375,6.067989,0.121604,-0.001278,-0.003746,0.084743,-9.321287,6.16405,5.65345,0.122362,-0.304628,-0.295938,1.461474,119.606994,-53.386476,-0.454278,0.382495,-0.77501,0.216073,662.712402,94203.35938,0.311767,-0.010784,0,-288.223694,-288.337952,21.25,26.08123,0,5.32,0,202,,
2741,101,452598,452556,1,1,-7.794443,6.069092,0.135919,0.002374,-0.006321,0.078557,-8.840761,5.202998,6.614501,-0.856634,0.132752,-0.135457,1.591854,119.949638,-53.434855,-0.452234,0.383226,-0.776315,0.214376,662.528748,94205.30469,-0.273188,-0.129948,0,-288.407349,-288.373657,21.25,26.08576,0,5.32,0,202,,
2742,101,454691,454650,1,1,-7.756091,6.027036,0.148164,0.014145,-0.031167,0.022588,-6.918659,6.644576,3.731347,-0.360067,-0.913138,0.380363,1.767318,120.001984,-53.482178,-0.452059,0.383897,-0.776235,0.213834,662.724121,94202.32813,0.367065,0.180174,0,-288.211975,-288.324738,21.25,26.08576,0,5.32,0,202,,
2743,101,456786,456748,1,1,-7.79132,6.033498,0.091645,-0.036518,-0.061401,0.053495,-7.879711,7.605628,3.731347,-0.483957,-1.135343,1.213708,1.781087,120.202382,-53.583889,-0.449545,0.383764,-0.777282,0.215562,662.44043,94210.25781,-0.027873,0.001244,0,-288.495667,-288.453064,21.25,26.08576,0,5.32,0,202,,
2744,101,458889,458845,1,1,-7.821751,6.070413,0.117775,0.005632,-0.00685,0.100691,-9.801813,8.086153,7.575553,0.02788,0.079279,0.087869,1.328033,120.477147,-53.279089,-0.448112,0.384406,-0.778309,0.213689,662.607056,94204.39063,0.212334,0.101803,0,-288.329041,-288.403564,21.25,26.0767,0,5.32,0,202,,
2745,101,461065,461033,1,1,-7.772911,6.050301,0.12691,0.001141,-0.032749,0.049853,-9.801813,8.566679,4.692398,-0.39352,-0.108565,0.084785,1.62797,120.635675,-53.336961,-0.448004,0.383609,-0.779442,0.211202,662.360107,94210.25781,-0.41748,-0.010172,0,-288.575989,-288.437622,21.375,26.08576,0,5.32,0,202,,
2746,101,463168,463133,1,1,-7.773,6.034018,0.147156,-0.015363,-0.021359,0.040233,-8.360237,6.16405,6.614501,-0.710023,-0.646467,0.400821,1.950582,120.751215,-53.79387,-0.447468,0.385692,-0.778941,0.210392,662.485718,94205.38281,-0.224347,-0.055143,0,-288.450378,-288.471497,21.25,26.0767,0,5.32,0,202,,
2747,101,465279,465238,1,1,-7.811677,6.079869,0.118344,-0.026638,-0.014535,0.098505,-7.399185,6.644576,5.172924,0.058547,-0.642354,0.410958,1.685764,120.696683,-53.562186,-0.447371,0.385039,-0.779025,0.211478,662.547974,94204.46875,0.362744,0.019138,0,-288.388123,-288.465546,21.25,26.067638,0,5.32,0,202,,
2748,101,467393,467349,1,1,-7.783195,6.079878,0.130446,-0.004257,-0.025847,0.074469,-11.243391,10.008257,5.65345,-0.611521,-0.300973,0.495783,1.6585,120.962432,-53.443399,-0.445705,0.384879,-0.780384,0.210278,662.532898,94204.46875,-0.078877,-0.026004,0,-288.403198,-288.50177,21.25,26.067638,0,5.32,0,202,,
2749,101,469508,469491,1,1,-7.791925,6.078074,0.143187,0.003027,-0.000317,0.082197,-7.879711,8.566679,5.172924,0.112606,-0.460045,0.392022,1.559354,121.562286,-53.362086,-0.441461,0.385919,-0.78274,0.208558,662.355347,94209.26563,-0.449036,0.093563,0,-288.58075,-288.480469,21.25,26.08576,0,5.32,0,202,,
2750,101,471633,471602,1,1,-7.789659,6.074604,0.134074,0.005454,0.000446,0.078147,-7.879711,7.125102,5.65345,-0.22665,0.106645,0.236614,1.427528,121.664999,-53.25254,-0.44052,0.385883,-0.783255,0.208681,662.348083,94208.46875,0.548657,-0.138117,0,-288.588013,-288.676514,21.25,26.063108,0,5.32,0,202,,
2751,101,473767,473721,1,1,-7.78462,6.068734,0.131086,-0.021423,-0.008088,0.080337,-7.879711,6.644576,5.172924,0.645963,-0.988154,0.42449,1.543181,122.020428,-53.462923,-0.438115,0.387586,-0.784086,0.207462,662.160461,94214.46094,-0.471697,0.174913,0,-288.775635,-288.598053,21.25,26.058578,0,5.32,0,202,,
2752,101,475898,475890,1,1,-7.784814,6.070554,0.140313,0.008851,0.012304,0.071913,-8.360237,7.125102,5.172924,0.038307,0.949408,0.055136,1.385707,121.93613,-53.262563,-0.438519,0.38665,-0.784163,0.208066,662.452759,94206.53125,-0.289153,0.280752,0,-288.483337,-288.479584,21.25,26.058578,0,5.32,0,202,,
2753,101,478124,478122,1,1,-7.791875,6.054947,0.141719,0.021885,0.003545,0.067905,-5.957607,5.683524,5.65345,-0.214697,1.192489,0.212149,1.33174,121.918836,-53.230499,-0.438513,0.386603,-0.784108,0.208372,662.260925,94208.58594,-0.515139,-0.070047,0,-288.675171,-288.62912,21.25,26.049517,0,5.32,0,202,,
2754,101,480258,480234,1,1,-7.790098,6.062503,0.129691,0.008468,-0.01264,0.070989,-7.879711,8.086153,5.172924,-0.588471,0.834705,0.272355,1.406934,122.228858,-53.210759,-0.436693,0.386793,-0.785469,0.206708,662.498657,94201.64844,0.230289,-0.090613,0,-288.437439,-288.654541,21.25,26.049517,0,5.32,0,202,,
2755,101,482400,482359,1,1,-7.76598,6.068792,0.132396,-0.012455,0.013572,0.055869,-5.957607,5.202998,4.692398,-0.679832,-0.298924,0.328448,1.46827,122.476917,-53.338002,-0.434982,0.387921,-0.786072,0.205909,662.319946,94207.67969,-0.067168,-0.005184,0,-288.61615,-288.608124,21.125,26.040457,0,5.32,0,202,,
2756,101,484547,484538,1,1,-7.788692,6.063614,0.128744,-0.003889,0.000984,0.07056,-7.399185,7.125102,5.65345,1.052212,-0.682966,0.64154,1.42659,122.349274,-53.320859,-0.435741,0.38771,-0.785581,0.206574,662.243469,94209.57813,-0.225419,0.127945,0,-288.692627,-288.711243,21.25,26.049517,0,5.32,0,202,,
2757,101,486699,486666,1,1,-7.78693,6.067135,0.129048,-0.006442,-0.008616,0.071332,-8.840761,6.644576,5.65345,-0.514039,0.016565,1.118118,1.500116,122.565696,-53.318612,-0.43452,0.387842,-0.786524,0.205308,662.032715,94216.55469,-0.262167,-0.018449,0,-288.903381,-288.731842,21.125,26.044987,0,5.32,0,202,,
2758,101,488905,488895,1,1,-7.788359,6.052888,0.138059,0.002856,-0.003534,0.063838,-7.879711,6.644576,4.692398,-1.331517,-0.160082,0.967945,1.475873,122.782322,-53.361334,-0.432885,0.388654,-0.787136,0.204881,662.059937,94210.6875,0.192366,-0.053177,0,-288.87616,-288.932068,21.25,26.035925,0,5.32,0,202,,
2759,101,490985,490974,1,1,-7.793863,6.05658,0.131414,-0.003879,0.023944,0.070329,-6.918659,8.086153,5.172924,0.17818,-0.030361,-0.399769,1.298209,122.951847,-53.367669,-0.431113,0.389699,-0.787421,0.205535,662.120056,94214.57813,0.167089,0.028875,0,-288.81604,-288.823792,21.25,26.044987,0,5.32,0,202,,
2760,101,493073,493065,1,1,-7.815085,6.075211,0.116133,-0.010315,0.000242,0.09835,-8.360237,7.125102,4.692398,-0.188121,-0.457646,-0.546839,1.322,123.076225,-53.281162,-0.430499,0.389257,-0.788216,0.204613,661.854309,94216.51563,-0.594215,-0.220731,0,-289.081787,-288.918365,21.25,26.049517,0,5.32,0,202,,
2761,101,495237,495216,1,1,-7.814178,6.043191,0.113145,-0.020734,-0.020345,0.077942,-8.360237,7.125102,5.65345,-0.221322,-0.176866,-0.103587,1.501897,123.159663,-53.507343,-0.430137,0.390299,-0.788073,0.203933,661.992554,94214.57813,0.234866,-0.154443,0,-288.943542,-288.918182,21.25,26.044987,0,5.32,0,202,,
2762,101,497326,497307,1,1,-7.789461,6.0444,0.125203,-0.003579,-0.019613,0.059312,-7.879711,6.16405,5.172924,0.081975,-0.852979,0.667158,1.4734,123.230901,-53.338139,-0.429854,0.389381,-0.788859,0.203245,662.015137,94211.71875,-0.077513,-0.09436,0,-288.920959,-288.930328,21.25,26.031395,0,5.32,0,202,,
2763,101,499420,499404,1,1,-7.785482,6.055403,0.140191,0.007528,-0.000796,0.063139,-9.801813,8.566679,3.731347,-0.008471,0.126022,-0.142523,1.420683,123.318738,-53.284245,-0.42917,0.389379,-0.78927,0.203099,661.927124,94214.69531,0.204614,-0.079347,0,-289.008972,-289.011536,21.25,26.031395,0,5.32,0,202,,
2764,101,501520,501496,1,1,-7.784513,6.062005,0.116574,-0.039812,-0.003598,0.066043,-6.918659,5.202998,5.172924,0.105838,-1.12812,-0.008392,1.600052,123.429032,-53.536519,-0.42858,0.39066,-0.789132,0.202422,662.020264,94214.69531,0.260907,-0.041943,0,-288.915833,-288.9198,21.25,26.031395,0,5.32,0,202,,
2765,101,503630,503598,1,1,-7.78388,6.059397,0.121541,-0.002364,-0.018704,0.064064,-7.879711,5.683524,6.133976,0.338262,-0.788335,0.479221,1.413557,123.352547,-53.198475,-0.429066,0.38888,-0.789673,0.202709,661.886658,94215.71875,-1.152422,-0.036359,0,-289.049438,-288.80896,21.25,26.026865,0,5.32,0,202,,
2766,101,505742,505701,1,1,-7.781239,6.052584,0.144757,0.018747,0.017562,0.058094,-6.918659,4.722473,5.65345,0.067023,0.252612,-0.100825,1.260628,123.412311,-53.200234,-0.428135,0.38958,-0.789614,0.203562,662.032043,94212.82813,0.025683,0.100185,0,-288.904053,-288.895782,21.25,26.017803,0,5.32,0,202,,
2767,101,507854,507850,1,1,-7.804743,6.061009,0.128346,-0.003182,-0.005661,0.081625,-6.918659,4.722473,5.172924,-0.753907,-0.274356,0.017911,1.391809,123.976253,-53.305136,-0.424529,0.390901,-0.791542,0.201078,661.949402,94217.625,0.139831,-0.020004,0,-288.986694,-288.916992,21.25,26.035925,0,5.32,0,202,,
2768,101,509971,509960,1,1,-7.789751,6.056157,0.128754,-0.0117,0.013201,0.066802,-6.438133,8.566679,6.133976,-0.465685,-0.607037,-0.754205,1.352536,124.225309,-53.356625,-0.422595,0.39188,-0.792197,0.200668,662.022278,94211.79688,0.135838,-0.053179,0,-288.913818,-288.978302,21.25,26.022333,0,5.32,0,202,,
2769,101,512173,512165,1,1,-7.861487,6.099708,0.079792,-0.043262,-0.067653,0.149343,-6.918659,9.527731,0.848191,-0.979356,-1.311546,-0.286486,1.566967,124.3912,-53.304541,-0.422278,0.391047,-0.793345,0.19841,661.847046,94215.83594,-0.578084,-0.059337,0,-289.08905,-288.92804,21.25,26.013273,0,5.32,0,202,,
2770,101,514295,514282,1,1,-7.796046,6.081706,0.105668,0.007431,-0.005771,0.087203,-8.840761,6.644576,4.692398,1.12553,0.000157,-0.026693,1.052453,124.47528,-52.857861,-0.420722,0.390005,-0.794276,0.200038,661.853027,94215.83594,-0.019974,-0.048344,0,-289.083069,-289.011444,21.25,26.013273,0,5.32,0,202,,
2771,101,516422,516394,1,1,-7.788293,6.056797,0.14252,0.008552,0.000447,0.066246,-8.360237,5.683524,5.65345,-0.075189,0.685673,0.14334,1.381641,124.638166,-53.239262,-0.420059,0.391748,-0.794133,0.198587,662.089905,94210.96094,0.708958,0.072133,0,-288.846191,-288.971069,21.25,26.004211,0,5.32,0,202,,
2772,101,518555,518554,1,1,-7.791851,6.053734,0.140508,0.020111,0.004815,0.067128,-10.762865,6.16405,5.172924,0.309915,1.441747,0.290341,1.227858,124.994606,-53.117104,-0.417554,0.392773,-0.795242,0.197402,661.868286,94216.86719,-0.070219,-0.077484,0,-289.06781,-289.02243,21.25,26.008743,0,5.32,0,202,,
2773,101,520691,520671,1,1,-7.799413,6.069799,0.136595,-0.00035,0.003275,0.082924,-9.321287,9.047205,5.172924,-0.218921,-0.039953,-0.464821,1.362034,125.073017,-53.240081,-0.416993,0.392648,-0.795648,0.1972,662.113281,94209.89063,1.246695,0.15386,0,-288.822815,-288.993103,21.25,26.013273,0,5.32,0,202,,
2774,101,522837,522795,1,1,-7.791595,6.052269,0.121653,0.000512,-0.008301,0.065795,-8.840761,7.125102,4.692398,-0.396316,-0.792698,1.522113,1.258687,125.566061,-53.144035,-0.413396,0.393278,-0.797548,0.19584,661.954895,94210.96094,0.207996,0.051996,0,-288.981201,-289.033051,21.25,26.004211,0,5.32,0,202,,
2775,101,524982,524971,1,1,-7.79465,6.067687,0.12504,-0.004905,0.017144,0.0777,-8.360237,6.644576,5.172924,0.06063,0.640521,-0.585338,1.190276,125.473512,-53.16818,-0.41376,0.393521,-0.797021,0.196727,661.911499,94210.92188,-0.449523,0.010861,0,-289.024597,-289.012939,21.25,26.008743,0,5.32,0,202,,
2776,101,527139,527104,1,1,-7.794473,6.057283,0.129749,0.004649,0.010114,0.071244,-8.360237,7.125102,5.172924,0.100566,1.041482,-0.318848,1.185762,125.987238,-53.139463,-0.410235,0.394289,-0.798922,0.194852,661.885132,94214.96094,0.412921,-0.023336,0,-289.050964,-289.11438,21.25,25.999681,0,5.32,0,202,,
2777,101,529426,529389,1,1,-7.791484,6.055492,0.137284,0.009853,-0.015509,0.067876,-8.360237,7.605628,5.172924,-0.360257,0.09739,0.248531,1.372223,125.838422,-53.151873,-0.411887,0.393431,-0.798673,0.19412,661.823792,94214.96094,-0.039817,-0.168646,0,-289.112305,-289.121735,21.25,25.999681,0,5.32,0,202,,
2778,101,531503,531466,1,1,-7.797797,6.049513,0.128072,-0.002307,-0.020265,0.069067,-8.360237,6.644576,5.172924,-0.318163,-0.529652,0.712206,1.400913,126.003671,-53.241847,-0.410303,0.394558,-0.798854,0.194442,661.846069,94214.88281,0.001002,0.019665,0,-289.090027,-289.067444,21.25,26.008743,0,5.32,0,202,,
2779,101,533582,533549,1,1,-7.768764,6.077907,0.110068,-0.035156,-0.018079,0.063339,-8.840761,4.241947,5.172924,-0.722292,-0.868418,0.780697,1.474571,125.98079,-53.190382,-0.410552,0.392654,-0.799684,0.194361,661.926636,94214.00781,0.339008,0.101242,0,-289.00946,-289.070038,21.25,25.995152,0,5.32,0,202,,
2780,101,535670,535634,1,1,-7.799516,6.049309,0.123376,-0.001095,-0.019143,0.070243,-7.399185,7.125102,5.65345,-0.393041,-0.142719,-0.410192,1.326213,126.412745,-53.184518,-0.407336,0.395202,-0.800341,0.193253,661.813721,94213.02344,-0.21905,0.00076,0,-289.122375,-289.083313,21.25,25.995152,0,5.32,0,202,,
2781,101,537765,537729,1,1,-7.798375,6.055323,0.127018,-0.000182,-0.001037,0.073094,-7.399185,6.644576,5.172924,-0.294458,-0.541789,-0.270834,1.247835,126.458985,-53.170639,-0.407122,0.395153,-0.800567,0.192869,661.847473,94212.03125,0.125951,-0.142247,0,-289.088623,-289.174133,21.25,25.995152,0,5.32,0,202,,
2782,101,539862,539825,1,1,-7.789902,6.074222,0.132722,-0.010393,0.01509,0.07807,-8.360237,7.125102,5.172924,-0.137438,-0.028822,0.995286,1.281679,126.694244,-53.188421,-0.405574,0.395588,-0.801378,0.191866,661.837158,94215.99219,0.421326,0.049111,0,-289.098938,-289.148499,21.25,25.995152,0,5.32,0,202,,
2783,101,541965,541960,1,1,-7.802207,6.058432,0.116166,0.004877,-0.012644,0.077883,-8.360237,5.683524,5.65345,-0.143309,-0.12312,0.163789,1.150162,127.213516,-53.011079,-0.401798,0.395753,-0.803562,0.190331,661.606934,94217.97656,-0.207431,-0.242468,0,-289.329163,-289.265747,21.25,25.995152,0,5.32,0,202,,
2784,101,544067,544063,1,1,-7.792701,6.062029,0.124551,-0.00325,0.000028,0.072697,-8.840761,6.16405,5.172924,-0.843587,0.467748,0.078853,1.21385,127.425143,-53.095872,-0.400401,0.396506,-0.8041,0.189434,661.745972,94216.98438,0.437524,-0.109659,0,-289.190125,-289.228027,21.25,25.995152,0,5.32,0,202,,
2785,101,546257,546224,1,1,-7.784082,6.036737,0.113197,0.002904,-0.035718,0.050176,-7.399185,6.644576,5.172924,-0.027475,-0.321848,0.455086,1.264334,127.623587,-53.032174,-0.399294,0.396239,-0.805081,0.188156,661.66394,94216.07031,-0.338951,0.02293,0,-289.272156,-289.20636,21.25,25.98609,0,5.32,0,202,,
2786,101,548366,548326,1,1,-7.813696,6.04705,0.122,0.010401,-0.029699,0.08002,-8.360237,7.605628,5.172924,-0.265376,0.394769,-0.45629,1.24305,128.047086,-53.069723,-0.396197,0.397335,-0.806354,0.186938,661.764526,94214.08594,0.343604,-0.108583,0,-289.17157,-289.21994,21.25,25.98609,0,5.32,0,202,,
2787,101,550478,550434,1,1,-7.800691,6.054948,0.120494,0.006819,0.011271,0.059018,-8.840761,6.644576,4.692398,0.676146,1.487177,-1.160801,1.022027,128.090963,-53.004822,-0.395229,0.39772,-0.806366,0.188114,661.692139,94217.02344,-0.428397,0.040312,0,-289.243958,-289.161011,21.125,25.990622,0,5.32,0,202,,
2788,101,552593,552578,1,1,-7.796855,6.054081,0.122665,0.005302,0.000106,0.071075,-8.840761,7.125102,4.692398,0.023391,0.782783,-0.068399,1.102974,128.560238,-53.01529,-0.392203,0.398342,-0.808043,0.18592,661.698975,94213.17188,-0.482917,0.023799,0,-289.237122,-289.178802,21.25,25.97703,0,5.32,0,202,,
2789,101,554719,554689,1,1,-7.791817,6.070766,0.122339,0.000259,0.008812,0.077335,-7.399185,6.16405,5.172924,0.108333,0.256306,-0.251937,1.082465,128.680327,-52.96113,-0.391376,0.398241,-0.808601,0.185455,661.651733,94216.10938,-0.249234,-0.07355,0,-289.284363,-289.217651,21.25,25.98156,0,5.32,0,202,,
2790,101,556853,556852,1,1,-7.784557,6.092839,0.109745,-0.039951,0.013192,0.084964,-7.879711,4.241947,4.211873,-0.683112,0.526723,0.06716,1.225967,128.822613,-53.11024,-0.390539,0.397348,-0.809624,0.18467,661.953186,94209.21094,-0.049076,0.0356,0,-288.98291,-289.092499,21.25,25.97703,0,5.32,0,202,,
2791,101,558986,558971,1,1,-7.798282,6.047381,0.137501,0.015852,-0.012085,0.068272,-10.762865,2.800369,5.65345,-0.44874,-0.300558,-0.192158,1.229098,128.826507,-53.052497,-0.390712,0.398642,-0.809008,0.184213,661.727173,94217.14063,-0.184187,0.07776,0,-289.208923,-289.136261,21.25,25.97703,0,5.32,0,202,,
2792,101,561128,561096,1,1,-7.813085,6.065849,0.127006,0.018658,-0.031838,0.091097,-8.360237,6.644576,4.211873,-0.365856,-0.635724,0.821106,1.221212,128.937552,-52.913865,-0.390126,0.397885,-0.809847,0.183403,661.810669,94217.10156,0.113366,0.157237,0,-289.125427,-289.132446,21.25,25.98156,0,5.32,0,202,,
2793,101,563346,563311,1,1,-7.796062,6.048633,0.118284,-0.002445,0.013454,0.067047,-8.360237,4.241947,4.211873,0.540855,-0.041563,0.270063,1.030763,129.00084,-53.064365,-0.388776,0.399706,-0.809228,0.185035,661.705383,94216.14844,-0.51644,-0.014145,0,-289.230713,-289.234833,21.25,25.97703,0,5.32,0,202,,
2794,101,565489,565484,1,1,-7.798325,6.066614,0.124406,0.010331,-0.013436,0.079934,-7.879711,7.125102,4.211873,0.614264,0.975268,-0.316826,1.138472,129.543731,-52.899036,-0.385594,0.399114,-0.811775,0.181788,661.850891,94213.17188,0.392623,-0.00648,0,-289.085205,-289.22757,21.25,25.97703,0,5.32,0,202,,
2795,101,567638,567613,1,1,-7.793626,6.066923,0.118861,0.01148,-0.018205,0.076339,-6.438133,6.644576,4.211873,-0.393652,0.027323,0.312262,1.112624,129.311669,-52.838125,-0.387236,0.398369,-0.811179,0.182588,661.882202,94213.25,0.782241,0.04724,0,-289.053894,-289.240845,21.125,25.967968,0,5.32,0,202,,
2796,101,569788,569743,1,1,-7.794387,6.07016,0.122077,-0.011101,-0.023335,0.078957,-6.918659,9.527731,4.692398,0.23735,-0.068985,-0.200004,1.329642,129.381022,-53.053074,-0.387162,0.399277,-0.811005,0.181532,661.747803,94212.21875,-0.085965,0.087606,0,-289.188293,-289.231293,21.25,25.972498,0,5.32,0,202,,
2797,101,571997,571964,1,1,-7.809954,6.067547,0.120286,-0.028482,-0.003321,0.089609,-6.918659,10.008257,4.692398,-0.707073,-0.990609,1.01048,1.31459,129.512954,-53.260774,-0.385851,0.401028,-0.81069,0.181868,661.62677,94217.14063,-0.198507,-0.284413,0,-289.309326,-289.339172,21.125,25.97703,0,5.32,0,202,,
2798,101,574082,574050,1,1,-7.761638,6.034893,0.134784,-0.006415,0.030062,0.031608,-6.918659,7.125102,4.692398,-0.467793,0.122416,-0.564779,1.098071,129.752748,-53.136782,-0.383601,0.401294,-0.811568,0.182128,661.674072,94215.15625,-0.40279,0.122832,0,-289.262024,-289.276642,21.125,25.97703,0,5.32,0,202,,
2799,101,576175,576143,1,1,-7.794544,6.049714,0.141888,0.012091,-0.012735,0.066815,-9.321287,7.605628,5.65345,-0.559677,0.013669,-0.427701,1.27447,129.898136,-53.059324,-0.383315,0.400406,-0.812593,0.180101,661.616028,94214.20313,0.181766,-0.113741,0,-289.320068,-289.36908,21.125,25.972498,0,5.32,0,202,,
2800,101,578273,578241,1,1,-7.783813,6.053946,0.127172,0.00685,-0.003443,0.06075,-7.399185,6.644576,5.172924,0.021087,-0.778841,0.382376,1.124897,129.874872,-52.948094,-0.383132,0.400077,-0.81267,0.180872,661.675964,94217.21875,0.738372,-0.009009,0,-289.260132,-289.335571,21.125,25.967968,0,5.32,0,202,,
2801,101,580449,580440,1,1,-7.789639,6.053517,0.14228,0.009942,0.010475,0.065285,-7.399185,6.644576,5.172924,0.879941,0.847033,-0.194783,1.15127,130.190318,-53.037088,-0.380857,0.401162,-0.81343,0.179858,661.472656,94220.14844,-0.440556,-0.002867,0,-289.46344,-289.341125,21.125,25.972498,0,5.32,0,202,,
2802,101,582540,582524,1,1,-7.803723,6.053283,0.132351,0.001408,-0.010128,0.076132,-7.879711,7.125102,5.172924,-0.941889,-0.432445,0.324772,1.231498,130.49687,-53.086119,-0.378894,0.401768,-0.814377,0.178356,661.703491,94215.3125,0.304722,-0.051941,0,-289.232605,-289.306671,21.125,25.958906,0,5.32,0,202,,
2803,101,584640,584626,1,1,-7.787642,6.05301,0.128485,-0.001851,-0.002985,0.063219,-8.360237,7.125102,5.172924,-0.184006,-0.014166,0.572429,1.168463,130.951351,-53.020064,-0.375558,0.402278,-0.815974,0.176962,661.714478,94215.3125,0.653589,-0.088653,0,-289.221619,-289.34552,21.25,25.958906,0,5.32,0,202,,
2804,101,586746,586731,1,1,-7.794309,6.055657,0.124546,0.007368,-0.003693,0.070053,-7.399185,6.16405,5.172924,-0.421289,0.629323,0.119732,1.07384,131.018178,-52.921197,-0.374905,0.401996,-0.816389,0.177073,661.542542,94218.21094,-0.281919,-0.069247,0,-289.393555,-289.297394,21.125,25.967968,0,5.32,0,202,,
2805,101,588856,588833,1,1,-7.797541,6.065665,0.128085,-0.004126,-0.009222,0.078789,-6.918659,7.605628,4.211873,-1.157108,0.454363,-0.117172,1.201626,131.49961,-52.996664,-0.37182,0.402925,-0.817854,0.174686,661.595276,94219.23438,-0.306276,0.081227,0,-289.34082,-289.26535,21.125,25.963438,0,5.32,0,202,,
2806,101,590977,590943,1,1,-7.80227,6.045871,0.129546,0.004372,-0.003587,0.070409,-8.840761,6.644576,5.172924,0.028006,-0.525402,0.18452,1.119692,131.843579,-53.030139,-0.369035,0.404002,-0.818699,0.174146,661.410156,94218.28125,-0.731782,-0.263296,0,-289.52594,-289.439819,21.125,25.958906,0,5.32,0,202,,
2807,101,593102,593090,1,1,-7.799452,6.063237,0.124587,-0.000271,0.022033,0.078743,-7.879711,7.125102,4.692398,0.163001,-0.026314,-0.561002,0.946623,132.346062,-52.933949,-0.364991,0.404695,-0.820353,0.173274,661.678162,94214.39844,0.177829,-0.009718,0,-289.257935,-289.387054,21.125,25.949846,0,5.32,0,202,,
2808,101,595232,595206,1,1,-7.750936,6.045831,0.154711,-0.003205,0.024071,0.030197,-6.438133,3.761421,5.172924,-0.814177,-0.458174,0.449827,1.203397,132.942761,-53.041736,-0.361479,0.405626,-0.822208,0.16963,661.584717,94216.38281,-0.132637,0.095966,0,-289.351379,-289.413422,21.125,25.949846,0,5.32,0,202,,
2809,101,597445,597423,1,1,-7.804183,6.066164,0.127636,0.006173,-0.012751,0.084328,-8.360237,7.125102,5.172924,-0.218497,-0.030019,0.917633,1.115366,133.262988,-52.876128,-0.359122,0.405233,-0.823648,0.168589,661.578247,94215.35156,-0.301041,-0.059232,0,-289.357849,-289.377594,21.25,25.954376,0,5.32,0,202,,
2810,101,599574,599537,1,1,-7.791432,6.047481,0.127168,0.003128,-0.001128,0.062803,-9.321287,8.566679,7.095027,-0.386386,0.006813,0.238459,1.057689,133.652158,-52.930483,-0.356051,0.406428,-0.824559,0.167772,661.704956,94216.38281,0.819681,-0.032162,0,-289.23114,-289.439392,21.125,25.949846,0,5.32,0,202,,
2811,101,601709,601706,1,1,-7.797768,6.043685,0.131403,0.039306,-0.002217,0.06546,-9.321287,5.683524,4.692398,-0.364352,0.296474,-0.223129,0.872935,134.18132,-52.680136,-0.352218,0.407548,-0.826033,0.165879,661.651306,94212.375,0.790403,-0.022881,0,-289.28479,-289.469299,21.125,25.954376,0,5.32,0,202,,
2812,101,603848,603823,1,1,-7.825394,6.023933,0.110411,0.025776,-0.073643,0.074762,-7.879711,6.16405,5.172924,-1.001759,-0.496137,0.764632,1.189161,134.483023,-52.850003,-0.350669,0.406761,-0.827538,0.163579,661.60321,94212.49219,-0.092134,0.066527,0,-289.332886,-289.447815,21.125,25.940784,0,5.32,0,202,,
2813,101,605992,605950,1,1,-7.793664,6.055051,0.114127,0.005888,0.010846,0.069042,-7.399185,7.125102,5.65345,0.442231,0.896943,0.634143,0.841017,134.921713,-52.771633,-0.346385,0.407937,-0.828625,0.164273,661.506592,94219.35156,-0.066835,-0.00608,0,-289.429504,-289.377808,21.125,25.949846,0,5.32,0,202,,
2814,101,608141,608128,1,1,-7.821747,6.042867,0.150299,0.042187,0.002373,0.08418,-7.399185,9.527731,3.731347,0.032061,0.079648,-0.077404,0.972328,135.11166,-52.834003,-0.345394,0.408285,-0.829153,0.162826,661.485779,94220.34375,0.246363,0.043734,0,-289.450317,-289.348663,21.125,25.949846,0,5.32,0,202,,
2815,101,610295,610255,1,1,-7.806209,6.053235,0.126306,-0.009593,-0.009889,0.077983,-6.918659,6.16405,4.211873,-0.284835,-0.481256,-0.008807,1.140017,135.455424,-53.00777,-0.343268,0.40957,-0.82978,0.160889,661.578552,94217.36719,0.208068,0.069324,0,-289.357544,-289.324829,21.125,25.949846,0,5.32,0,202,,
2816,101,612560,612525,1,1,-7.792147,6.052127,0.1181,0.004063,-0.004967,0.066102,-6.918659,8.086153,5.65345,-0.140388,0.373457,-0.164737,0.967486,135.480668,-52.805005,-0.342692,0.408888,-0.830223,0.161565,661.392456,94221.14063,-1.02189,-0.222674,0,-289.54364,-289.41156,21.125,25.972498,0,5.32,0,202,,
2817,101,614719,614710,1,1,-7.826631,6.065954,0.136414,0.007419,-0.01635,0.102041,-5.477081,4.241947,4.692398,-0.385255,0.141169,0.615912,1.156704,135.633268,-52.934912,-0.342146,0.409267,-0.830582,0.159904,661.583862,94215.46875,0.1417,-0.106259,0,-289.352234,-289.474884,21.25,25.940784,0,5.32,0,202,,
2818,101,616801,616755,1,1,-7.796588,6.045346,0.131683,0.029681,-0.001302,0.080077,-7.399185,10.488783,3.731347,-0.132496,-0.477766,-0.231745,1.124532,135.790786,-52.890181,-0.341147,0.410424,-0.830592,0.15902,661.605164,94215.39063,0.494507,-0.017571,0,-289.330933,-289.469086,21.125,25.949846,0,5.32,0,202,,
2819,101,618885,618846,1,1,-7.79819,6.080883,0.11398,-0.022813,0.024128,0.088428,-6.918659,7.605628,7.095027,0.089553,1.21904,-0.195888,0.907265,135.931884,-52.876804,-0.339462,0.408808,-0.831911,0.159896,661.657837,94213.48438,0.031957,0.139567,0,-289.278259,-289.387817,21.125,25.940784,0,5.32,0,202,,
2820,101,620978,620939,1,1,-7.801971,6.063957,0.134611,-0.045999,-0.002788,0.081223,-7.879711,7.125102,3.731347,-0.383828,-0.454052,1.117487,1.357631,136.042765,-53.267638,-0.339065,0.410016,-0.831695,0.15876,661.408325,94219.42969,-0.062423,0.095058,0,-289.527771,-289.526245,21.125,25.940784,0,5.32,0,202,,
2821,101,623076,623030,1,1,-7.801296,6.062206,0.122961,-0.017239,0.001728,0.100556,-8.360237,6.16405,4.211873,-0.088213,0.17158,0.240389,0.974742,136.086465,-52.845628,-0.338345,0.409852,-0.831963,0.159314,661.550354,94219.42969,0.216769,0.111176,0,-289.385742,-289.428955,21.125,25.940784,0,5.32,0,202,,
2822,101,625179,625134,1,1,-7.801777,6.060668,0.114876,0.019403,-0.035418,0.068871,-8.360237,5.202998,4.692398,0.442013,0.364592,-0.354129,1.110768,136.387061,-52.840321,-0.33614,0.411147,-0.832418,0.158267,661.46759,94218.47656,-0.51598,0.003165,0,-289.468506,-289.441956,21.125,25.936255,0,5.32,0,202,,
2823,101,627287,627286,1,1,-7.799541,6.068383,0.130208,-0.008757,-0.001105,0.082065,-8.840761,5.683524,5.172924,-0.026041,-0.598321,0.134162,1.09793,136.361817,-52.905576,-0.33671,0.410341,-0.832712,0.157596,661.443604,94218.4375,-0.032184,-0.082454,0,-289.492493,-289.529358,21.125,25.940784,0,5.32,0,202,,
2824,101,629401,629397,1,1,-7.801359,6.060689,0.137061,0.015016,0.022208,0.078839,-8.360237,4.722473,5.65345,0.275023,0.10096,0.700219,0.885737,136.412825,-52.793653,-0.335735,0.410227,-0.832967,0.158625,661.335938,94220.42188,0.028906,-0.019162,0,-289.600159,-289.563538,21.125,25.940784,0,5.32,0,202,,
2825,101,631598,631565,1,1,-7.798789,6.04199,0.123085,0.007212,0.000732,0.065198,-7.399185,6.644576,5.172924,0.440093,-0.578919,-0.662213,0.943222,136.381966,-52.857147,-0.336077,0.410474,-0.83273,0.158505,661.317078,94224.38281,0.290813,-0.064557,0,-289.619019,-289.568665,21.125,25.940784,0,5.32,0,202,,
2826,101,633714,633706,1,1,-7.802956,6.050524,0.136719,-0.000502,-0.001108,0.0739,-7.399185,6.16405,5.172924,-0.445292,-0.876479,-0.491547,1.106511,136.300373,-52.971658,-0.337095,0.410703,-0.832311,0.157952,661.473511,94217.48438,0.483184,0.058128,0,-289.462585,-289.582947,21.125,25.936255,0,5.32,0,202,,
2827,101,635827,635815,1,1,-7.81199,6.050347,0.123869,0.01133,-0.019938,0.080736,-6.918659,5.202998,4.692398,-1.008961,-0.834713,0.748773,1.041556,136.631855,-52.830502,-0.334655,0.410367,-0.833677,0.156805,661.261902,94222.39844,0.221304,-0.032892,0,-289.674194,-289.682953,21.125,25.940784,0,5.32,0,202,,
2828,101,637952,637927,1,1,-7.796669,6.059943,0.130196,-0.011967,-0.002874,0.074615,-7.879711,7.125102,5.65345,-0.353666,-0.206842,-0.466502,1.119533,136.728243,-52.950509,-0.334072,0.411158,-0.833628,0.156237,661.422607,94219.42969,0.228682,0.152622,0,-289.513489,-289.545898,21.125,25.940784,0,5.32,0,202,,
2829,101,640086,640045,1,1,-7.767459,6.068409,0.130287,-0.010381,0.02819,0.056742,-6.918659,5.683524,4.692398,-0.056819,0.695302,0.553157,0.925753,137.114518,-52.786656,-0.330797,0.411103,-0.835047,0.155767,661.369141,94219.42969,0.068402,0.023751,0,-289.566956,-289.59729,21.125,25.940784,0,5.32,0,202,,
2830,101,642220,642213,1,1,-7.820699,6.058457,0.141824,0.009191,-0.012764,0.092842,-9.321287,7.605628,4.692398,-0.483222,0.468568,0.333641,1.141235,137.373423,-52.919834,-0.329511,0.411836,-0.835589,0.153637,661.281982,94224.38281,0.109782,0.176404,0,-289.654114,-289.581421,21.125,25.940784,0,5.32,0,202,,
2831,101,644361,644327,1,1,-7.82583,6.048585,0.129638,0.035655,-0.039391,0.090561,-8.840761,6.16405,5.65345,-0.915115,0.759205,0.589162,1.056682,137.578369,-52.706022,-0.328003,0.410822,-0.836817,0.152893,661.464417,94217.44531,0.143734,0.032117,0,-289.47168,-289.541412,21.125,25.940784,0,5.32,0,202,,
2832,101,646508,646499,1,1,-7.792617,6.067019,0.14053,0.000579,0.003707,0.075909,-8.360237,6.16405,5.172924,-0.142901,0.261046,-0.02,1.071644,138.050636,-52.825397,-0.32446,0.412342,-0.837721,0.151403,661.37384,94223.46875,0.566686,0.084631,0,-289.562256,-289.524506,21.125,25.931725,0,5.32,0,202,,
2833,101,648732,648728,1,1,-7.786725,6.058135,0.122139,-0.002757,0.00803,0.065556,-9.801813,7.605628,5.172924,-1.070449,-0.081843,0.107405,0.919324,138.18933,-52.772739,-0.322971,0.412589,-0.838092,0.151862,661.365173,94218.4375,0.075232,-0.055657,0,-289.570923,-289.599792,21.125,25.940784,0,5.32,0,202,,
2834,101,650874,650851,1,1,-7.788593,6.047263,0.122876,0.010559,0.012471,0.060359,-7.879711,6.16405,4.692398,0.031828,0.997265,0.36563,0.826863,138.473903,-52.723637,-0.320626,0.412897,-0.83893,0.151364,661.397339,94219.42969,0.35925,0.010157,0,-289.538757,-289.599548,21.125,25.940784,0,5.32,0,202,,
2835,101,653076,653076,1,1,-7.800475,6.052057,0.123479,0.016306,-0.016976,0.072677,-7.879711,6.16405,5.172924,-0.32258,0.909988,0.281973,0.968503,138.758203,-52.696036,-0.319096,0.412705,-0.839993,0.149213,661.301514,94220.46094,-0.481053,-0.032877,0,-289.634583,-289.557861,21.125,25.936255,0,5.32,0,202,,
2836,101,655155,655153,1,1,-7.786236,6.053931,0.125988,0.002804,-0.012138,0.062634,-8.360237,6.644576,5.65345,0.271292,-0.126816,-0.043672,1.028005,138.865478,-52.751959,-0.318454,0.413103,-0.84016,0.14854,661.492676,94216.53125,0.444525,-0.003254,0,-289.44342,-289.573212,21.25,25.931725,0,5.32,0,202,,
2837,101,657235,657196,1,1,-7.801141,6.0564,0.124766,0.010911,-0.020323,0.075883,-7.879711,8.086153,5.172924,0.146056,-0.090659,0.13329,1.015654,139.502434,-52.711008,-0.313491,0.414447,-0.841667,0.146813,661.23999,94222.39844,-0.346937,-0.172308,0,-289.696106,-289.628143,21.125,25.940784,0,5.32,0,202,,
2838,101,659325,659287,1,1,-7.789169,6.067202,0.134928,0.013537,0.000575,0.073215,-8.360237,7.125102,5.65345,0.020302,0.523853,1.437479,0.959844,139.453161,-52.650455,-0.31414,0.413888,-0.841772,0.146398,661.178345,94221.41406,-0.358413,-0.181732,0,-289.757751,-289.671997,21.125,25.940784,0,5.32,0,202,,
2839,101,661420,661383,1,1,-7.790563,6.048873,0.11688,-0.003635,-0.018974,0.062824,-8.840761,7.125102,5.65345,0.10666,-0.35016,0.660932,1.016525,139.831826,-52.773716,-0.310929,0.414788,-0.842602,0.145928,661.449036,94217.44531,0.319964,-0.017957,0,-289.487061,-289.58078,21.125,25.940784,0,5.32,0,202,,
2840,101,663569,663563,1,1,-7.803236,6.05077,0.127234,0.011076,-0.027397,0.074102,-10.762865,5.683524,3.250821,0.29288,0.085011,0.979758,1.07412,139.564247,-52.754042,-0.313062,0.414798,-0.841701,0.146544,661.196472,94222.25,0.044919,-0.081716,0,-289.739624,-289.730347,21.125,25.958906,0,5.32,0,202,,
2841,101,665753,665721,1,1,-7.799149,6.053759,0.135873,0.012456,-0.009221,0.072851,-8.360237,5.202998,4.692398,-0.509228,0.152073,0.789575,1.024587,139.811295,-52.752573,-0.311518,0.414452,-0.842692,0.145106,661.437256,94218.47656,-0.040146,0.143067,0,-289.49884,-289.555969,21.125,25.936255,0,5.32,0,202,,
2842,101,667856,667821,1,1,-7.798516,6.067711,0.12891,-0.005505,-0.017884,0.080814,-8.360237,6.644576,5.172924,-0.332958,-0.936774,1.052276,1.108538,139.849161,-52.787318,-0.311501,0.414533,-0.842773,0.144444,661.247375,94218.47656,-0.171415,-0.100455,0,-289.688721,-289.68927,21.125,25.936255,0,5.32,0,202,,
2843,101,669962,669924,1,1,-7.784278,6.065453,0.129922,-0.007668,0.004131,0.06822,-7.879711,7.125102,5.172924,-0.624159,-1.137843,-0.256595,0.997202,140.053234,-52.764386,-0.30963,0.414951,-0.843255,0.144452,661.480896,94214.51563,-0.326791,0.264245,0,-289.4552,-289.450378,21.125,25.936255,0,5.32,0,202,,
2844,101,672069,672025,1,1,-7.798885,6.063182,0.12956,-0.008571,0.007089,0.078345,-7.399185,4.722473,6.133976,0.238679,0.653832,0.21959,0.9794,140.134595,-52.829328,-0.308887,0.415589,-0.843211,0.14446,661.404602,94217.52344,0.432668,0.096196,0,-289.531494,-289.639099,21.125,25.931725,0,5.32,0,202,,
2845,101,674183,674169,1,1,-7.793948,6.035203,0.135712,0.049752,-0.029908,0.057213,-9.801813,6.16405,6.133976,-0.64411,-0.582659,0.21547,0.957698,140.498111,-52.523294,-0.306522,0.413893,-0.845246,0.142466,661.322876,94220.46094,-0.754748,0.22392,0,-289.61322,-289.539307,21.125,25.936255,0,5.32,0,202,,
2846,101,676301,676275,1,1,-7.786982,6.053228,0.131137,0.003325,-0.006678,0.062863,-9.321287,7.605628,5.65345,-0.003736,0.489048,0.67834,1.008589,140.610782,-52.740737,-0.305607,0.415515,-0.844816,0.142259,661.209412,94222.4375,-0.236201,-0.099,0,-289.726685,-289.692902,21.125,25.936255,0,5.32,0,202,,
2847,101,678428,678388,1,1,-7.818103,6.066775,0.124707,-0.013281,-0.01319,0.09565,-9.321287,8.086153,3.731347,-0.412329,-1.173428,-0.25555,1.075721,140.483235,-52.884119,-0.30661,0.416217,-0.844047,0.142616,661.446167,94218.59375,0.710209,0.094418,0,-289.489929,-289.59552,21.125,25.922663,0,5.32,0,202,,
2848,101,680562,680554,1,1,-7.819482,6.098891,0.092249,-0.030794,-0.022442,0.116047,-10.282339,6.644576,2.289769,-0.43679,-0.075714,0.428246,0.96288,140.777043,-52.711889,-0.304255,0.415651,-0.845296,0.141909,661.348022,94219.50781,-0.371687,0.144514,0,-289.588074,-289.524292,21,25.931725,0,5.32,0,202,,
2849,101,682772,682732,1,1,-7.806972,6.054786,0.123082,0.013119,-0.015653,0.079484,-8.840761,6.644576,5.172924,-0.570168,-0.09632,0.21198,0.945144,141.229898,-52.679941,-0.300684,0.416796,-0.846209,0.140716,661.370605,94219.58594,0.508664,0.055497,0,-289.565491,-289.587463,21.125,25.922663,0,5.32,0,202,,
2850,101,684906,684891,1,1,-7.772058,6.030444,0.137797,0.022923,-0.00231,0.037171,-8.360237,6.644576,5.172924,0.505886,0.721048,0.954775,0.935845,141.203725,-52.665543,-0.301073,0.415958,-0.846532,0.140419,661.279724,94222.47656,-0.315764,-0.000543,0,-289.656372,-289.551239,21.125,25.931725,0,5.32,0,202,,
2851,101,687044,687011,1,1,-7.791075,6.037958,0.12671,0.015661,-0.001261,0.056667,-7.399185,6.16405,5.172924,0.664533,1.295019,0.338578,0.87902,141.21535,-52.699977,-0.300739,0.416377,-0.846367,0.140887,661.341675,94218.51563,-0.53527,0.00188,0,-289.594421,-289.576263,21.125,25.931725,0,5.32,0,202,,
2852,101,689189,689184,1,1,-7.791436,6.044084,0.125516,-0.003259,0.00006,0.060702,-8.360237,6.644576,5.172924,0.477155,0.216261,-0.285238,0.946633,141.494704,-52.802468,-0.298801,0.417333,-0.846791,0.139627,661.198975,94225.45313,-0.266789,-0.079028,0,-289.737122,-289.641052,21.125,25.931725,0,5.32,0,202,,
2853,101,691335,691310,1,1,-7.802731,6.049773,0.136072,0.012651,0.016083,0.073232,-7.399185,8.566679,5.172924,-0.369718,0.89051,0.135845,0.848822,142.217789,-52.731355,-0.293196,0.418017,-0.848758,0.137503,661.147583,94219.50781,-0.734565,-0.205688,0,-289.788513,-289.723511,21.125,25.931725,0,5.32,0,202,,
2854,101,693490,693486,1,1,-7.800075,6.060359,0.131461,0.019312,-0.00422,0.077563,-7.879711,6.16405,5.172924,-0.780794,1.265869,0.489641,0.901933,142.267253,-52.602586,-0.293218,0.417795,-0.849021,0.136503,661.458679,94222.51563,0.303903,0.279683,0,-289.477417,-289.505798,21.125,25.927193,0,5.32,0,202,,
2855,101,695570,695560,1,1,-7.794763,6.049018,0.125976,0.018258,0.007785,0.066341,-8.840761,5.683524,4.692398,-0.013789,1.039347,0.875272,0.790574,143.031715,-52.605171,-0.28711,0.418281,-0.851168,0.134616,661.318237,94223.46875,-0.180146,-0.10522,0,-289.617859,-289.582062,21,25.931725,0,5.32,0,202,,
2856,101,697653,697649,1,1,-7.819083,6.055212,0.11799,-0.012186,-0.017728,0.089253,-8.360237,3.280895,5.172924,-0.945792,0.042334,0.578864,1.00594,143.449914,-52.839925,-0.284526,0.420024,-0.851579,0.132056,661.200928,94225.49219,-0.579682,-0.027745,0,-289.735168,-289.573212,21.125,25.927193,0,5.32,0,202,,
2857,101,699820,699796,1,1,-7.795329,6.049524,0.131925,0.010625,-0.017355,0.067175,-8.360237,6.644576,5.65345,-0.73969,-0.72642,0.922871,0.999942,144.274892,-52.661913,-0.278583,0.419759,-0.854198,0.128605,661.225464,94220.5,0.028818,0.140875,0,-289.710632,-289.717194,21.125,25.931725,0,5.32,0,202,,
2858,101,701903,701884,1,1,-7.80766,6.047812,0.137826,0.009758,0.006149,0.075966,-7.879711,6.644576,5.65345,0.500212,0.224952,-0.583416,0.907329,144.383068,-52.741823,-0.27735,0.420714,-0.854057,0.129088,661.262939,94220.5,0.180045,-0.06915,0,-289.673157,-289.752838,21.125,25.931725,0,5.32,0,202,,
2859,101,703993,703977,1,1,-7.790766,6.058369,0.117388,0.022192,0.003132,0.06881,-7.879711,10.488783,5.65345,-0.60796,0.108559,0.545901,0.727331,144.452586,-52.458749,-0.276492,0.419124,-0.855055,0.129489,661.421509,94218.55469,0.501629,0.100883,0,-289.514587,-289.66449,21.125,25.927193,0,5.32,0,202,,
2860,101,706094,706070,1,1,-7.804488,6.047365,0.129137,0.00943,-0.009347,0.073064,-8.840761,9.047205,5.65345,0.613949,0.058941,0.894501,0.934173,144.650375,-52.693916,-0.275514,0.420624,-0.854892,0.127781,661.366455,94220.5,0.316419,0.044425,0,-289.569641,-289.67868,21.125,25.931725,0,5.32,0,202,,
2861,101,708197,708173,1,1,-7.791514,6.049857,0.119833,0.001282,0.012404,0.064225,-9.321287,6.16405,5.172924,-0.404896,0.338174,0.843892,0.77014,145.223646,-52.646094,-0.270694,0.421358,-0.85622,0.126765,661.200867,94222.47656,0.202254,-0.261451,0,-289.735229,-289.782593,21,25.931725,0,5.32,0,202,,
2862,101,710307,710274,1,1,-7.790236,6.081768,0.131756,-0.010339,0.011168,0.082967,-8.360237,7.125102,5.172924,-0.373645,0.02505,0.572387,0.906408,145.253098,-52.623947,-0.271,0.420906,-0.856519,0.125585,661.318298,94221.45313,0.293616,0.394882,0,-289.617798,-289.61142,21,25.936255,0,5.32,0,202,,
2863,101,712422,712378,1,1,-7.807607,6.034683,0.131737,0.008701,-0.024338,0.067779,-7.879711,7.125102,5.172924,0.666587,-0.31391,0.042778,1.034918,145.474696,-52.763607,-0.269668,0.421916,-0.856655,0.124131,661.108887,94225.45313,-0.128934,-0.004205,0,-289.827209,-289.681183,21.125,25.931725,0,5.32,0,202,,
2864,101,714579,714573,1,1,-7.800225,6.044008,0.143871,0.022544,0.009388,0.067822,-8.840761,10.969309,3.250821,-0.179262,0.291106,0.106804,0.866494,145.800114,-52.639114,-0.267062,0.422539,-0.857291,0.123247,661.394104,94216.41406,-0.009421,0.06304,0,-289.541992,-289.632202,21.125,25.945316,0,5.32,0,202,,
2865,101,716777,716744,1,1,-7.793272,6.049701,0.134465,0.009423,0.006238,0.065708,-7.399185,6.644576,5.65345,0.037483,-0.633904,0.046366,0.865713,146.316586,-52.633509,-0.262898,0.422344,-0.858857,0.121961,661.216675,94220.53906,0.40526,0.0245,0,-289.719421,-289.779297,21.125,25.927193,0,5.32,0,202,,
2866,101,718899,718854,1,1,-7.801542,6.072395,0.127132,0.006997,0.001521,0.094917,-7.879711,5.683524,4.211873,0.543726,-0.964701,0.032024,0.881353,146.668026,-52.670816,-0.260288,0.423,-0.859518,0.120621,661.25238,94225.49219,0.116242,0.128943,0,-289.683716,-289.599457,21.125,25.927193,0,5.32,0,202,,
2867,101,721021,721017,1,1,-7.823828,6.019409,0.123543,0.021024,-0.033278,0.071147,-9.321287,7.125102,5.172924,-0.18406,0.023577,0.504435,0.970841,146.705415,-52.751381,-0.260254,0.423445,-0.859397,0.119993,661.387085,94220.57031,0.376429,-0.118425,0,-289.549011,-289.618195,21.125,25.922663,0,5.32,0,202,,
2868,101,723147,723134,1,1,-7.793496,6.07286,0.131099,0.0141,0.002862,0.080052,-8.360237,7.125102,4.692398,-0.399001,-0.478188,0.387195,0.836185,147.069751,-52.468496,-0.257323,0.422049,-0.861102,0.119008,661.235596,94223.50781,0.355583,0.11739,0,-289.7005,-289.697815,21.125,25.927193,0,5.32,0,202,,
2869,101,725287,725247,1,1,-7.784636,6.062618,0.134836,-0.005606,0.016386,0.066815,-8.840761,7.605628,5.172924,-0.076842,0.186478,-0.125281,0.859642,146.99134,-52.636259,-0.258108,0.422753,-0.860533,0.118924,661.240173,94221.48438,0.069031,0.064748,0,-289.695923,-289.715454,21.125,25.931725,0,5.32,0,202,,
2870,101,727430,727418,1,1,-7.796234,6.047102,0.142717,0.018967,0.000572,0.066559,-5.477081,11.93036,2.770295,-0.432027,-0.699078,0.834607,0.912027,147.149554,-52.605301,-0.256863,0.422998,-0.860851,0.118449,661.083984,94225.45313,-0.492928,-0.121417,0,-289.852112,-289.754791,21.125,25.931725,0,5.32,0,202,,
2871,101,729580,729548,1,1,-7.815083,6.073289,0.128806,-0.020683,-0.005774,0.097307,-7.879711,8.566679,4.211873,-0.774652,-0.122365,0.682356,0.995922,147.33203,-52.76871,-0.255637,0.424249,-0.86073,0.117503,661.201233,94223.46875,-0.360497,0.223315,0,-289.734863,-289.683929,21.125,25.931725,0,5.32,0,202,,
2872,101,731732,731724,1,1,-7.810119,6.039007,0.126081,-0.007544,-0.011192,0.072362,-6.918659,4.722473,3.250821,0.119343,1.025763,0.343765,0.959199,147.611152,-52.803793,-0.253373,0.424915,-0.861165,0.116812,661.157227,94224.53906,-0.002586,0.009437,0,-289.77887,-289.69931,21,25.922663,0,5.32,0,202,,
2873,101,733960,733955,1,1,-7.815824,6.025654,0.117533,0.035079,-0.027313,0.068521,-8.840761,7.605628,4.692398,0.474406,-0.47833,0.100127,0.835799,148.02584,-52.555249,-0.250056,0.423786,-0.862846,0.115644,661.353271,94218.55469,-0.466235,0.166143,0,-289.582825,-289.605591,21.125,25.927193,0,5.32,0,202,,
2874,101,736161,736125,1,1,-7.816155,5.996495,0.141409,0.052576,-0.023435,0.051254,-9.801813,6.644576,4.692398,-0.364252,-0.730662,0.047919,0.914515,148.144167,-52.655889,-0.249178,0.426842,-0.861659,0.115153,661.089417,94221.5625,-0.223497,-0.191865,0,-289.84668,-289.796143,21.125,25.922663,0,5.32,0,202,,
2875,101,738240,738208,1,1,-7.796845,6.045159,0.124404,0.003983,-0.01188,0.065614,-7.399185,6.16405,5.172924,-0.360534,0.646938,-0.346732,0.902576,148.446129,-52.628889,-0.246861,0.424955,-0.86339,0.114154,661.380615,94216.53125,0.830041,0.023387,0,-289.555481,-289.721069,21.125,25.931725,0,5.32,0,202,,
2876,101,740330,740296,1,1,-7.792359,6.05317,0.123312,-0.001888,-0.024131,0.066945,-7.879711,7.125102,5.65345,-0.311874,-0.556144,0.705118,0.985267,148.642197,-52.608829,-0.245445,0.424749,-0.864007,0.113304,661.177673,94223.46875,-0.276504,0.009589,0,-289.758423,-289.723572,21.125,25.931725,0,5.32,0,202,,
2877,101,742426,742394,1,1,-7.799955,6.04245,0.120321,-0.001836,-0.004822,0.066368,-7.879711,6.16405,5.65345,-0.098626,0.219129,-0.458222,0.852128,148.703914,-52.673097,-0.244901,0.425391,-0.863853,0.113242,661.13501,94223.54688,0.307745,-0.088048,0,-289.801086,-289.712006,21.125,25.922663,0,5.32,0,202,,
2878,101,744524,744488,1,1,-7.807612,6.035937,0.130612,0.030752,-0.012419,0.068514,-7.879711,5.202998,3.731347,-0.391119,0.571188,0.218348,0.848823,149.124094,-52.538362,-0.241857,0.42484,-0.865219,0.111409,661.383301,94218.59375,0.291209,0.162225,0,-289.552795,-289.704254,21.25,25.922663,0,5.32,0,202,,
2879,101,746621,746619,1,1,-7.794551,6.060719,0.117363,-0.007816,0.002734,0.073262,-8.840761,6.644576,4.692398,0.203554,-0.016287,-0.441361,0.802706,149.341471,-52.589291,-0.239998,0.425556,-0.865431,0.111051,661.147095,94222.4375,-0.397243,-0.116037,0,-289.789001,-289.772308,21.125,25.936255,0,5.32,0,202,,
2880,101,748725,748722,1,1,-7.806645,6.048166,0.127033,0.003652,-0.001108,0.075242,-9.321287,6.16405,5.65345,-0.675429,0.290401,0.277826,0.849614,149.461437,-52.643625,-0.239216,0.425998,-0.865519,0.110361,661.172668,94219.54688,0.038732,-0.263957,0,-289.763428,-289.809021,21.125,25.927193,0,5.32,0,202,,
2881,101,750903,750880,1,1,-7.800169,6.06451,0.143385,0.010125,0.017147,0.08035,-8.840761,7.605628,5.65345,-0.503365,-0.033252,0.042194,0.830215,149.586443,-52.555502,-0.238285,0.425506,-0.866081,0.109856,661.348877,94220.5,0.676074,0.033874,0,-289.587219,-289.760895,21.125,25.931725,0,5.32,0,202,,
2882,101,753012,752985,1,1,-7.793119,6.044186,0.13622,0.005958,-0.00689,0.062233,-8.840761,6.16405,5.172924,-0.410363,-0.960571,-0.012365,0.937669,149.544806,-52.628742,-0.238929,0.425791,-0.865827,0.109352,661.103882,94223.42969,0.238073,-0.193718,0,-289.832214,-289.802002,21.125,25.936255,0,5.32,0,202,,
2883,101,755127,755093,1,1,-7.789144,6.053488,0.125292,-0.006272,-0.017361,0.064639,-8.840761,7.125102,5.172924,-0.44233,-0.137352,0.621654,0.962675,149.938225,-52.610007,-0.236072,0.426019,-0.866712,0.107649,661.236328,94219.50781,-0.573135,-0.166011,0,-289.699768,-289.732697,21.25,25.931725,0,5.32,0,202,,
2884,101,757246,757241,1,1,-7.801379,6.064369,0.124607,-0.000531,-0.027979,0.080945,-8.840761,6.644576,4.692398,-0.626292,-1.111044,0.773205,0.99698,150.152406,-52.558593,-0.23463,0.425788,-0.867361,0.10648,661.266541,94221.45313,0.443385,0.043095,0,-289.669556,-289.701874,21.125,25.936255,0,5.32,0,202,,
2885,101,759364,759352,1,1,-7.809215,6.055894,0.12784,0.010189,-0.020873,0.08199,-7.399185,6.644576,4.692398,-0.816185,-0.18888,0.864379,0.942481,150.033793,-52.566276,-0.235316,0.425832,-0.867046,0.107353,661.244812,94222.4375,0.222252,0.029562,0,-289.691284,-289.696655,21.125,25.936255,0,5.32,0,202,,
2886,101,761491,761466,1,1,-7.790948,6.057274,0.13238,0.002507,-0.002197,0.068496,-8.360237,5.683524,5.65345,-0.087157,-0.650548,0.28992,0.88885,150.343624,-52.556663,-0.232786,0.426195,-0.867646,0.106578,660.994141,94225.41406,-0.469146,-0.095846,0,-289.941956,-289.800232,21.125,25.936255,0,5.32,0,202,,
2887,101,763629,763589,1,1,-7.797428,6.047626,0.125491,-0.0023,-0.001735,0.067607,-8.840761,6.16405,4.211873,-0.151778,0.851411,-0.482641,0.853918,150.599264,-52.629025,-0.230657,0.42708,-0.867847,0.106029,661.107483,94224.42188,-0.165261,-0.001296,0,-289.828613,-289.840302,21.125,25.936255,0,5.32,0,202,,
2888,101,765770,765750,1,1,-7.798264,6.073176,0.130536,-0.002087,-0.009042,0.084006,-9.321287,6.16405,5.65345,-0.21152,0.271978,0.94849,0.927357,150.642199,-52.528577,-0.230698,0.426216,-0.868372,0.105109,661.326904,94216.41406,0.362313,0.159576,0,-289.609192,-289.828949,21.125,25.945316,0,5.32,0,202,,
2889,101,768006,767987,1,1,-7.797356,6.044668,0.121778,0.007174,-0.017421,0.065673,-8.360237,7.125102,5.172924,-0.323508,-0.208262,0.381533,0.888343,150.753777,-52.564685,-0.229676,0.426684,-0.86842,0.105059,661.004822,94225.375,-0.230873,-0.069076,0,-289.931274,-289.891632,21.125,25.940784,0,5.32,0,202,,
2890,101,770146,770113,1,1,-7.796983,6.046113,0.132379,0.008108,-0.005692,0.066413,-8.360237,6.644576,5.65345,-0.158944,-1.437962,0.67835,0.889861,150.467333,-52.589871,-0.231824,0.426574,-0.867767,0.106173,660.987427,94226.40625,-0.617295,0.044944,0,-289.948669,-289.742767,21.125,25.936255,0,5.32,0,202,,
2891,101,772290,772282,1,1,-7.804073,6.034531,0.154445,0.043233,0.002134,0.06516,-7.399185,7.125102,5.172924,-0.056462,0.5428,0.551302,0.876889,150.321385,-52.509057,-0.232954,0.425836,-0.867768,0.106655,661.067932,94223.42969,-0.181967,-0.017531,0,-289.868164,-289.849304,21.125,25.936255,0,5.32,0,202,,
2892,101,774439,774412,1,1,-7.797174,6.056855,0.136867,-0.01464,-0.022172,0.07318,-6.918659,7.125102,5.65345,-0.286229,-1.104903,0.266452,1.091293,150.314008,-52.710472,-0.233621,0.426916,-0.867202,0.10547,661.100159,94221.48438,-0.615018,-0.022777,0,-289.835938,-289.76825,21.125,25.931725,0,5.32,0,202,,
2893,101,776640,776623,1,1,-7.803262,6.071455,0.142751,-0.009816,0.023857,0.087032,-8.360237,6.16405,4.211873,-0.771372,0.22467,-0.442336,0.846013,150.346028,-52.651155,-0.23252,0.427,-0.867259,0.107085,661.115601,94220.42188,-0.10169,0.077904,0,-289.820496,-289.820496,21.125,25.940784,0,5.32,0,202,,
2894,101,778722,778713,1,1,-7.780103,6.05236,0.125577,-0.009374,0.02484,0.056796,-9.321287,6.16405,5.172924,0.425773,0.120096,0.211347,0.723374,150.679943,-52.592112,-0.229594,0.427146,-0.868021,0.106641,661.117798,94224.38281,0.046996,0.026367,0,-289.818298,-289.740204,21.125,25.940784,0,5.32,0,202,,
2895,101,780806,780805,1,1,-7.782662,6.039514,0.115946,-0.017197,-0.018284,0.05082,-8.360237,4.722473,4.692398,-0.623583,-0.579301,-0.240297,0.935638,150.708643,-52.680754,-0.230087,0.427422,-0.867943,0.105103,661.203064,94220.46094,0.238199,-0.100967,0,-289.733032,-289.828979,21.125,25.936255,0,5.32,0,202,,
2896,101,782894,782853,1,1,-7.808612,6.034148,0.123717,-0.002305,-0.028147,0.068137,-9.321287,6.644576,4.211873,-0.574835,0.89951,0.122981,0.9938,150.789608,-52.721694,-0.229094,0.427903,-0.86791,0.105578,661.157593,94218.4375,-0.10953,0.054816,0,-289.778503,-289.828766,21.125,25.940784,0,5.32,0,202,,
2897,101,785067,785054,1,1,-7.807043,6.053769,0.126166,0.015403,-0.004873,0.078964,-8.840761,6.644576,6.614501,-0.261629,0.325904,-0.447691,0.813809,151.250728,-52.508671,-0.225688,0.426916,-0.86952,0.103647,661.096008,94219.42969,-0.241532,-0.107367,0,-289.840088,-289.887024,21.125,25.940784,0,5.32,0,202,,
2898,101,787157,787140,1,1,-7.761919,6.03111,0.134455,0.005839,-0.004224,0.02955,-10.762865,10.008257,1.328717,0.560444,-0.402084,0.481737,0.897832,151.506805,-52.539021,-0.224034,0.42724,-0.869971,0.102107,661.010437,94223.3125,0.038684,0.089177,0,-289.925659,-289.894379,21.125,25.949846,0,5.32,0,202,,
2899,101,789256,789240,1,1,-7.790785,6.049463,0.122173,-0.01687,0.011614,0.063423,-8.360237,7.125102,5.65345,0.490751,0.187693,-0.19926,0.789984,151.832961,-52.662189,-0.22105,0.428712,-0.87003,0.101938,661.091125,94226.36719,-0.155386,0.025018,0,-289.844971,-289.719208,21.125,25.940784,0,5.32,0,202,,
2900,101,791361,791340,1,1,-7.804658,6.049741,0.127846,0.002795,0.008574,0.074643,-8.360237,8.086153,5.65345,0.068304,-1.089203,0.276837,0.779751,152.267279,-52.590797,-0.21778,0.428617,-0.871097,0.100243,661.259644,94217.44531,0.461081,0.05447,0,-289.676453,-289.872314,21.125,25.940784,0,5.32,0,202,,
2901,101,793469,793443,1,1,-7.765815,6.042725,0.140578,-0.003445,0.020007,0.039821,-9.801813,6.16405,5.172924,-0.232756,-0.194874,0.01247,0.817217,152.445082,-52.562595,-0.216595,0.428505,-0.871563,0.099235,661.13446,94220.42188,0.338322,-0.006848,0,-289.801636,-289.915924,21.125,25.940784,0,5.32,0,202,,
2902,101,795585,795551,1,1,-7.786452,6.059059,0.12838,-0.017524,0.000541,0.065976,-7.879711,6.644576,5.172924,-0.046258,0.022579,0.413043,0.884457,153.099455,-52.603955,-0.21184,0.429327,-0.872652,0.096334,661.168518,94221.375,0.010103,0.015267,0,-289.767578,-289.790283,21.125,25.945316,0,5.32,0,202,,
2903,101,797706,797697,1,1,-7.790845,6.055516,0.136054,-0.016613,0.006316,0.067371,-7.879711,7.125102,5.172924,-0.351641,-0.211381,-0.155578,0.897901,153.118389,-52.652122,-0.211706,0.429687,-0.872517,0.096249,661.322327,94221.45313,0.354554,0.191827,0,-289.61377,-289.698639,21.25,25.936255,0,5.32,0,202,,
2904,101,799830,799810,1,1,-7.804947,6.036261,0.122766,0.000458,-0.005922,0.066557,-7.879711,7.125102,5.172924,0.29155,-0.619743,-0.110045,0.832128,153.137076,-52.640138,-0.211328,0.429735,-0.87254,0.096657,661.157471,94224.30469,0.461338,0.037774,0,-289.778625,-289.757721,21.125,25.949846,0,5.32,0,202,,
2905,101,802031,802030,1,1,-7.791133,6.053301,0.130013,-0.013348,0.00259,0.066164,-8.840761,6.644576,5.65345,-0.396945,-0.518559,1.003495,0.86855,153.352814,-52.620266,-0.209841,0.429722,-0.87303,0.095528,661.047668,94222.36719,0.156213,-0.090986,0,-289.888428,-289.926361,21.125,25.945316,0,5.32,0,202,,
2906,101,804156,804147,1,1,-7.811675,6.043242,0.127749,0.003389,0.005031,0.076212,-7.399185,5.202998,5.172924,-0.081042,1.380016,-0.551815,0.789898,153.380968,-52.623309,-0.209329,0.429915,-0.873002,0.096027,660.984863,94228.27344,-0.347507,0.190429,0,-289.951233,-289.79306,21.125,25.949846,0,5.32,0,202,,
2907,101,806458,806439,1,1,-7.789321,6.041838,0.12561,-0.012761,-0.028716,0.057606,-6.918659,12.410886,4.211873,-0.236215,-0.286157,-0.156561,1.016961,153.806093,-52.642628,-0.206313,0.429813,-0.873992,0.09399,661.232422,94219.23438,-0.683235,-0.062941,0,-289.703674,-289.756256,21.25,25.963438,0,5.32,0,202,,
2908,101,808591,808552,1,1,-7.796165,6.057197,0.139085,-0.000276,-0.004936,0.072659,-7.879711,6.644576,4.692398,-0.398002,-0.295154,0.341913,0.925309,154.279029,-52.545342,-0.203063,0.429914,-0.874971,0.09146,661.062134,94222.36719,0.052271,-0.130093,0,-289.873962,-289.866669,21.125,25.945316,0,5.32,0,202,,
2909,101,810732,810729,1,1,-7.771591,6.06585,0.133114,-0.012928,0.002484,0.058498,-10.282339,3.761421,5.65345,-0.493183,-0.296143,0.48333,0.879493,154.384296,-52.481647,-0.20214,0.429605,-0.875353,0.0913,661.146667,94223.3125,0.148017,0.048698,0,-289.789429,-289.802551,21.125,25.949846,0,5.32,0,202,,
2910,101,812880,812854,1,1,-7.7894,6.054524,0.130267,-0.021911,0.024547,0.065504,-7.879711,6.16405,5.65345,-0.151492,0.208105,-0.036536,0.758996,154.223267,-52.649543,-0.202779,0.430953,-0.87435,0.093125,661.064453,94226.28906,0.263756,0.116634,0,-289.871643,-289.87439,21.25,25.949846,0,5.32,0,202,,
2911,101,815033,815032,1,1,-7.792207,6.038619,0.124916,-0.005491,-0.016445,0.057941,-8.360237,6.644576,5.172924,-0.984601,0.093785,-0.255355,0.916782,154.277007,-52.611079,-0.202648,0.430362,-0.874753,0.092357,661.042725,94225.29688,-0.461268,0.047617,0,-289.893372,-289.765472,21.125,25.949846,0,5.32,0,202,,
2912,101,817244,817208,1,1,-7.789339,6.03986,0.123399,-0.003499,-0.010845,0.056424,-7.879711,6.16405,5.172924,0.102642,0.426456,0.779376,0.867131,154.541185,-52.574001,-0.200596,0.430435,-0.875287,0.091429,661.134155,94220.38281,0.461193,-0.026185,0,-289.801941,-289.841461,21.125,25.945316,0,5.32,0,202,,
2913,101,819402,819398,1,1,-7.786713,6.058776,0.122895,-0.003619,-0.013135,0.065944,-8.360237,7.125102,4.211873,-0.286128,-0.474104,0.685988,0.874227,154.89488,-52.471419,-0.198232,0.429999,-0.87625,0.089394,661.118225,94221.33594,-0.21044,0.042761,0,-289.817871,-289.856506,21.125,25.949846,0,5.32,0,202,,
2914,101,821475,821434,1,1,-7.807117,6.045791,0.131063,-0.060121,0.000394,0.074031,-6.438133,7.605628,3.731347,-0.550205,-0.039605,0.094493,1.001418,154.864144,-52.988167,-0.198305,0.431297,-0.875537,0.089962,661.05957,94227.20313,0.121812,0.060925,0,-289.876526,-289.822601,21.125,25.958906,0,5.32,0,202,,
2915,101,823559,823525,1,1,-7.7875,6.0758,0.106806,-0.024824,-0.005181,0.076817,-7.879711,11.449834,4.211873,0.371799,0.224119,0.138148,0.779553,155.143294,-52.4844,-0.195767,0.429536,-0.877006,0.08963,661.171509,94222.32813,-0.163052,0.036589,0,-289.764587,-289.761963,21.125,25.949846,0,5.32,0,202,,
2916,101,825649,825616,1,1,-7.80725,6.056092,0.113295,0.00572,-0.019048,0.080389,-7.879711,6.644576,5.172924,0.118177,-0.774686,-0.713478,0.817608,155.433741,-52.463072,-0.193559,0.430905,-0.876941,0.088487,661.150879,94225.21875,0.071407,0.023363,0,-289.785217,-289.734589,21.125,25.958906,0,5.32,0,202,,
2917,101,827748,827705,1,1,-7.788873,6.056307,0.132073,-0.006059,-0.004488,0.048865,-8.360237,6.644576,5.65345,-0.142601,-0.595361,0.211504,1.005734,155.312491,-52.475175,-0.195422,0.429972,-0.87713,0.087049,661.198975,94221.25781,0.477551,0.090623,0,-289.737122,-289.822632,21.125,25.958906,0,5.32,0,202,,
2918,101,829852,829808,1,1,-7.801473,6.061109,0.12206,-0.010222,-0.011792,0.079014,-7.399185,7.125102,4.692398,-0.626911,0.247536,-0.737776,0.8749,155.287097,-52.546759,-0.194909,0.43062,-0.876771,0.088596,661.151001,94224.23438,-0.003444,0.075501,0,-289.785095,-289.73999,21.125,25.958906,0,5.32,0,202,,
2919,101,831957,831956,1,1,-7.798296,6.062232,0.131917,-0.009479,0.009212,0.077326,-6.918659,7.125102,5.172924,0.006507,0.034224,-0.226596,0.810014,155.819605,-52.543115,-0.190871,0.43147,-0.87745,0.086508,661.013,94225.21875,-0.349847,-0.207745,0,-289.923096,-289.798859,21.25,25.958906,0,5.32,0,202,,
2920,101,834066,834062,1,1,-7.802924,6.034862,0.122055,-0.003061,0.013912,0.064083,-9.321287,6.644576,6.614501,0.524455,-0.424751,1.307054,0.705422,155.643427,-52.621724,-0.191764,0.432094,-0.876789,0.088108,661.178345,94222.32813,0.066187,-0.114009,0,-289.757751,-289.783081,21.125,25.949846,0,5.32,0,202,,
2921,101,836266,836232,1,1,-7.825751,6.036059,0.132419,0.042741,-0.019522,0.082912,-8.840761,9.527731,4.211873,0.392895,-0.660186,0.046547,0.843502,155.733723,-52.431011,-0.191738,0.430481,-0.877758,0.08639,661.055908,94228.15625,-0.63651,0.093093,0,-289.880188,-289.748413,21.25,25.963438,0,5.32,0,202,,
