index, checksum,uptime mp,uptime nav,  errorflag mp,errorflag NAV,  accel x, accel y, accel z, accelworld x, accelworld y, accelworld z, accelhighg x, accelhighg y, accelhighg z, gyro x, gyro y, gyro z, euler x, euler y, euler z, quat w, quat x, quat y, quat z, altitude, presusre, verticalvel,filtered vvel, maxalt, altitudeagl, filtered alt, imutemp, barotemp,state,battstate,pyros fired,pyros cont,pyros state, checksum2\r
2424, 101,4678,6263,1,1,-0.160691,-0.004007,9.820919,0.025518,0.016177,0.021188,10.380273,2.965941,2.515490,-0.214467,0.457027,-0.194663,89.896867,178.913499,179.107450,0.706365,-0.707742,0.001186,-0.012213,651.810913,94327.109375,0.041981,-0.261506,0.302795,0.047424,0.045473,28.250000,33.939384,0,4.750000,0,0,0, 202
2425, 101,8419,8386,1,1,-0.158648,-0.015813,9.822985,-0.001981,0.001475,0.023278,9.899747,2.965941,1.554438,-0.206448,-0.320172,-0.298845,89.915663,179.084773,178.979903,0.706532,-0.707579,-0.000591,-0.012005,652.025269,94326.968750,0.006923,0.110372,0.441833,0.261780,0.286198,28.250000,33.948452,0,4.750000,0,0,0, 202
2426, 101,10556,10554,1,1,-0.160859,-0.018065,9.811510,0.008983,0.007591,0.011838,8.938695,2.965941,1.554438,-1.214197,0.228197,-0.221254,89.875638,179.005762,178.450030,0.706165,-0.707865,-0.003446,-0.015694,652.020874,94325.171875,0.497654,-0.044296,0.470764,0.257385,0.162920,28.375000,33.998318,0,4.750000,0,0,0, 202
2427, 101,12693,12692,1,1,-0.152368,-0.016791,9.818015,-0.011853,-0.006473,0.018202,9.899747,3.446467,1.554438,0.289604,-0.774980,0.188176,89.972033,179.177090,177.926032,0.706708,-0.707237,-0.007724,-0.017872,651.711792,94331.640625,-0.180136,0.006487,0.470764,-0.051697,0.131034,28.500000,34.039120,0,4.750000,0,0,0, 202
2428, 101,14923,14893,1,1,-0.158093,-0.020354,9.802822,0.022249,-0.001585,0.003093,9.419221,2.965941,1.554438,0.190013,-0.162523,-0.254483,89.928784,178.941886,177.619875,0.706319,-0.707542,-0.008895,-0.020486,651.988770,94326.945312,0.721061,0.135519,0.470764,0.225281,0.073221,28.375000,34.079918,0,4.750000,0,0,0, 202
2429, 101,17063,17023,1,1,-0.162988,-0.011818,9.808349,0.002301,0.013291,0.008701,9.419221,3.446467,1.554438,-0.593712,0.471675,0.109696,89.900097,179.032317,177.190256,0.706106,-0.707631,-0.011387,-0.023295,651.891541,94330.218750,0.186580,0.133345,0.470764,0.128052,0.137141,28.500000,34.129784,0,4.750000,0,0,0, 202
2430, 101,19204,19161,1,1,-0.154941,0.083969,9.806511,-0.025371,-0.136654,0.002746,9.419221,3.926993,1.073912,1.176259,-0.125685,0.357596,90.004442,179.005202,177.016975,0.706708,-0.706973,-0.012267,-0.024541,651.698303,94330.445312,-0.450998,-0.017493,0.470764,-0.065186,0.081496,28.500000,34.179646,0,4.760000,0,0,0, 202
2431, 101,21356,21340,1,1,-0.172797,0.063896,9.812188,-0.076085,0.133210,0.011718,8.938695,3.926993,1.073912,0.401938,-0.376700,0.460131,89.651717,179.458016,176.759995,0.708802,-0.704792,-0.014101,-0.025842,651.590942,94328.789062,-0.585351,-0.178936,0.470764,-0.172546,-0.103538,28.625000,34.220444,0,4.760000,0,0,0, 202
2432, 101,23558,23530,1,1,-0.107647,0.150724,9.828947,0.013702,0.028626,0.029641,7.497117,8.251725,5.879170,0.723173,1.106505,-0.306399,90.757546,179.362475,175.564712,0.711071,-0.702033,-0.023223,-0.031447,651.719666,94329.296875,-0.395619,0.086042,0.470764,-0.043823,-0.018174,28.625000,34.252178,0,4.760000,0,0,0, 202
2433, 101,25646,25633,1,1,-0.144770,0.139888,9.812147,0.025981,0.059023,0.013000,9.899747,3.446467,1.073912,0.241982,-0.415579,-0.193435,90.535995,179.069788,175.494334,0.709609,-0.703451,-0.021902,-0.033633,651.821228,94331.625000,0.532689,0.202802,0.470764,0.057739,0.103509,28.750000,34.297508,0,4.760000,0,0,0, 202
2434, 101,27733,27693,1,1,-0.160141,0.101150,9.807868,0.001214,-0.003656,0.008696,8.938695,4.407518,1.554438,-0.150074,0.675575,0.251047,90.688663,179.110428,175.180104,0.710464,-0.702434,-0.024036,-0.035362,652.012329,94328.945312,0.053521,0.193085,0.470764,0.248840,0.355298,28.750000,34.338303,0,4.760000,0,0,0, 202
2435, 101,29827,29801,1,1,-0.145752,0.078314,9.802010,0.003327,-0.003885,0.002405,8.938695,3.926993,1.554438,-0.216080,0.188832,-0.241105,90.557728,179.174959,174.658169,0.709514,-0.703113,-0.027679,-0.038171,652.339783,94322.203125,0.266877,0.141487,0.576294,0.576294,0.456291,28.750000,34.379101,0,4.760000,0,0,0, 202
2436, 101,32012,32007,1,1,-0.166446,0.072169,9.817269,0.021769,-0.024533,0.017891,9.899747,3.926993,1.073912,-0.118008,-0.130799,-0.520287,90.652552,178.944891,174.678441,0.709273,-0.703356,-0.026842,-0.038740,652.178162,94321.695312,0.009175,-0.279334,0.785095,0.414673,0.404301,28.875000,34.410831,0,4.760000,0,0,0, 202
2437, 101,34103,34068,1,1,-0.160022,0.097641,9.823551,0.005172,0.003049,0.024338,8.938695,3.446467,1.073912,-0.041439,1.128880,-0.210074,90.635524,179.093284,174.690435,0.709974,-0.702658,-0.026949,-0.038490,652.048462,94324.812500,-0.430371,-0.137998,0.785095,0.284973,0.312924,28.875000,34.469757,0,4.760000,0,0,0, 202
2438, 101,36203,36180,1,1,-0.150463,0.099976,9.806389,0.011138,0.007813,0.007043,9.419221,3.926993,2.034964,0.314463,-0.142077,0.364648,90.619098,179.115209,174.560046,0.710109,-0.702455,-0.028235,-0.038807,652.344055,94321.187500,-0.144213,0.082182,0.785095,0.580566,0.525295,28.875000,34.506020,0,4.760000,0,0,0, 202
2439, 101,38309,38296,1,1,-0.174225,0.089602,9.817728,-0.013836,-0.003523,0.018672,9.899747,4.407518,2.515490,-0.072621,0.944911,-0.026802,90.639991,179.119880,174.405083,0.709913,-0.702554,-0.028862,-0.040096,652.292419,94324.804688,-0.025999,0.002490,0.785095,0.528931,0.514932,28.875000,34.533218,0,4.750000,0,0,0, 202
2440, 101,40424,40418,1,1,-0.147151,0.113611,9.807174,-0.011652,0.002244,0.007928,8.938695,3.446467,0.593386,0.183309,-0.260521,-0.196002,90.734685,179.280554,174.150344,0.710460,-0.701858,-0.031386,-0.040716,652.395630,94321.031250,0.114767,-0.013408,0.834106,0.632141,0.627942,29.000000,34.578545,0,4.750000,0,0,0, 202
2441, 101,42537,42528,1,1,-0.155304,0.091261,9.808326,-0.000237,0.008268,0.008976,9.419221,4.407518,1.554438,0.157001,0.066815,0.077446,90.575992,179.154455,174.043424,0.709669,-0.702578,-0.031293,-0.042127,652.219177,94322.468750,-0.724326,0.024742,0.839905,0.455688,0.567460,29.000000,34.614807,0,4.750000,0,0,0, 202
2442, 101,44657,44651,1,1,-0.171810,0.086859,9.807739,-0.019992,0.016052,0.008595,8.938695,3.926993,1.073912,-0.439500,-0.103434,-0.560195,90.517649,179.172965,173.881412,0.708992,-0.703157,-0.032447,-0.042980,652.103394,94323.914062,-0.006847,-0.117983,0.839905,0.339905,0.334809,29.000000,34.651066,0,4.760000,0,0,0, 202
2443, 101,46783,46782,1,1,-0.156621,0.080099,9.812459,-0.005022,-0.025963,0.013000,9.419221,3.446467,1.554438,-0.266266,-0.570790,0.667776,90.720335,179.174099,173.458747,0.710071,-0.701778,-0.034967,-0.045650,652.143982,94326.296875,-0.739323,0.098623,0.839905,0.380493,0.563554,29.000000,34.691860,0,4.760000,0,0,0, 202
2444, 101,49004,48979,1,1,-0.142405,0.017645,9.767142,0.009113,-0.074390,-0.033091,9.419221,6.810148,3.957067,0.193744,0.866766,0.076123,90.635716,179.128801,173.360720,0.707104,-0.704698,-0.035774,-0.046089,652.280762,94323.601562,-0.229180,-0.067589,0.839905,0.517273,0.577108,29.125000,34.732655,0,4.750000,0,0,0, 202
2445, 101,51135,51097,1,1,-0.161132,0.095366,9.822650,-0.004653,-0.006060,0.023431,10.380273,4.888044,1.073912,0.373588,0.215973,0.478558,90.698546,179.159550,173.221698,0.709836,-0.701844,-0.036337,-0.047201,652.376953,94323.875000,-0.243218,0.008144,0.839905,0.613464,0.626640,29.125000,34.777981,0,4.750000,0,0,0, 202
2446, 101,53269,53233,1,1,-0.166986,0.089121,9.803578,-0.010675,0.005926,0.004398,9.419221,4.407518,1.554438,0.267965,-0.147126,0.688697,90.597145,179.154455,173.254701,0.709394,-0.702308,-0.035788,-0.047353,652.605591,94313.421875,0.606348,0.063942,0.842102,0.842102,0.615150,29.250000,34.796108,0,4.750000,0,0,0, 202
2447, 101,55411,55372,1,1,-0.155957,0.156848,9.829564,0.008088,-0.020649,0.031027,9.419221,3.926993,1.554438,-0.455425,1.027208,-0.881495,91.138602,179.162351,172.982450,0.712427,-0.699035,-0.037633,-0.048810,652.334961,94322.984375,-0.380188,0.074163,0.842102,0.571472,0.624656,29.250000,34.832367,0,4.750000,0,0,0, 202
2448, 101,57553,57510,1,1,-0.163520,0.094539,9.791205,-0.000490,-0.004553,-0.007819,8.938695,5.849096,1.073912,0.108973,-0.121748,-0.069988,90.712746,179.207662,172.846229,0.709785,-0.701616,-0.038929,-0.049237,652.203857,94325.437500,-0.629482,-0.035940,0.926880,0.440369,0.617082,29.250000,34.868629,0,4.760000,0,0,0, 202
2449, 101,59702,59697,1,1,-0.152479,0.090521,9.801243,0.017084,-0.012360,0.001824,9.419221,4.407518,1.554438,0.722772,0.245833,-0.508956,90.711667,179.084377,172.602937,0.709618,-0.701582,-0.039655,-0.051497,652.445374,94321.718750,0.646326,0.129941,0.926880,0.681885,0.609764,29.250000,34.909420,0,4.750000,0,0,0, 202
2450, 101,61856,61831,1,1,-0.154435,0.076547,9.812449,0.010414,0.086784,0.012573,9.419221,3.926993,1.554438,0.115206,0.009506,-0.110776,90.057806,179.106056,172.245746,0.708277,-0.702651,-0.042405,-0.053167,652.384277,94321.195312,0.385154,0.143743,0.926880,0.620789,0.604376,29.375000,34.941147,0,4.760000,0,0,0, 202
2451, 101,64066,64030,1,1,-0.163005,0.105520,9.801038,-0.004988,-0.007666,0.001957,9.899747,3.926993,2.034964,0.467729,-0.331433,-0.013172,90.788896,179.172077,171.950313,0.709827,-0.700833,-0.044156,-0.055031,652.411133,94320.671875,-0.157831,0.038171,0.926880,0.647644,0.623220,29.375000,34.972874,0,4.750000,0,0,0, 202
2452, 101,66252,66244,1,1,-0.153483,0.071573,9.808541,0.011591,-0.025066,0.008964,8.458169,5.368570,2.034964,-1.271429,0.599497,-0.319831,90.689688,179.105701,171.684318,0.709058,-0.701370,-0.045420,-0.057045,652.435059,94322.023438,0.180087,0.046775,0.926880,0.671570,0.620344,29.375000,35.013664,0,4.750000,0,0,0, 202
2453, 101,68335,68302,1,1,-0.156451,0.097819,9.803785,-0.007014,0.004696,0.004518,9.419221,3.926993,1.554438,0.054526,-0.598555,1.279493,90.670420,179.219041,171.680302,0.708994,-0.701441,-0.046157,-0.056369,652.378662,94322.437500,-0.140285,-0.061883,0.926880,0.615173,0.602079,29.375000,35.049923,0,4.750000,0,0,0, 202
2454, 101,70427,70405,1,1,-0.171859,0.093130,9.801395,-0.009664,0.013910,0.002330,8.938695,2.485415,1.554438,-0.232966,0.698884,-0.394137,90.607725,179.145111,171.360048,0.708834,-0.701297,-0.047342,-0.059121,652.324036,94324.882812,0.118201,0.074024,0.926880,0.560547,0.521158,29.375000,35.086178,0,4.750000,0,0,0, 202
2455, 101,72523,72500,1,1,-0.162994,0.089016,9.800817,-0.020557,-0.001534,0.001555,9.419221,4.407518,1.554438,0.262093,-1.785208,0.442212,90.666574,179.256416,171.354980,0.708722,-0.701410,-0.047723,-0.058817,652.207642,94326.164062,-0.136026,0.173093,0.926880,0.444153,0.535499,29.500000,35.131500,0,4.750000,0,0,0, 202
2456, 101,74624,74611,1,1,-0.157902,0.107388,9.811197,0.012196,0.008969,0.012044,8.938695,4.407518,0.593386,-0.097354,1.040120,-1.041889,90.709167,179.114293,171.141400,0.708904,-0.701022,-0.048786,-0.060360,652.162292,94324.687500,-0.099853,-0.161214,0.926880,0.398804,0.435094,29.500000,35.158695,0,4.750000,0,0,0, 202
2457, 101,76729,76725,1,1,-0.162323,0.111188,9.810710,0.000998,0.037513,0.011611,10.380273,3.926993,2.034964,-0.557492,0.502931,-0.472366,90.568950,179.158061,171.104927,0.708049,-0.701855,-0.049354,-0.060257,652.195435,94324.007812,0.270366,-0.166724,0.926880,0.431946,0.346862,29.500000,35.199482,0,4.750000,0,0,0, 202
2458, 101,78838,78800,1,1,-0.151159,0.107081,9.792185,0.003624,0.007730,-0.007067,10.380273,2.965941,2.515490,-0.398030,0.122718,-0.479964,90.710984,179.202430,171.064724,0.708920,-0.700940,-0.049800,-0.060296,652.258606,94320.351562,0.384261,0.011451,0.926880,0.495117,0.392704,29.500000,35.235741,0,4.750000,0,0,0, 202
2459, 101,80958,80925,1,1,-0.158132,0.101072,9.813905,0.008080,0.002964,0.014695,8.938695,3.446467,2.034964,0.420074,-0.055192,0.175953,90.712227,179.135494,170.831309,0.708768,-0.700859,-0.050812,-0.062149,652.429688,94321.773438,0.376715,0.163541,0.926880,0.666199,0.516269,29.625000,35.271996,0,4.750000,0,0,0, 202
2460, 101,83164,83143,1,1,-0.153101,0.150202,9.823944,0.011567,0.066222,0.025055,7.497117,4.407518,2.996016,-0.475394,1.092264,-0.368844,90.618954,179.188182,170.972025,0.710457,-0.699296,-0.050514,-0.060693,652.190369,94328.046875,0.221496,0.182505,0.926880,0.426880,0.451062,29.625000,35.321846,0,4.750000,0,0,0, 202
2461, 101,85279,85263,1,1,-0.164432,0.100749,9.804278,0.007437,-0.000526,0.005172,8.938695,3.446467,1.073912,-0.510544,0.176567,-0.403559,90.736440,179.101016,170.890363,0.708934,-0.700751,-0.050465,-0.061762,652.259521,94319.453125,0.405183,0.003518,0.926880,0.496033,0.395094,29.750000,35.349037,0,4.750000,0,0,0, 202
2462, 101,87401,87386,1,1,-0.146828,0.102332,9.804112,0.009265,0.015983,0.004728,9.419221,3.446467,1.554438,-0.160438,0.077373,0.286775,90.635381,179.195778,170.697765,0.708258,-0.701247,-0.052044,-0.062572,652.293701,94322.750000,0.668146,0.176260,0.926880,0.530212,0.431798,29.750000,35.394356,0,4.750000,0,0,0, 202
2463, 101,89529,89514,1,1,-0.141421,0.133217,9.822927,0.033001,0.030160,0.023747,9.899747,3.446467,2.515490,-0.683474,0.289176,-0.385044,90.725239,179.120564,170.606091,0.708716,-0.700684,-0.052090,-0.063640,652.305420,94319.242188,-0.372621,-0.066627,0.926880,0.541931,0.559479,29.750000,35.421547,0,4.750000,0,0,0, 202
2464, 101,91818,91814,1,1,-0.168222,0.100126,9.808793,-0.004458,0.005230,0.009744,9.419221,1.043838,1.554438,-0.619546,0.409881,-0.450081,90.708833,179.153881,170.468490,0.708557,-0.700707,-0.053147,-0.064279,652.231873,94326.453125,0.032994,0.192436,0.926880,0.468384,0.558881,29.875000,35.475929,0,4.750000,0,0,0, 202
2465, 101,93956,93947,1,1,-0.158173,0.088723,9.797266,0.006108,-0.012918,-0.002066,9.899747,3.926993,2.034964,-0.126030,0.135087,0.282165,90.742287,179.139606,170.331531,0.708676,-0.700443,-0.053877,-0.065229,652.121704,94326.218750,-0.289079,-0.149717,0.926880,0.358215,0.415962,29.750000,35.489525,0,4.750000,0,0,0, 202
2466, 101,96104,96087,1,1,-0.139973,0.084973,9.796751,0.001998,-0.014591,-0.002892,8.938695,3.926993,1.073912,-0.484753,-1.137562,0.417185,90.713293,179.265391,170.279293,0.708540,-0.700537,-0.054991,-0.064770,652.343201,94323.640625,0.137777,0.269228,0.926880,0.579712,0.553223,29.875000,35.521248,0,4.750000,0,0,0, 202
2467, 101,98258,98229,1,1,-0.165052,0.100332,9.799964,-0.025341,-0.007083,0.000832,8.458169,6.810148,0.593386,0.471415,0.029519,-0.517958,90.785201,179.298572,170.089920,0.708586,-0.700279,-0.055520,-0.066580,652.304749,94318.015625,-0.674877,-0.181496,0.926880,0.541260,0.602522,30.000000,35.552971,0,4.750000,0,0,0, 202
2468, 101,100512,100486,1,1,-0.171541,0.077575,9.817176,-0.013913,0.022947,0.017944,9.419221,2.485415,1.073912,-0.372601,-0.796412,0.379344,90.487459,179.175123,169.889891,0.707576,-0.701078,-0.056428,-0.068127,652.617310,94320.367188,0.242826,0.300419,0.970032,0.853821,0.757215,29.875000,35.593754,0,4.750000,0,0,0, 202
2469, 101,102662,102620,1,1,-0.156310,0.106336,9.814245,0.003774,-0.005838,0.008859,8.938695,3.926993,1.554438,0.368936,0.276390,0.241762,90.731222,179.129579,169.892554,0.708348,-0.700305,-0.056504,-0.067999,652.541199,94319.742188,0.736230,0.004963,0.970032,0.777710,0.643346,30.000000,35.630009,0,4.750000,0,0,0, 202
2470, 101,104870,104863,1,1,-0.148151,0.097230,9.820630,0.019776,0.005404,0.021207,9.419221,3.926993,2.034964,-0.832230,0.167173,-0.438681,90.679880,179.134579,169.789596,0.707975,-0.700569,-0.057195,-0.068579,652.430054,94318.179688,0.216904,-0.057419,0.970032,0.666565,0.608256,30.000000,35.661732,0,4.750000,0,0,0, 202
2471, 101,106950,106919,1,1,-0.170325,0.086546,9.808796,-0.003842,0.001818,0.009655,8.938695,3.446467,0.593386,-0.180115,-0.492378,-0.305572,90.667940,179.136601,169.481172,0.707716,-0.700485,-0.059100,-0.070466,652.416199,94323.742188,-0.311983,0.093751,0.970032,0.652710,0.670780,30.000000,35.693451,0,4.750000,0,0,0, 202
2472, 101,109046,109026,1,1,-0.163960,0.090867,9.786789,-0.004045,-0.001871,-0.012417,9.419221,3.926993,1.554438,0.089825,0.647589,0.598574,90.709659,179.177555,169.444194,0.707900,-0.700258,-0.059430,-0.070593,652.341125,94323.273438,-0.192603,0.015247,0.970032,0.577637,0.642116,30.125000,35.720642,0,4.750000,0,0,0, 202
2473, 101,111140,111129,1,1,-0.164583,0.097620,9.802079,-0.010792,0.022078,0.002916,9.419221,3.926993,1.073912,0.475262,-0.477305,-0.008342,90.607172,179.221145,169.503821,0.707410,-0.700827,-0.059522,-0.069779,652.531250,94318.648438,0.487432,-0.004689,0.970032,0.767761,0.593982,30.125000,35.752361,0,4.750000,0,0,0, 202
2474, 101,113235,113227,1,1,-0.159080,0.094761,9.802125,0.010451,0.012482,0.002860,9.419221,3.926993,2.034964,-0.278369,0.147448,0.523185,90.643372,179.127694,169.334610,0.707905,-0.700131,-0.060251,-0.071108,652.375183,94317.945312,-0.036688,-0.044038,0.970032,0.611694,0.497932,30.125000,35.793144,0,4.750000,0,0,0, 202
2475, 101,115334,115295,1,1,-0.161081,0.086667,9.811540,0.003291,-0.005643,0.012242,9.419221,3.926993,1.554438,-0.329909,0.854376,-0.722391,90.704899,179.150589,169.293151,0.707834,-0.700151,-0.060313,-0.071561,652.153748,94322.406250,0.142257,-0.121568,0.970032,0.390259,0.350746,30.250000,35.829395,0,4.750000,0,0,0, 202
2476, 101,117527,117517,1,1,-0.151139,0.095122,9.798196,-0.000770,-0.000926,-0.001177,9.419221,4.888044,1.554438,-0.692369,0.123273,-0.930774,90.715977,179.239395,169.299680,0.707961,-0.700039,-0.060815,-0.070985,652.113037,94324.828125,0.302861,-0.168582,0.970032,0.349548,0.305173,30.125000,35.865646,0,4.750000,0,0,0, 202
2477, 101,119628,119587,1,1,-0.158741,0.084219,9.812757,0.000841,0.000189,0.013403,9.899747,4.888044,0.593386,0.028205,0.097418,-0.744420,90.658091,179.178907,169.019356,0.707393,-0.700279,-0.062191,-0.073054,652.403442,94321.375000,0.653038,-0.016160,0.970032,0.639954,0.422219,30.250000,35.888306,0,4.740000,0,0,0, 202
2478, 101,121736,121706,1,1,-0.163983,0.093384,9.803152,-0.000534,0.013659,0.003959,9.419221,2.965941,1.554438,-0.049450,0.127275,-0.386326,90.638229,179.166094,169.033385,0.707273,-0.700416,-0.062038,-0.073035,652.649292,94318.632812,0.948251,0.372142,0.970032,0.885803,0.707078,30.250000,35.929085,0,4.740000,0,0,0, 202
2479, 101,123857,123819,1,1,-0.160572,0.097588,9.814269,-0.004751,0.002874,0.015066,10.380273,2.965941,1.073912,-0.505595,0.960083,0.376862,90.719290,179.214547,169.136808,0.707864,-0.699945,-0.061655,-0.072145,652.396851,94325.203125,-0.732577,0.048911,1.068298,0.633362,0.854334,30.375000,35.960804,0,4.740000,0,0,0, 202
2480, 101,125975,125944,1,1,-0.164487,0.083748,9.791733,-0.011325,-0.003938,-0.007535,9.899747,4.407518,2.034964,0.180500,0.075568,-0.421424,90.688895,179.216009,168.915086,0.707538,-0.700011,-0.063037,-0.073489,652.924072,94311.414062,0.566649,0.030632,1.160583,1.160583,0.963213,30.375000,35.992523,0,4.740000,0,0,0, 202
2481, 101,128104,128072,1,1,-0.161703,0.098533,9.810170,0.016682,0.015972,0.010970,9.419221,2.965941,1.554438,-0.897910,1.640433,-0.559881,90.655134,179.088503,168.760560,0.707720,-0.699639,-0.063696,-0.074707,652.557678,94320.093750,-0.738025,-0.218001,1.294617,0.794189,0.913180,30.375000,36.019711,0,4.740000,0,0,0, 202
2482, 101,130237,130205,1,1,-0.156142,0.097117,9.806376,-0.007845,-0.048505,0.006977,10.380273,3.446467,1.554438,0.888806,-0.817180,-0.324773,91.017605,179.261689,168.760177,0.707891,-0.699467,-0.063967,-0.074463,652.990051,94314.523438,0.511158,0.145150,1.294617,1.226562,1.113396,30.375000,36.046898,0,4.740000,0,0,0, 202
2483, 101,132372,132335,1,1,-0.156419,0.091539,9.804860,-0.006251,-0.006316,0.005531,8.938695,5.368570,1.073912,0.251748,-1.257874,-0.173042,90.738537,179.243357,168.838793,0.707810,-0.699647,-0.063640,-0.073820,652.933533,94314.906250,-0.189841,-0.026535,1.294617,1.170044,1.079388,30.375000,36.083149,0,4.740000,0,0,0, 202
2484, 101,134610,134574,1,1,-0.158969,0.123564,9.824727,0.026088,0.034014,0.025696,9.419221,4.407518,1.073912,-0.442353,1.131980,-0.544666,90.694933,179.085962,168.317199,0.708277,-0.698530,-0.066595,-0.077233,653.016113,94312.226562,0.289489,0.020215,1.358337,1.252625,1.134194,30.375000,36.119396,0,4.740000,0,0,0, 202
2485, 101,136746,136709,1,1,-0.162167,0.089697,9.805571,0.011557,0.013287,0.006306,9.419221,5.368570,2.996016,-0.476135,-0.160865,-0.780592,90.629029,179.112121,168.203353,0.706632,-0.700037,-0.066783,-0.078480,653.149292,94311.992188,-0.449831,-0.187776,1.813416,1.385803,1.451964,30.500000,36.132992,0,4.740000,0,0,0, 202
2486, 101,138892,138853,1,1,-0.164842,0.115766,9.830689,0.007779,-0.035412,0.031686,9.419221,4.888044,1.554438,-0.601124,0.683748,0.243064,91.067315,179.156764,167.899451,0.709124,-0.697123,-0.068608,-0.080345,653.277466,94307.109375,0.549553,-0.277115,1.813416,1.513977,1.279708,30.500000,36.178303,0,4.740000,0,0,0, 202
2487, 101,141041,141040,1,1,-0.172312,0.088693,9.817472,-0.013436,0.014849,0.018365,8.938695,6.329622,0.112860,-0.504796,-0.779502,-0.525914,90.638810,179.210845,167.331083,0.706146,-0.699385,-0.072712,-0.083261,653.233398,94309.601562,0.133862,-0.339160,1.816284,1.469910,1.369006,30.625000,36.210018,0,4.740000,0,0,0, 202
2488, 101,143197,143176,1,1,-0.150436,0.091185,9.814876,-0.008438,-0.004353,0.015447,10.380273,3.926993,1.554438,-0.418803,-0.899869,-0.363753,90.739548,179.311440,167.153430,0.706531,-0.698754,-0.074090,-0.084067,653.342102,94309.125000,1.081101,0.285372,1.816284,1.578613,1.449347,30.625000,36.237206,0,4.740000,0,0,0, 202
2489, 101,145411,145378,1,1,-0.166089,0.081490,9.813710,-0.003896,-0.008389,0.014450,9.419221,4.407518,2.034964,-0.267212,0.653971,-1.027268,90.731174,179.185478,166.958975,0.706416,-0.698593,-0.074757,-0.085769,653.658020,94305.578125,0.663220,0.106931,1.894531,1.894531,1.718028,30.500000,36.264393,0,4.740000,0,0,0, 202
2490, 101,147499,147481,1,1,-0.145914,0.095660,9.803576,0.033827,-0.001893,0.004070,8.458169,4.888044,1.554438,-0.725570,0.490495,0.216682,90.751398,179.101234,166.686218,0.706344,-0.698287,-0.076976,-0.086873,653.226868,94310.187500,-0.594696,-0.312211,1.993591,1.463379,1.539869,30.625000,36.291576,0,4.740000,0,0,0, 202
2491, 101,149591,149590,1,1,-0.150550,0.097832,9.806644,-0.017065,-0.003042,0.007273,9.899747,4.407518,2.034964,-0.173687,-0.290495,0.060151,90.780994,179.380206,166.325160,0.706384,-0.697725,-0.079783,-0.088525,653.536011,94309.539062,-0.341241,-0.091147,2.121826,1.772522,1.875162,30.750000,36.327824,0,4.740000,0,0,0, 202
2492, 101,151770,151761,1,1,-0.189332,0.138046,9.808288,-0.138049,0.060850,0.008926,9.899747,3.926993,1.554438,-0.239646,-0.270636,-0.171011,90.688349,179.921089,166.398353,0.706279,-0.697959,-0.082743,-0.084716,653.559937,94311.093750,-0.256091,-0.099744,2.151855,1.796448,1.889590,30.750000,36.355011,0,4.740000,0,0,0, 202
2493, 101,153864,153860,1,1,-0.198552,0.136625,9.809443,-0.120984,0.047852,0.010541,7.977643,8.732251,5.879170,0.007015,-0.416230,0.216238,90.770127,179.768680,166.313863,0.707641,-0.696398,-0.078196,-0.090323,653.865540,94305.671875,-0.123041,-0.073425,2.207336,2.102051,2.058088,30.625000,36.373135,0,4.740000,0,0,0, 202
2494, 101,155958,155925,1,1,-0.146467,0.087893,9.797538,-0.032576,-0.021499,-0.002051,9.419221,3.926993,1.554438,-0.353829,-0.473264,-0.355819,90.826462,179.478711,166.412136,0.706802,-0.697435,-0.079827,-0.087421,653.402710,94310.117188,0.465515,-0.061496,2.207336,1.639221,1.604969,30.750000,36.409382,0,4.740000,0,0,0, 202
2495, 101,158061,158038,1,1,-0.134829,0.065664,9.809226,0.019379,-0.031951,0.009301,9.419221,4.407518,0.593386,-0.214466,-0.249015,0.003974,90.744425,179.211501,166.408680,0.705152,-0.699090,-0.079012,-0.088268,653.487549,94305.554688,-0.275566,0.031642,2.207336,1.724060,1.701382,30.625000,36.436565,0,4.740000,0,0,0, 202
2496, 101,160171,160154,1,1,-0.144341,0.106409,9.837163,0.019411,0.028327,0.037737,9.899747,4.407518,1.554438,-0.437720,0.552168,-0.144033,90.638885,179.220230,166.068345,0.706178,-0.697548,-0.080974,-0.090458,653.285217,94309.140625,-0.313747,-0.176164,2.207336,1.521729,1.612888,30.750000,36.463749,0,4.740000,0,0,0, 202
2497, 101,162286,162271,1,1,-0.145153,0.083767,9.801164,-0.007084,-0.033903,0.001535,10.380273,3.926993,1.554438,-0.100754,-0.306332,-0.071661,90.879492,179.337531,165.919720,0.706632,-0.696862,-0.081909,-0.091353,653.437256,94309.992188,0.385191,0.173047,2.207336,1.673767,1.624256,30.750000,36.472813,0,4.740000,0,0,0, 202
2498, 101,164408,164380,1,1,-0.169638,0.072931,9.814295,-0.021176,-0.054642,0.014857,9.899747,2.965941,2.515490,0.200800,-1.104217,-0.057865,90.975907,179.269079,165.709064,0.705157,-0.698015,-0.082246,-0.093616,653.274170,94309.992188,0.246397,0.049167,2.207336,1.510681,1.471341,30.750000,36.472813,0,4.740000,0,0,0, 202
2499, 101,166536,166506,1,1,-0.153254,0.089901,9.820304,-0.000451,0.004917,0.020910,10.380273,5.368570,2.034964,-0.487994,-0.331827,-0.294980,90.699462,179.264913,165.768172,0.705357,-0.697915,-0.082528,-0.092599,653.287659,94312.117188,-0.144162,0.024470,2.207336,1.524170,1.556247,30.750000,36.468281,0,4.740000,0,0,0, 202
2500, 101,168751,168742,1,1,-0.150094,0.078696,9.815340,0.031450,-0.002186,0.015752,10.380273,3.926993,2.034964,-0.387607,0.840139,0.067343,90.676594,179.083052,165.515633,0.704863,-0.698007,-0.082964,-0.095242,653.389526,94309.664062,0.439052,-0.043220,2.207336,1.626038,1.520635,30.750000,36.490936,0,4.740000,0,0,0, 202
2501, 101,170873,170866,1,1,-0.149077,0.150664,9.814713,0.004556,0.018873,0.015983,8.938695,4.407518,0.593386,0.258786,0.051031,-0.576760,90.959371,179.351574,165.473777,0.706768,-0.696035,-0.084642,-0.094076,653.271179,94308.406250,-0.141931,-0.160622,2.207336,1.507690,1.505764,30.750000,36.504528,0,4.740000,0,0,0, 202
2502, 101,173001,172994,1,1,-0.162624,0.139276,9.816629,0.003254,0.026385,0.017928,8.938695,3.926993,1.073912,-0.387261,0.472185,-0.098043,90.869868,179.264721,165.551423,0.706217,-0.696709,-0.083707,-0.094059,653.331665,94307.992188,0.031346,0.063853,2.207336,1.568176,1.507121,30.750000,36.527180,0,4.740000,0,0,0, 202
2503, 101,175135,175113,1,1,-0.172843,0.102894,9.810608,-0.017955,0.005760,0.011652,9.419221,4.407518,1.554438,-0.312793,-0.961148,0.567579,90.801559,179.278901,165.443601,0.705831,-0.696923,-0.083907,-0.095190,653.332031,94311.578125,0.474053,0.269975,2.207336,1.568542,1.483138,30.875000,36.554363,0,4.740000,0,0,0, 202
2504, 101,177280,177253,1,1,-0.166471,0.103702,9.809584,-0.015748,0.019231,0.010513,9.419221,3.446467,1.073912,0.041957,-1.574465,0.221327,90.720205,179.305252,165.297804,0.705676,-0.696852,-0.085035,-0.095849,653.342163,94310.398438,-0.191615,-0.000764,2.207336,1.578674,1.532056,30.875000,36.563427,0,4.730000,0,0,0, 202
2505, 101,179432,179398,1,1,-0.169059,0.079612,9.804615,0.008513,0.010569,0.005386,7.497117,4.888044,0.593386,-0.515328,0.949577,-0.605492,90.639957,179.113706,165.223697,0.704797,-0.697620,-0.085187,-0.096590,653.262878,94309.820312,-0.771956,-0.128234,2.207336,1.499390,1.594953,30.875000,36.595142,0,4.730000,0,0,0, 202
2506, 101,181582,181540,1,1,-0.161281,0.080483,9.804867,0.002997,-0.005160,0.005522,9.419221,4.888044,2.034964,-0.150863,-0.447617,-0.511129,90.724515,179.190614,165.271904,0.705041,-0.697453,-0.085071,-0.096123,653.173584,94315.445312,0.835665,0.128074,2.207336,1.410095,1.359998,30.875000,36.622326,0,4.730000,0,0,0, 202
2507, 101,183822,183812,1,1,-0.170954,0.087472,9.815796,0.004674,-0.021472,0.016650,9.899747,1.524364,1.554438,-0.156099,-0.427896,0.064092,90.873194,179.137953,165.237207,0.705872,-0.696552,-0.084832,-0.096766,652.937012,94317.679688,-0.353370,0.119159,2.207336,1.173523,1.324258,30.750000,36.667629,0,4.730000,0,0,0, 202
2508, 101,186127,186119,1,1,-0.152893,0.098849,9.813911,0.004083,-0.000478,0.014599,9.899747,3.926993,2.034964,-1.156050,-0.232172,0.239957,90.788712,179.260678,165.194819,0.705425,-0.696948,-0.085918,-0.096220,652.916199,94316.906250,-0.576816,-0.165742,2.207336,1.152710,1.328703,30.875000,36.654037,0,4.730000,0,0,0, 202
2509, 101,188205,188176,1,1,-0.178594,0.119476,9.819008,-0.014808,0.014453,0.020337,9.899747,5.368570,1.073912,0.328905,-0.350960,0.265312,90.850723,179.251334,165.545248,0.706085,-0.696832,-0.083677,-0.094164,653.167297,94311.640625,0.378824,0.117611,2.207336,1.403809,1.342914,30.875000,36.663101,0,4.730000,0,0,0, 202
2510, 101,190291,190276,1,1,-0.161639,0.084360,9.813574,-0.009973,-0.008721,0.014259,8.938695,5.849096,2.034964,-0.507216,-0.001857,0.028913,90.765988,179.269789,165.351039,0.705424,-0.697197,-0.085043,-0.095186,652.993652,94313.843750,-0.623424,-0.014098,2.207336,1.230164,1.335383,30.875000,36.654037,0,4.730000,0,0,0, 202
2511, 101,192380,192338,1,1,-0.160026,0.103947,9.808395,-0.010330,-0.000692,0.009246,9.419221,4.407518,2.034964,-0.256717,-0.201919,-0.447625,90.828539,179.310361,165.293638,0.705790,-0.696739,-0.085590,-0.095339,653.003784,94315.554688,-0.025164,-0.091867,2.207336,1.240295,1.305429,30.875000,36.672161,0,4.730000,0,0,0, 202
2512, 101,194476,194437,1,1,-0.128051,0.105054,9.788971,0.045150,-0.007425,-0.010735,9.419221,5.368570,1.554438,0.103754,0.074741,-0.064939,90.828805,179.167487,165.252069,0.705639,-0.696814,-0.084961,-0.096463,653.093506,94309.437500,-0.040152,-0.064602,2.207336,1.330017,1.256406,30.875000,36.672161,0,4.730000,0,0,0, 202
2513, 101,196576,196547,1,1,-0.169343,0.104406,9.795974,-0.011832,0.011494,-0.003020,8.938695,4.407518,1.554438,0.241633,0.843595,-0.279990,90.777783,179.269448,165.076342,0.705266,-0.696919,-0.086702,-0.096887,653.247437,94310.046875,0.006228,-0.055416,2.207336,1.483948,1.401064,31.000000,36.694813,0,4.730000,0,0,0, 202
2514, 101,198683,198657,1,1,-0.174858,0.099017,9.813321,0.004925,0.021372,0.014354,9.899747,4.888044,1.554438,0.046508,1.431755,-0.177362,90.698861,179.135890,164.924152,0.705248,-0.696682,-0.086933,-0.098501,653.169373,94311.835938,0.370140,0.068153,2.207336,1.405884,1.408861,30.875000,36.708405,0,4.720000,0,0,0, 202
2515, 101,200797,200773,1,1,-0.156397,0.052074,9.808999,-0.013899,-0.052437,0.009234,8.458169,1.524364,-1.809243,-0.769333,0.165620,-0.243456,90.839569,179.279625,164.775978,0.703653,-0.698052,-0.088331,-0.098958,653.308655,94307.070312,0.476592,0.037012,2.207336,1.545166,1.419790,31.000000,36.690285,0,4.720000,0,0,0, 202
2516, 101,203001,202956,1,1,-0.168862,0.090793,9.820760,0.000445,0.013989,0.013048,9.899747,4.888044,1.554438,0.393793,-0.144347,-0.794852,90.743441,179.176626,164.640877,0.704604,-0.696869,-0.088807,-0.100104,653.129211,94315.914062,-0.695357,-0.089658,2.207336,1.365723,1.517147,31.000000,36.708405,0,4.720000,0,0,0, 202
2517, 101,205113,205110,1,1,-0.157729,0.097869,9.809172,0.023548,-0.001059,0.009900,9.899747,4.407518,1.073912,-0.635750,0.703431,0.458973,90.804107,179.128528,164.424455,0.704816,-0.696302,-0.090530,-0.101008,653.298218,94312.687500,0.255841,0.086957,2.207336,1.534729,1.483046,30.875000,36.717468,0,4.720000,0,0,0, 202
2518, 101,207230,207191,1,1,-0.153458,0.145649,9.817332,-0.003466,-0.077579,0.018305,9.899747,4.888044,1.554438,-0.572170,2.078852,0.186951,91.513648,179.388922,164.254356,0.709113,-0.691642,-0.091782,-0.101811,653.433838,94310.234375,-0.013561,0.301562,2.207336,1.670349,1.552323,30.875000,36.740120,0,4.720000,0,0,0, 202
2519, 101,209352,209315,1,1,-0.156206,0.095002,9.803540,0.002041,0.016329,0.004231,9.899747,3.926993,2.996016,-0.674945,-0.760502,0.044795,90.686150,179.259626,164.289860,0.704018,-0.696879,-0.091504,-0.101712,653.156006,94310.320312,-0.305048,-0.231172,2.207336,1.392517,1.339820,31.000000,36.735588,0,4.720000,0,0,0, 202
2520, 101,211480,211444,1,1,-0.156262,0.082373,9.807760,0.010386,-0.019094,0.008327,9.419221,4.407518,2.034964,0.389004,0.822328,-0.085889,90.824871,179.193797,164.057729,0.704595,-0.695893,-0.092385,-0.103650,653.306763,94310.156250,0.365130,-0.149172,2.207336,1.543274,1.415977,31.000000,36.744648,0,4.720000,0,0,0, 202
2521, 101,213613,213577,1,1,-0.153276,0.086503,9.792459,0.010133,-0.009864,-0.006970,10.380273,4.888044,2.515490,0.159382,-0.577767,0.459559,90.791738,179.218604,163.967242,0.704067,-0.696279,-0.093488,-0.103658,653.417114,94312.960938,0.857280,-0.019452,2.207336,1.653625,1.577163,31.000000,36.758240,0,4.720000,0,0,0, 202
2522, 101,215760,215750,1,1,-0.164612,0.089890,9.808304,-0.002748,-0.008414,0.009093,9.419221,4.888044,1.073912,0.110041,0.179995,-0.195095,90.820397,179.238043,163.884788,0.704169,-0.696028,-0.093664,-0.104494,653.613647,94307.531250,0.558491,0.290595,2.207336,1.850159,1.765325,31.000000,36.776363,0,4.720000,0,0,0, 202
2523, 101,217910,217893,1,1,-0.160632,0.115036,9.810072,0.006086,0.034818,0.010998,10.380273,4.407518,1.554438,-0.046210,-0.053461,-0.210651,90.697215,179.243138,164.300009,0.705220,-0.695682,-0.091362,-0.101708,653.467773,94306.265625,-0.098310,-0.076171,2.207336,1.704285,1.785800,31.000000,36.789955,0,4.720000,0,0,0, 202
2524, 101,220148,220141,1,1,-0.160454,0.096095,9.801177,0.010046,0.001785,0.001956,10.380273,3.446467,2.034964,-0.658806,1.122820,-0.316831,90.784299,179.190600,164.281349,0.704547,-0.696324,-0.091043,-0.102261,653.556641,94309.406250,-0.085688,0.125991,2.207336,1.793152,1.802922,31.000000,36.785423,0,4.720000,0,0,0, 202
2525, 101,222298,222283,1,1,-0.150227,0.114710,9.817081,0.001772,0.030574,0.017853,9.899747,3.926993,0.593386,0.341754,-0.643111,-0.393258,90.705144,179.329349,164.134172,0.704057,-0.696580,-0.092862,-0.102261,653.819580,94306.101562,0.244237,0.143685,2.207336,2.056091,1.982689,31.000000,36.799015,0,4.720000,0,0,0, 202
2526, 101,224630,224602,1,1,-0.143438,0.004019,9.792324,-0.007829,-0.097122,-0.008109,7.016591,6.810148,4.437593,-0.043121,0.366935,0.251144,90.824748,179.246417,163.812429,0.704418,-0.695651,-0.094198,-0.104839,653.675720,94306.453125,0.083549,0.179336,2.237976,1.912231,1.926469,31.000000,36.835258,0,4.720000,0,0,0, 202
2527, 101,226836,226792,1,1,-0.159102,0.082051,9.807702,-0.007504,0.009066,0.003243,10.380273,4.888044,2.034964,-0.748042,0.134414,-0.970005,90.759178,179.245133,163.895635,0.704095,-0.696123,-0.093745,-0.104281,653.678589,94307.640625,0.172057,0.061399,2.237976,1.915100,1.920906,31.000000,36.826199,0,4.720000,0,0,0, 202
2528, 101,228919,228892,1,1,-0.169159,0.093866,9.813434,-0.013972,0.015244,0.014319,9.899747,2.965941,0.593386,-0.245652,0.028930,0.217472,90.714065,179.287466,163.702081,0.703682,-0.696205,-0.095223,-0.105176,653.567078,94308.656250,-0.260141,-0.041614,2.237976,1.803589,1.879859,31.000000,36.826199,0,4.720000,0,0,0, 202
2529, 101,231010,230995,1,1,-0.177321,0.184955,9.879911,0.022136,0.092746,0.081773,8.938695,4.888044,1.073912,-1.314612,0.545014,-0.505637,90.780720,179.186939,163.647084,0.703945,-0.695835,-0.094877,-0.106179,653.811401,94302.375000,-0.897980,0.185722,2.350708,2.047913,2.052691,31.000000,36.835258,0,4.720000,0,0,0, 202
2530, 101,233105,233104,1,1,-0.160594,0.085788,9.803716,-0.009098,0.017562,0.004386,10.380273,3.926993,1.073912,-0.760544,-0.402802,0.249832,90.646193,179.297315,163.376417,0.702977,-0.696340,-0.097325,-0.107058,653.563538,94313.421875,-0.009463,0.102002,2.350708,1.800049,1.982912,31.000000,36.844318,0,4.720000,0,0,0, 202
2531, 101,235207,235163,1,1,-0.168043,0.069851,9.798721,0.013316,0.006595,-0.000600,9.419221,3.926993,1.554438,0.382447,0.578951,0.124284,90.637744,179.100742,163.102677,0.702483,-0.696328,-0.097788,-0.109922,653.641724,94308.328125,-0.765369,-0.059319,2.350708,1.878235,2.031395,31.000000,36.844318,0,4.710000,0,0,0, 202
2532, 101,237395,237383,1,1,-0.148475,0.114794,9.810321,0.033074,0.037541,0.010988,10.380273,4.888044,2.034964,-1.151836,0.011978,-0.233577,90.673698,179.171325,163.148166,0.702811,-0.696086,-0.097911,-0.109246,653.624023,94309.593750,-0.358886,0.103171,2.350708,1.860535,2.039028,31.000000,36.830727,0,4.720000,0,0,0, 202
2533, 101,239492,239449,1,1,-0.144270,0.084877,9.804089,0.015435,0.015676,0.015761,9.899747,3.446467,1.554438,0.059769,0.256771,-0.373759,90.762976,179.250282,163.254102,0.703528,-0.695560,-0.097669,-0.108193,653.970154,94306.617188,0.532926,0.077745,2.350708,2.206665,2.193414,31.000000,36.826199,0,4.710000,0,0,0, 202
2534, 101,241595,241564,1,1,-0.170089,0.089437,9.791303,-0.027299,0.023244,-0.007877,9.899747,3.446467,2.034964,-0.472699,-0.436318,-1.002239,90.652183,179.357831,163.228134,0.702931,-0.696124,-0.098592,-0.107606,654.163574,94302.789062,0.510679,0.025206,2.528015,2.400085,2.363584,31.000000,36.812607,0,4.710000,0,0,0, 202
2535, 101,243711,243684,1,1,-0.163705,0.132766,9.824423,0.012403,0.041925,0.025586,6.536066,9.693303,4.437593,-0.545025,-0.338944,-0.490591,90.772101,179.236854,163.237792,0.704951,-0.694094,-0.097863,-0.108170,654.233704,94300.750000,-0.015143,0.130157,2.690491,2.470215,2.435153,30.875000,36.812607,0,4.710000,0,0,0, 202
2536, 101,245829,245792,1,1,-0.158399,0.072788,9.807371,-0.008079,-0.005127,0.007916,9.419221,4.888044,2.034964,-0.307636,0.448267,0.413312,90.708245,179.287671,162.911036,0.702904,-0.695567,-0.100033,-0.110025,653.962341,94305.765625,0.004779,-0.153397,2.690491,2.198853,2.277272,31.000000,36.817139,0,4.700000,0,0,0, 202
2537, 101,247954,247918,1,1,-0.155759,0.094223,9.802725,0.017037,0.010743,0.003394,9.419221,4.888044,1.073912,-0.980245,0.362948,-0.716571,90.732752,179.194015,162.772943,0.702830,-0.695379,-0.100272,-0.111461,653.942505,94304.250000,-0.138275,-0.105625,2.690491,2.179016,2.252404,31.000000,36.844318,0,4.700000,0,0,0, 202
2538, 101,250085,250047,1,1,-0.152337,-0.064830,9.790559,-0.037398,-0.144343,-0.010177,10.860798,3.446467,-0.367666,0.098352,0.287290,0.057531,90.748400,179.254845,162.648224,0.698042,-0.699939,-0.100932,-0.112404,654.295288,94300.164062,0.554398,0.242674,2.690491,2.531799,2.369802,31.000000,36.844318,0,4.710000,0,0,0, 202
2539, 101,252217,252177,1,1,-0.150760,0.098906,9.813287,0.021626,-0.000534,0.013919,9.899747,4.888044,0.593386,0.143191,0.150284,-0.433677,90.817884,179.207252,162.548312,0.703139,-0.694647,-0.101632,-0.112834,654.187622,94300.164062,0.437210,0.154806,2.690491,2.424133,2.330427,31.000000,36.844318,0,4.700000,0,0,0, 202
2540, 101,254448,254426,1,1,-0.145553,0.089833,9.808878,0.025783,0.006660,0.009333,9.419221,3.926993,1.073912,-0.462765,-0.231552,-1.295620,90.720594,179.200408,162.194139,0.702539,-0.694594,-0.104621,-0.114161,653.984741,94305.429688,-0.142741,-0.088496,2.690491,2.221252,2.295537,31.125000,36.835258,0,4.700000,0,0,0, 202
2541, 101,256584,256547,1,1,-0.162727,0.087876,9.807208,0.009727,0.000309,0.007947,8.938695,4.407518,1.073912,-0.238061,-0.071912,-0.489844,90.775379,179.192759,162.363541,0.702685,-0.694756,-0.102706,-0.114017,653.890320,94302.625000,-0.178892,-0.362575,2.690491,2.126831,2.146285,31.000000,36.821667,0,4.700000,0,0,0, 202
2542, 101,258718,258682,1,1,-0.160749,0.080108,9.795324,0.003762,-0.001798,-0.004030,9.419221,4.407518,1.554438,-0.992697,-0.281954,-0.649643,90.740982,179.223098,162.428920,0.702533,-0.695038,-0.102659,-0.113272,654.130371,94300.414062,-0.460734,-0.057435,2.690491,2.366882,2.381988,31.000000,36.830727,0,4.700000,0,0,0, 202
2543, 101,260861,260817,1,1,-0.163057,0.090881,9.808787,0.003562,0.011758,0.008849,10.860798,2.965941,1.554438,-0.622335,-0.578782,-0.597727,90.816401,179.308435,162.440968,0.703123,-0.694469,-0.102907,-0.112879,654.003662,94301.351562,-0.231118,-0.129565,2.690491,2.240173,2.265781,31.125000,36.835258,0,4.700000,0,0,0, 202
2544, 101,263008,263002,1,1,-0.163732,0.103189,9.801608,-0.005627,0.029177,0.002474,8.938695,4.888044,1.073912,-0.421712,-0.958325,0.020430,90.695992,179.305730,162.220340,0.702172,-0.695010,-0.104347,-0.114139,654.033203,94304.250000,-0.140643,-0.068841,2.690491,2.269714,2.348738,31.125000,36.844318,0,4.700000,0,0,0, 202
2545, 101,265164,265148,1,1,-0.145608,0.150733,9.813170,0.027867,0.037896,0.014295,9.419221,2.004889,1.073912,-0.099398,0.178260,-0.067950,90.879717,179.303585,161.851386,0.704264,-0.692187,-0.107067,-0.115870,654.008545,94305.429688,0.069625,0.064497,2.690491,2.245056,2.317824,31.000000,36.835258,0,4.700000,0,0,0, 202
2546, 101,267380,267342,1,1,-0.155880,0.066554,9.786366,0.001908,0.008537,-0.013171,9.899747,5.368570,1.073912,-0.558722,-0.298057,-0.616636,90.610942,179.248753,161.352141,0.700713,-0.694775,-0.109349,-0.119719,654.149536,94300.500000,0.734836,-0.206533,2.690491,2.386047,2.231535,31.000000,36.826199,0,4.700000,0,0,0, 202
2547, 101,269469,269448,1,1,-0.168992,0.104330,9.817445,0.005245,0.006822,0.018450,10.380273,3.446467,0.593386,-0.783288,1.291198,0.092972,90.848961,179.225612,161.611537,0.702400,-0.693585,-0.107388,-0.118496,654.324951,94301.601562,0.524867,0.214700,2.690491,2.561462,2.446220,31.000000,36.821667,0,4.700000,0,0,0, 202
2548, 101,271657,271626,1,1,-0.158847,0.083689,9.796130,0.018781,0.005268,-0.003244,9.419221,4.407518,2.034964,-0.749712,0.426978,0.305079,90.721899,179.158048,161.985559,0.701946,-0.694773,-0.104838,-0.116495,653.945557,94304.578125,-0.540752,-0.192054,2.690491,2.182068,2.320585,31.125000,36.826199,0,4.700000,0,0,0, 202
2549, 101,273753,273734,1,1,-0.162757,0.115987,9.797425,0.009522,0.015382,-0.001553,9.419221,5.368570,2.996016,-0.231209,0.330177,0.425339,90.851461,179.251894,161.807660,0.703185,-0.693185,-0.106580,-0.116905,653.932739,94306.617188,-0.798651,-0.228928,2.690491,2.169250,2.327145,31.125000,36.826199,0,4.690000,0,0,0, 202
2550, 101,275849,275832,1,1,-0.155961,0.090641,9.793891,0.017235,0.008254,-0.005467,9.419221,4.888044,2.034964,-1.098893,0.103280,-1.107730,90.739090,179.196693,161.901069,0.702358,-0.694205,-0.106075,-0.116279,654.109375,94302.976562,-0.479289,0.052583,2.690491,2.345886,2.354596,31.125000,36.857910,0,4.700000,0,0,0, 202
2551, 101,277947,277944,1,1,-0.156376,0.079058,9.791865,0.005837,-0.054607,-0.007721,9.419221,4.888044,1.073912,-0.468146,0.564591,-0.015351,91.046579,179.243097,161.645415,0.703648,-0.692388,-0.107087,-0.118368,654.188599,94306.539062,0.380879,0.097023,2.690491,2.425110,2.451935,31.125000,36.830727,0,4.690000,0,0,0, 202
2552, 101,280050,280017,1,1,-0.159076,0.091724,9.806583,0.009184,-0.005214,0.007297,10.380273,4.888044,2.034964,-0.190767,0.746287,0.275229,90.829126,179.230174,161.848081,0.702528,-0.693923,-0.106005,-0.117000,654.177490,94301.437500,-0.111402,-0.039111,2.690491,2.414001,2.461052,31.125000,36.830727,0,4.690000,0,0,0, 202
2553, 101,282164,282133,1,1,-0.170579,0.087374,9.813679,0.017497,0.002760,0.014534,8.458169,4.407518,1.073912,-0.353291,0.130573,-0.100462,90.782742,179.114526,161.557593,0.702013,-0.693871,-0.107643,-0.118886,654.067017,94301.437500,-0.022381,0.037315,2.690491,2.303528,2.251172,31.125000,36.830727,0,4.690000,0,0,0, 202
2554, 101,284284,284254,1,1,-0.179177,-0.025678,9.816898,-0.043033,-0.082675,0.017125,9.419221,3.446467,1.554438,0.161884,-0.194983,0.501110,90.673165,179.212156,161.442968,0.698273,-0.697380,-0.107591,-0.120415,654.002808,94307.226562,-0.458568,-0.092656,2.690491,2.239319,2.430506,31.125000,36.848850,0,4.690000,0,0,0, 202
2555, 101,286407,286363,1,1,-0.159959,0.085284,9.816003,0.018740,0.000524,-0.001677,9.899747,5.368570,2.515490,0.080911,0.211316,-0.186680,90.785508,179.243903,161.273429,0.701683,-0.693636,-0.109613,-0.120397,654.146362,94300.687500,-0.584321,-0.037069,2.690491,2.382874,2.385489,31.125000,36.871502,0,4.690000,0,0,0, 202
2556, 101,288627,288601,1,1,-0.150246,0.105597,9.796275,0.016609,0.026946,-0.003055,9.419221,4.407518,2.034964,-0.257470,-0.528503,0.152665,90.707282,179.266142,161.459252,0.702375,-0.693319,-0.109088,-0.118650,654.085999,94303.492188,-0.266149,-0.096376,2.690491,2.322510,2.361852,31.125000,36.885094,0,4.690000,0,0,0, 202
2557, 101,290753,290729,1,1,-0.159430,0.105142,9.813777,0.007364,0.043515,0.014536,9.419221,2.965941,1.554438,-0.368817,0.651258,0.344711,90.628086,179.275226,161.102811,0.702007,-0.692968,-0.110997,-0.121085,654.174744,94301.203125,0.505157,-0.023068,2.690491,2.411255,2.353429,31.125000,36.898682,0,4.690000,0,0,0, 202
2558, 101,292883,292860,1,1,-0.161748,0.089518,9.821838,0.014881,0.020253,0.022546,8.458169,5.368570,-0.367666,-1.247320,1.000483,-0.729023,90.686034,179.194808,160.735088,0.701183,-0.693044,-0.113035,-0.123518,654.263000,94303.843750,0.016155,0.090244,2.690491,2.499512,2.504966,31.250000,36.921333,0,4.690000,0,0,0, 202
2559, 101,295015,294991,1,1,-0.163028,0.090586,9.806211,0.003596,0.009432,0.006979,10.380273,4.407518,2.034964,-0.457239,0.758780,-0.217093,90.761698,179.257837,160.497561,0.701043,-0.692687,-0.114479,-0.124971,654.094177,94301.304688,-0.467286,-0.172465,2.764771,2.330688,2.341540,31.125000,36.948517,0,4.690000,0,0,0, 202
2560, 101,297159,297119,1,1,-0.157078,0.083573,9.810727,0.005095,-0.005952,0.011337,9.419221,4.888044,1.073912,-0.039775,-0.007650,-0.994687,90.804571,179.272453,160.203713,0.700675,-0.692437,-0.116237,-0.126789,654.054688,94301.992188,-0.587510,0.042054,2.764771,2.291199,2.324797,31.250000,36.966637,0,4.690000,0,0,0, 202
2561, 101,299303,299258,1,1,-0.157080,0.093340,9.819358,-0.005657,0.000941,0.024397,7.977643,9.693303,4.918118,-0.496769,0.248965,-0.399575,90.808943,179.314869,159.818900,0.700318,-0.691971,-0.118817,-0.128890,654.122681,94301.656250,-0.407862,-0.037111,2.764771,2.359192,2.428021,31.250000,36.984760,0,4.690000,0,0,0, 202
2562, 101,301449,301442,1,1,-0.163488,0.091597,9.813504,0.002872,0.008808,0.014289,9.419221,3.926993,1.554438,-0.150552,0.379693,0.002672,90.784750,179.277781,159.411342,0.699668,-0.691732,-0.121078,-0.131578,653.950562,94305.648438,-0.279348,-0.048132,2.764771,2.187073,2.326229,31.250000,36.989288,0,4.690000,0,0,0, 202
2563, 101,303608,303588,1,1,-0.164082,0.109170,9.800141,-0.014403,0.020888,0.001090,10.380273,4.407518,2.034964,-0.267634,0.531196,0.231163,90.810780,179.408142,159.565104,0.700724,-0.691003,-0.120336,-0.130460,654.322571,94299.867188,0.228813,0.165730,2.764771,2.559082,2.488076,31.125000,36.971169,0,4.690000,0,0,0, 202
2564, 101,305855,305844,1,1,-0.161600,0.095054,9.803950,-0.000400,-0.007911,0.004740,9.419221,2.965941,2.034964,0.180214,0.647306,-0.401394,90.897230,179.312383,159.495176,0.700481,-0.691096,-0.120655,-0.130976,654.036987,94300.882812,-0.299499,-0.160825,2.764771,2.273499,2.204543,31.125000,36.971169,0,4.690000,0,0,0, 202
2565, 101,308063,308028,1,1,-0.160753,0.096247,9.808196,-0.011259,0.008526,0.008975,9.899747,4.888044,2.515490,-0.069388,-1.473141,0.045870,90.806033,179.383676,159.461490,0.699973,-0.691541,-0.121399,-0.130656,654.078857,94304.796875,-0.313945,0.139229,2.764771,2.315369,2.433192,31.125000,36.980228,0,4.690000,0,0,0, 202
2566, 101,310146,310130,1,1,-0.152575,0.077723,9.799616,0.008202,-0.020646,0.000087,9.899747,2.485415,1.073912,0.324630,0.588142,0.121746,90.859418,179.276483,159.435658,0.699538,-0.691920,-0.121222,-0.131138,653.869385,94308.359375,-0.972442,-0.008177,2.764771,2.105896,2.316061,31.250000,36.953049,0,4.690000,0,0,0, 202
2567, 101,312232,312191,1,1,-0.161442,0.103217,9.812970,0.004226,0.004581,0.013839,9.899747,4.407518,1.554438,-0.051218,0.651638,0.106916,90.867389,179.303025,159.529368,0.700330,-0.691324,-0.120426,-0.130792,654.108887,94301.304688,-0.315037,-0.260312,2.764771,2.345398,2.349569,31.125000,36.948517,0,4.690000,0,0,0, 202
2568, 101,314326,314300,1,1,-0.147740,0.076846,9.802856,0.014152,0.004429,0.003260,8.938695,3.926993,0.593386,0.083322,0.639505,0.014252,90.696238,179.264776,159.579993,0.699311,-0.692463,-0.120081,-0.130534,654.140259,94300.203125,-0.585096,-0.144264,2.764771,2.376770,2.501157,31.250000,36.953049,0,4.690000,0,0,0, 202
2569, 101,316591,316582,1,1,-0.163686,0.092909,9.810006,-0.005779,0.004207,0.010809,10.380273,2.965941,1.554438,0.249646,0.132346,0.012983,90.817781,179.327628,159.548793,0.700080,-0.691621,-0.120516,-0.130473,654.133179,94298.507812,-0.415518,-0.090029,2.764771,2.369690,2.338387,31.250000,36.989288,0,4.690000,0,0,0, 202
2570, 101,318696,318695,1,1,-0.156798,0.093316,9.812740,0.000579,-0.003417,0.013436,9.419221,4.407518,1.073912,0.140354,0.139347,0.206374,90.849145,179.327832,159.643582,0.700378,-0.691529,-0.119909,-0.129926,654.162170,94304.460938,-0.106410,-0.049447,2.764771,2.398682,2.423143,31.250000,36.998348,0,4.680000,0,0,0, 202
2571, 101,320804,320770,1,1,-0.165286,0.094900,9.808800,-0.005686,-0.012757,0.009641,6.536066,0.082786,0.593386,0.405036,0.140111,0.101913,90.926565,179.316877,159.913621,0.701137,-0.691348,-0.118125,-0.128421,654.034546,94303.359375,-0.010624,-0.035221,2.764771,2.271057,2.329310,31.250000,37.002880,0,4.680000,0,0,0, 202
2572, 101,323008,322998,1,1,-0.169761,0.081662,9.806204,-0.014068,0.010694,0.006997,9.899747,3.926993,1.554438,-0.930668,-0.192577,-0.165652,90.728586,179.317041,159.732812,0.699739,-0.692370,-0.119441,-0.129319,654.215332,94299.359375,0.402107,-0.120087,2.764771,2.451843,2.335687,31.250000,36.998348,0,4.680000,0,0,0, 202
2573, 101,325118,325076,1,1,-0.168554,0.094887,9.797900,0.010724,0.006614,-0.001199,10.380273,4.888044,1.073912,-0.125106,0.096032,0.091575,90.828101,179.210777,159.343546,0.699775,-0.691467,-0.121027,-0.132441,654.087158,94303.953125,0.175525,-0.033965,2.764771,2.323669,2.342313,31.250000,37.025532,0,4.680000,0,0,0, 202
2574, 101,327234,327234,1,1,-0.172140,0.093419,9.816816,-0.002848,0.020670,0.017748,9.419221,3.446467,1.554438,-0.864539,0.463295,-0.135585,90.743769,179.268806,159.349502,0.699977,-0.691279,-0.121228,-0.132172,654.304993,94301.750000,0.360538,-0.048955,2.833374,2.541504,2.549707,31.250000,37.034592,0,4.680000,0,0,0, 202
2575, 101,329354,329319,1,1,-0.145120,0.086858,9.811114,0.028405,0.005683,0.011529,8.938695,3.446467,2.034964,-0.549322,1.009590,0.223829,90.741959,179.222142,159.190891,0.699091,-0.691819,-0.122118,-0.133213,654.385437,94300.476562,0.209249,0.004806,2.833374,2.621948,2.591452,31.250000,37.048183,0,4.680000,0,0,0, 202
2576, 101,331479,331446,1,1,-0.153263,0.093251,9.805152,-0.017628,-0.012318,0.005769,10.380273,4.888044,2.034964,-0.015279,1.002962,-0.008810,90.900256,179.460557,159.113437,0.699731,-0.691005,-0.123376,-0.132917,654.161682,94303.117188,-0.955736,0.003318,2.833374,2.398193,2.518075,31.250000,37.070831,0,4.670000,0,0,0, 202
2577, 101,333613,333580,1,1,-0.136624,0.090987,9.775670,0.027483,-0.023892,-0.024020,9.419221,3.446467,1.073912,-1.269456,0.328987,0.241173,90.924537,179.282166,159.023005,0.699475,-0.691072,-0.124305,-0.133051,654.419556,94297.593750,0.223282,-0.052496,2.927917,2.656067,2.670845,31.375000,37.093483,0,4.670000,0,0,0, 202
2578, 101,335751,335714,1,1,-0.157406,0.127777,9.799990,0.016146,0.019879,0.001053,10.380273,2.965941,2.034964,0.045834,0.131333,0.256870,90.914257,179.320128,158.669584,0.700361,-0.689364,-0.126045,-0.135587,654.542786,94297.085938,0.627359,0.119219,2.927917,2.779297,2.695843,31.375000,37.120663,0,4.670000,0,0,0, 202
2579, 101,337893,337885,1,1,-0.166999,0.079703,9.810105,-0.002297,0.000975,0.010850,8.938695,7.290674,0.593386,-0.507432,-0.061981,0.092496,90.784088,179.275841,158.553334,0.698673,-0.690794,-0.126164,-0.136903,654.266724,94302.609375,-0.536195,-0.189345,2.927917,2.503235,2.676453,31.375000,37.152374,0,4.670000,0,0,0, 202
2580, 101,340133,340094,1,1,-0.155877,0.093151,9.813699,0.003553,-0.019930,0.014358,8.458169,3.926993,1.073912,-0.363710,0.757239,-0.205390,90.955676,179.331753,158.508296,0.699702,-0.689653,-0.126651,-0.136952,654.458679,94297.343750,-0.331619,0.034160,2.927917,2.695190,2.699892,31.375000,37.161434,0,4.670000,0,0,0, 202
2581, 101,342278,342236,1,1,-0.153618,0.099065,9.813082,0.008771,-0.000962,0.013780,10.380273,-2.800369,-1.328717,-0.670051,0.570800,0.790543,90.871077,179.324458,158.621144,0.699319,-0.690302,-0.126028,-0.136214,654.499634,94300.742188,0.552732,-0.054899,2.927917,2.736145,2.691931,31.500000,37.197674,0,4.670000,0,0,0, 202
2582, 101,344426,344424,1,1,-0.154040,0.084121,9.796042,0.007737,0.014988,-0.003400,9.899747,3.446467,2.034964,-1.755192,0.614791,-0.613576,90.703321,179.300553,158.230239,0.697811,-0.690917,-0.128439,-0.138554,654.381226,94298.109375,0.326471,0.024719,2.927917,2.617737,2.609841,31.500000,37.229385,0,4.670000,0,0,0, 202
2583, 101,346637,346619,1,1,-0.170034,0.100104,9.801952,-0.006121,-0.003510,0.002936,8.938695,3.926993,0.593386,0.440827,0.322330,0.717803,90.926142,179.321795,158.735413,0.699783,-0.690094,-0.125258,-0.135593,654.259827,94301.937500,-0.377421,0.014816,2.927917,2.496338,2.617677,31.500000,37.242973,0,4.670000,0,0,0, 202
2584, 101,348717,348710,1,1,-0.156903,0.085239,9.802174,0.019737,-0.014759,0.002769,9.899747,3.446467,2.034964,0.043385,1.011804,-0.867157,90.885332,179.213345,158.544414,0.698839,-0.690614,-0.126512,-0.136647,654.495300,94296.320312,0.178440,0.030056,2.927917,2.731812,2.653477,31.500000,37.270153,0,4.670000,0,0,0, 202
2585, 101,350804,350772,1,1,-0.167600,0.086983,9.809169,-0.000388,0.000188,0.009986,8.938695,3.926993,1.073912,-0.341834,0.409836,0.108512,90.831175,179.278696,158.429571,0.698795,-0.690385,-0.126950,-0.137613,654.486328,94302.953125,0.718959,0.028381,2.927917,2.722839,2.692981,31.500000,37.297333,0,4.670000,0,0,0, 202
2586, 101,352900,352882,1,1,-0.158157,0.073006,9.800149,-0.001375,-0.008794,0.000693,9.899747,5.368570,1.073912,-0.139477,0.079487,-0.274258,90.789750,179.306741,158.301601,0.698138,-0.690753,-0.127954,-0.138171,654.294617,94301.679688,-0.693165,-0.142618,2.927917,2.531128,2.648530,31.625000,37.310925,0,4.670000,0,0,0, 202
2587, 101,354999,354990,1,1,-0.156613,0.181381,9.828347,0.028691,0.078053,0.029917,9.419221,4.407518,0.593386,0.821184,-0.782181,0.249268,90.867778,179.383908,157.932401,0.698539,-0.689483,-0.130542,-0.140054,654.564697,94298.187500,0.084935,0.220829,2.927917,2.801208,2.810589,31.625000,37.333572,0,4.670000,0,0,0, 202
2588, 101,357399,357393,1,1,-0.170281,0.003762,9.782503,-0.028312,-0.082887,-0.017406,10.860798,5.849096,1.554438,-0.470632,-0.011900,0.067651,90.885871,179.252250,157.593515,0.695250,-0.691965,-0.131400,-0.143335,654.496582,94299.375000,0.323217,0.116536,2.927917,2.733093,2.728606,31.625000,37.378872,0,4.660000,0,0,0, 202
2589, 101,359497,359461,1,1,-0.157726,0.088281,9.816936,0.002199,-0.004141,0.017599,8.938695,4.407518,1.073912,-0.839533,0.324451,0.267347,90.852390,179.333925,157.497223,0.697848,-0.689135,-0.132873,-0.142988,654.444885,94297.328125,-0.213026,-0.078641,2.927917,2.681396,2.692989,31.625000,37.378872,0,4.660000,0,0,0, 202
2590, 101,361602,361574,1,1,-0.175217,0.106532,9.809685,0.005292,0.024713,0.010795,9.899747,2.004889,2.034964,-0.841491,1.327764,-0.298932,90.819851,179.258793,157.675218,0.698598,-0.688803,-0.131390,-0.142296,654.465393,94296.984375,-0.030879,-0.023551,2.927917,2.701904,2.648306,31.750000,37.396992,0,4.660000,0,0,0, 202
2591, 101,363713,363690,1,1,-0.156127,0.092161,9.802502,0.002525,0.011555,0.003171,7.497117,9.212777,3.476542,-0.241957,-0.742249,0.091138,90.776520,179.344689,157.745637,0.697713,-0.689871,-0.131538,-0.141323,654.346985,94300.468750,-0.338337,0.081046,2.927917,2.583496,2.645305,31.625000,37.428699,0,4.660000,0,0,0, 202
2592, 101,365831,365811,1,1,-0.159181,0.099084,9.804607,0.007582,0.008009,0.005394,9.899747,4.888044,2.034964,0.014431,0.252484,-0.416775,90.838968,179.310921,157.950160,0.698602,-0.689461,-0.130212,-0.140156,654.470459,94300.210938,0.457933,0.153510,2.927917,2.706970,2.694654,31.625000,37.442291,0,4.660000,0,0,0, 202
2593, 101,367951,367922,1,1,-0.164727,0.093890,9.806043,-0.011009,-0.008180,0.006866,8.938695,4.407518,0.593386,-0.097470,0.116233,0.760996,90.919407,179.380698,157.786386,0.698667,-0.689005,-0.131337,-0.141022,654.225708,94298.671875,-0.387993,-0.184837,2.927917,2.462219,2.507689,31.750000,37.469467,0,4.660000,0,0,0, 202
2594, 101,370081,370047,1,1,-0.157599,0.097112,9.811852,-0.005764,0.019425,0.012577,9.899747,3.926993,2.996016,-0.398692,-0.398235,-0.081397,90.759144,179.395752,157.807873,0.698324,-0.689402,-0.131189,-0.140919,654.270447,94301.132812,0.288661,-0.037467,2.927917,2.506958,2.496027,31.750000,37.501175,0,4.650000,0,0,0, 202
2595, 101,372214,372179,1,1,-0.153632,0.103171,9.814578,0.011588,-0.016936,0.015301,9.899747,4.407518,2.034964,0.379808,0.463929,0.034394,90.997367,179.332709,157.599129,0.698845,-0.688371,-0.132073,-0.142541,654.272339,94301.898438,-0.317491,0.062886,2.927917,2.508850,2.620864,31.750000,37.514767,0,4.650000,0,0,0, 202
2596, 101,374445,374422,1,1,-0.164322,0.094822,9.817355,0.014282,0.010077,0.018173,10.380273,3.446467,2.996016,-0.567624,0.450711,0.205226,90.815766,179.237824,157.802628,0.698301,-0.689413,-0.130880,-0.141266,654.191589,94300.531250,-0.272392,-0.211020,2.927917,2.428101,2.477504,31.875000,37.532883,0,4.650000,0,0,0, 202
2597, 101,376572,376550,1,1,-0.173251,0.113045,9.810628,0.007645,0.024482,0.011775,8.458169,4.407518,1.073912,0.156994,0.413037,0.925853,90.854739,179.274256,157.441215,0.698542,-0.688296,-0.132923,-0.143594,654.237061,94300.101562,0.166211,-0.126210,2.927917,2.473572,2.505326,31.750000,37.555534,0,4.650000,0,0,0, 202
2598, 101,378709,378670,1,1,-0.156189,0.086632,9.810340,0.003856,-0.008719,0.010961,9.419221,3.926993,2.034964,-0.547655,-0.734049,0.518155,90.869267,179.330810,157.329091,0.697735,-0.688840,-0.133844,-0.144050,654.214111,94302.906250,-0.015776,0.051216,2.927917,2.450623,2.489418,31.875000,37.569122,0,4.650000,0,0,0, 202
2599, 101,380853,380813,1,1,-0.166482,0.086385,9.813949,0.011221,0.007864,0.014731,8.938695,4.407518,1.554438,-0.226260,0.464008,-0.127858,90.798301,179.237278,156.974385,0.696742,-0.688967,-0.135496,-0.146685,654.385010,94296.343750,0.412643,-0.104871,2.927917,2.621521,2.469925,31.875000,37.591770,0,4.650000,0,0,0, 202
2600, 101,383001,382998,1,1,-0.172426,0.086501,9.817580,-0.006526,0.008084,0.018470,9.899747,3.926993,2.034964,0.235024,1.147548,-0.238866,90.814031,179.313175,156.727433,0.696615,-0.688485,-0.137422,-0.147751,654.053101,94301.859375,-0.308681,-0.302377,2.927917,2.289612,2.291597,31.875000,37.623478,0,4.650000,0,0,0, 202
2601, 101,385156,385143,1,1,-0.163874,0.085865,9.798815,0.011402,-0.014855,-0.000457,9.899747,3.446467,1.073912,0.704232,1.019366,-0.783243,90.927371,179.252523,156.657574,0.697128,-0.687786,-0.137326,-0.148675,654.191650,94301.601562,0.286844,-0.007188,2.927917,2.428162,2.323574,31.875000,37.637066,0,4.650000,0,0,0, 202
2602, 101,387366,387339,1,1,-0.148354,0.093855,9.810600,0.010784,-0.002463,0.011165,8.458169,6.329622,1.073912,-0.970298,0.348839,0.176733,90.862041,179.360481,156.538811,0.696720,-0.687908,-0.138781,-0.148672,654.242554,94298.187500,0.042062,-0.196438,2.927917,2.479065,2.299726,31.875000,37.655182,0,4.650000,0,0,0, 202
2603, 101,389457,389429,1,1,-0.150995,0.086331,9.785255,0.002350,0.003747,-0.014200,9.899747,4.888044,2.515490,-0.158307,-0.998696,-0.482067,90.792783,179.375302,156.622262,0.696431,-0.688412,-0.138460,-0.147992,654.263062,94302.015625,0.385051,0.219052,2.927917,2.499573,2.448590,31.875000,37.668774,0,4.650000,0,0,0, 202
2604, 101,391628,391590,1,1,-0.154925,0.102855,9.800467,0.002506,-0.003162,0.001230,10.380273,3.446467,1.554438,-0.376546,0.570807,-0.409182,90.930725,179.394181,156.522241,0.697154,-0.687429,-0.138997,-0.148654,653.833557,94308.906250,-0.335655,-0.025562,2.927917,2.070068,2.260085,31.875000,37.682362,0,4.650000,0,0,0, 202
2605, 101,393717,393696,1,1,-0.161204,0.101124,9.796147,0.026730,0.002747,-0.003041,8.938695,3.446467,0.593386,-0.309611,0.059270,0.465325,90.903322,179.216582,156.394243,0.696865,-0.687401,-0.139543,-0.149624,654.017334,94303.539062,-0.471431,-0.062450,2.927917,2.253845,2.350332,31.875000,37.695950,0,4.650000,0,0,0, 202
2606, 101,395812,395803,1,1,-0.159257,0.091316,9.814316,0.005662,-0.006153,0.015029,9.419221,2.965941,1.073912,-0.709669,0.849435,0.258738,90.891902,179.322232,156.813152,0.697205,-0.688103,-0.136863,-0.147268,654.083374,94301.234375,-0.260489,-0.127260,2.927917,2.319885,2.268170,31.875000,37.709538,0,4.650000,0,0,0, 202
2607, 101,397907,397870,1,1,-0.161585,0.084985,9.799193,-0.006004,-0.018221,-0.000125,6.055540,10.173829,2.996016,-0.423202,0.636769,-0.076973,90.933122,179.359798,156.987076,0.697722,-0.688014,-0.135995,-0.146034,654.110962,94304.882812,0.357283,0.034782,2.927917,2.347473,2.355927,31.875000,37.732185,0,4.640000,0,0,0, 202
2608, 101,400016,399975,1,1,-0.163687,0.086199,9.816060,0.002648,-0.000538,0.016803,8.938695,3.926993,0.593386,-0.017853,-0.010244,-0.224682,90.842083,179.304897,156.780408,0.696842,-0.688388,-0.137018,-0.147512,654.087646,94303.335938,-0.246790,0.090467,2.927917,2.324158,2.373524,31.875000,37.759361,0,4.640000,0,0,0, 202
2609, 101,402128,402095,1,1,-0.167035,0.084298,9.811608,-0.001338,0.014268,0.012382,9.899747,2.485415,2.034964,-0.110057,-0.360667,-0.422353,90.757634,179.310443,156.444759,0.695906,-0.688490,-0.139177,-0.149416,654.216064,94305.031250,0.736683,0.301003,2.927917,2.452576,2.392480,31.875000,37.777481,0,4.640000,0,0,0, 202
2610, 101,404243,404214,1,1,-0.161532,0.083693,9.800862,0.007424,0.007609,0.001545,8.938695,3.926993,0.593386,-0.517074,0.862248,0.455236,90.779723,179.284597,156.578767,0.696471,-0.688260,-0.138369,-0.148595,654.091309,94299.750000,0.121118,0.092839,2.927917,2.327820,2.278506,31.875000,37.786537,0,4.640000,0,0,0, 202
2611, 101,406366,406335,1,1,-0.168454,0.087973,9.805083,0.000471,0.004700,0.005924,9.419221,3.446467,2.034964,-0.097142,0.818658,0.319346,90.835068,179.297957,156.605869,0.696717,-0.688077,-0.138016,-0.148621,653.960938,94302.640625,-0.420661,-0.175193,2.927917,2.197449,2.273902,32.000000,37.795597,0,4.640000,0,0,0, 202
2612, 101,408581,408561,1,1,-0.151759,0.083793,9.814893,0.006308,-0.030660,0.015374,9.899747,3.446467,0.112860,0.083380,-0.186373,-0.169685,90.977942,179.342258,156.754412,0.696747,-0.688425,-0.137633,-0.147214,654.146240,94297.851562,0.149053,-0.028967,2.927917,2.382751,2.234024,31.875000,37.831833,0,4.640000,0,0,0, 202
2613, 101,410704,410686,1,1,-0.151672,0.074584,9.803668,-0.009233,-0.022997,0.004094,10.380273,3.446467,1.073912,-0.519729,-0.191698,0.388589,90.880086,179.406270,157.159579,0.696892,-0.689278,-0.135170,-0.144795,654.091797,94305.671875,0.021661,0.012531,2.927917,2.328308,2.302325,32.000000,37.849949,0,4.640000,0,0,0, 202
2614, 101,412831,412814,1,1,-0.163966,0.098878,9.807676,0.017860,0.016213,0.008516,9.419221,3.926993,1.554438,-0.118667,0.370423,-0.287558,90.812119,179.240993,156.916479,0.697388,-0.688180,-0.136304,-0.146562,654.055603,94304.476562,-0.242321,0.109769,2.927917,2.292114,2.362335,31.875000,37.859009,0,4.640000,0,0,0, 202
2615, 101,414969,414950,1,1,-0.156602,0.085638,9.798794,-0.007393,0.006270,-0.000586,10.380273,3.446467,1.554438,-1.255686,0.420138,-0.394417,90.787960,179.403661,156.466766,0.696384,-0.688065,-0.139297,-0.149038,654.103638,94303.101562,0.083096,-0.027143,2.927917,2.340149,2.321422,32.000000,37.877125,0,4.640000,0,0,0, 202
2616, 101,417109,417086,1,1,-0.175094,0.072239,9.787419,-0.030283,-0.004988,-0.011796,9.899747,2.965941,1.073912,-0.627402,-0.377587,-0.395974,90.828382,179.408825,156.293634,0.695894,-0.688109,-0.139668,-0.150768,653.849731,94308.703125,-0.323954,-0.099814,2.927917,2.086243,2.179602,32.000000,37.904301,0,4.640000,0,0,0, 202
2617, 101,419251,419251,1,1,-0.162776,0.083835,9.797956,0.000944,-0.006757,-0.001336,9.419221,4.888044,0.593386,-0.663895,-0.421485,-0.115889,90.872047,179.321398,156.201686,0.696289,-0.687485,-0.140553,-0.150967,653.947144,94301.203125,0.223833,0.009438,2.927917,2.183655,2.064998,32.125000,37.922421,0,4.640000,0,0,0, 202
2618, 101,421397,421392,1,1,-0.159767,0.106345,9.812614,0.006536,0.013218,0.013480,10.380273,3.446467,1.554438,-0.764493,0.972094,-0.076643,90.867327,179.358937,156.197165,0.696303,-0.687461,-0.140815,-0.150764,653.947266,94301.109375,0.142734,-0.041120,2.927917,2.183777,2.158579,32.125000,37.926949,0,4.630000,0,0,0, 202
2619, 101,423549,423533,1,1,-0.159877,0.079876,9.811089,0.017930,-0.003555,0.011699,9.899747,4.888044,2.034964,-0.163565,0.823575,0.351435,90.826653,179.232237,155.990975,0.695621,-0.687613,-0.141335,-0.152724,653.947510,94301.867188,0.066860,-0.003871,2.927917,2.184021,2.043447,32.250000,37.940536,0,4.630000,0,0,0, 202
2620, 101,425787,425779,1,1,-0.146026,0.098465,9.797575,0.028937,0.006917,-0.001887,10.860798,3.926993,1.073912,-0.262360,-0.684713,-0.747498,90.831318,179.282480,156.157686,0.695936,-0.687727,-0.140634,-0.151417,654.236633,94300.320312,1.332057,0.404148,2.927917,2.473145,2.307837,32.125000,37.967712,0,4.630000,0,0,0, 202
2621, 101,427996,427977,1,1,-0.173819,0.102779,9.805263,0.001901,0.016484,0.006328,9.419221,4.888044,1.554438,-0.161941,0.846389,-0.370651,90.863352,179.302588,156.163382,0.696162,-0.687514,-0.140680,-0.151302,653.916809,94310.007812,0.108625,0.106639,2.927917,2.153320,2.316221,32.250000,37.994888,0,4.630000,0,0,0, 202
2622, 101,430078,430072,1,1,-0.155438,0.095055,9.826407,-0.002506,0.020961,0.027074,10.380273,3.926993,1.073912,-0.460132,-0.796347,0.979778,90.750538,179.409043,156.200225,0.696314,-0.687460,-0.141032,-0.150517,653.895996,94304.546875,-0.819523,-0.328832,2.927917,2.132507,2.222003,32.250000,38.013004,0,4.630000,0,0,0, 202
2623, 101,432161,432128,1,1,-0.156750,0.086613,9.813759,-0.005192,0.029556,0.014347,8.938695,3.926993,0.593386,0.101132,-0.798109,-0.476681,90.662012,179.400601,155.957411,0.694809,-0.688358,-0.142779,-0.151716,654.001038,94303.343750,-0.125894,0.121124,2.927917,2.237549,2.217914,32.250000,38.022060,0,4.630000,0,0,0, 202
2624, 101,434252,434229,1,1,-0.161450,0.103207,9.810622,0.015933,0.005963,0.011479,9.419221,4.407518,0.593386,-0.253989,-0.307471,0.487723,90.903056,179.296646,155.639124,0.695993,-0.686334,-0.144194,-0.154101,654.065674,94300.015625,0.634035,0.054892,2.927917,2.302185,2.230417,32.250000,38.035648,0,4.620000,0,0,0, 202
2625, 101,436345,436332,1,1,-0.167221,0.093331,9.826555,0.000492,0.014916,0.027410,9.899747,5.368570,2.034964,0.066687,-0.102174,0.660948,90.810042,179.332354,155.706948,0.695273,-0.687234,-0.143670,-0.153829,653.826477,94306.726562,-0.439671,0.074930,2.927917,2.062988,2.194928,32.250000,38.058296,0,4.620000,0,0,0, 202
2626, 101,438444,438444,1,1,-0.159353,0.096187,9.824820,0.001686,0.004870,0.025581,10.860798,5.368570,1.554438,-0.432965,0.135334,0.348689,90.867525,179.377515,155.478588,0.695370,-0.686540,-0.145236,-0.155017,653.866577,94303.484375,-0.236670,0.083485,2.927917,2.103088,2.154883,32.250000,38.067352,0,4.620000,0,0,0, 202
2627, 101,440552,440507,1,1,-0.152765,0.086388,9.800906,-0.004720,-0.026080,0.001442,9.419221,3.446467,1.073912,0.033935,-0.126190,-0.148220,90.981753,179.423728,155.545687,0.696206,-0.685871,-0.144961,-0.154478,653.719971,94305.171875,-0.222305,-0.131711,2.927917,1.956482,1.912753,32.250000,38.085472,0,4.620000,0,0,0, 202
2628, 101,442751,442738,1,1,-0.163965,0.108069,9.814693,0.017975,0.014134,0.015631,10.380273,4.407518,2.034964,-0.898441,-0.219967,-0.649483,90.888474,179.285881,155.490076,0.695389,-0.686545,-0.144582,-0.155521,653.712219,94311.304688,-0.419254,0.016899,2.927917,1.948730,2.071668,32.250000,38.085472,0,4.620000,0,0,0, 202
2629, 101,444857,444817,1,1,-0.126860,0.158922,9.778872,0.052210,0.050486,-0.020284,10.380273,4.407518,2.034964,-0.003999,-0.498111,0.150086,90.860600,179.407718,155.309322,0.695140,-0.686327,-0.146443,-0.155854,653.810547,94307.218750,0.231174,0.056068,2.927917,2.047058,2.067365,32.250000,38.085472,0,4.620000,0,0,0, 202
2630, 101,446969,446935,1,1,-0.156987,0.088309,9.823939,0.005941,-0.001799,0.024588,9.419221,4.407518,1.554438,-0.697396,0.026904,0.905426,90.864254,179.353432,154.986363,0.694646,-0.685961,-0.148042,-0.158142,653.504883,94306.953125,-0.545589,-0.201914,2.927917,1.741394,1.806068,32.250000,38.099056,0,4.610000,0,0,0, 202
2631, 101,449229,449226,1,1,-0.170218,0.094235,9.808808,-0.009377,0.014026,0.009723,9.899747,7.290674,2.034964,0.054189,-0.455049,-0.180242,90.834242,179.382488,155.238110,0.694851,-0.686429,-0.146752,-0.156403,653.595825,94308.375000,-0.051190,-0.030601,2.927917,1.832336,1.864140,32.375000,38.130760,0,4.620000,0,0,0, 202
2632, 101,451353,451311,1,1,-0.156028,0.089829,9.812521,-0.004025,-0.005223,0.013170,9.899747,4.888044,0.593386,-0.316662,-0.281490,-1.027984,90.891144,179.420026,154.964971,0.694868,-0.685683,-0.148538,-0.157909,653.459534,94310.328125,-0.568402,-0.067702,2.927917,1.696045,1.826347,32.375000,38.135292,0,4.620000,0,0,0, 202
2633, 101,453485,453446,1,1,-0.169160,0.094186,9.804847,-0.004377,0.009056,0.005753,9.899747,2.965941,1.073912,-0.687468,-0.475297,0.406605,90.862580,179.361000,155.082218,0.694778,-0.686085,-0.147517,-0.157513,653.517944,94308.109375,-0.150418,0.125997,2.927917,1.754456,1.772448,32.375000,38.144348,0,4.610000,0,0,0, 202
2634, 101,455618,455580,1,1,-0.163689,0.090340,9.804121,-0.005865,0.004374,0.004901,9.899747,3.926993,1.554438,0.283543,-0.892780,0.217648,90.858127,179.391872,154.907160,0.694552,-0.685845,-0.148758,-0.158384,653.473633,94311.929688,-0.114396,-0.066929,2.927917,1.710144,1.746415,32.500000,38.157936,0,4.610000,0,0,0, 202
2635, 101,457762,457724,1,1,-0.156473,0.095399,9.815581,0.012123,0.022842,0.016258,9.419221,4.407518,2.034964,-1.144927,0.067354,0.089271,90.755592,179.334294,155.161995,0.694210,-0.686870,-0.147023,-0.157052,653.287964,94310.460938,-0.240670,-0.162962,2.927917,1.524475,1.610151,32.375000,38.180580,0,4.610000,0,0,0, 202
2636, 101,459991,459957,1,1,-0.162136,0.072328,9.799061,0.029078,0.031511,-0.000425,9.899747,3.926993,2.034964,-0.305265,1.319459,0.337397,90.598354,179.148103,155.106124,0.692937,-0.687992,-0.146445,-0.158302,653.365479,94308.328125,0.143530,-0.221420,2.927917,1.601990,1.545945,32.375000,38.185108,0,4.600000,0,0,0, 202
2637, 101,462133,462096,1,1,-0.160237,0.095598,9.805512,0.013576,0.000242,0.006278,9.419221,4.888044,1.554438,-0.614257,0.114716,-0.084667,90.897756,179.304296,155.248765,0.695140,-0.686159,-0.146126,-0.156887,653.260620,94310.859375,-0.146255,-0.149376,2.927917,1.497131,1.495440,32.500000,38.212284,0,4.600000,0,0,0, 202
2638, 101,464281,464240,1,1,-0.170068,0.095707,9.819136,0.007113,0.019503,0.020053,9.899747,4.888044,0.593386,-0.789618,0.348778,-0.094702,90.810575,179.293709,155.089076,0.694385,-0.686497,-0.147138,-0.157807,653.305176,94311.523438,-0.020898,0.134344,2.927917,1.541687,1.541005,32.500000,38.230400,0,4.600000,0,0,0, 202
2639, 101,466435,466433,1,1,-0.168843,0.078201,9.797905,0.010890,0.016373,-0.001348,9.899747,3.926993,0.112860,-0.424604,0.185119,-1.018380,90.731816,179.229997,155.330482,0.694157,-0.687364,-0.145412,-0.156624,653.296143,94311.343750,-0.084811,0.205839,2.927917,1.532654,1.550816,32.500000,38.239456,0,4.600000,0,0,0, 202
2640, 101,468646,468631,1,1,-0.161532,0.100279,9.813351,0.024811,0.026163,0.014126,7.977643,1.524364,1.554438,-1.702618,0.324420,-0.930943,90.771336,179.240242,155.470501,0.695600,-0.686290,-0.145175,-0.155148,653.424561,94306.992188,0.405077,0.317638,2.927917,1.661072,1.551005,32.500000,38.253044,0,4.600000,0,0,0, 202
2641, 101,470731,470725,1,1,-0.165262,0.102582,9.816537,0.005568,0.005213,0.017461,9.899747,3.926993,1.554438,-0.476756,0.485355,-0.654488,90.918663,179.344744,155.097627,0.695317,-0.685582,-0.147386,-0.157447,653.219116,94310.812500,0.038503,-0.005488,2.927917,1.455627,1.414247,32.375000,38.266632,0,4.590000,0,0,0, 202
2642, 101,472823,472789,1,1,-0.164333,0.097928,9.811082,0.005624,0.027600,0.011906,9.899747,5.368570,1.073912,-0.520122,-0.527742,0.052875,90.758912,179.333706,155.335372,0.694466,-0.687073,-0.145976,-0.156009,653.268555,94309.429688,0.044126,0.142101,2.927917,1.505066,1.436706,32.500000,38.284748,0,4.600000,0,0,0, 202
2643, 101,474920,474896,1,1,-0.166759,0.105775,9.822605,0.004161,0.033348,0.023533,9.419221,2.485415,1.554438,-0.490021,-0.803182,-0.130436,90.773617,179.351779,155.186338,0.695453,-0.685680,-0.146850,-0.156915,653.295288,94311.296875,-0.388514,0.176465,2.927917,1.531799,1.595056,32.500000,38.293804,0,4.590000,0,0,0, 202
2644, 101,477104,477068,1,1,-0.156760,0.092829,9.805256,0.014543,0.004625,0.005936,9.419221,6.329622,1.554438,-0.608425,0.463539,-0.158910,90.848414,179.309473,155.302232,0.694925,-0.686519,-0.145905,-0.156469,653.036133,94315.117188,-0.868401,-0.195972,2.927917,1.272644,1.425492,32.500000,38.307392,0,4.590000,0,0,0, 202
2645, 101,479200,479178,1,1,-0.164085,0.107158,9.814478,0.029091,0.047178,0.015278,9.419221,3.446467,1.554438,-1.260853,0.023967,-0.409873,90.689292,179.215298,155.658085,0.696019,-0.686359,-0.143997,-0.154058,653.286621,94311.781250,0.606254,0.021666,2.927917,1.523132,1.378506,32.500000,38.320976,0,4.590000,0,0,0, 202
2646, 101,481303,481280,1,1,-0.143640,0.074083,9.794543,-0.014093,-0.031250,-0.005183,9.419221,4.407518,1.554438,0.369273,-1.921453,-0.114939,90.927221,179.499762,155.331028,0.694605,-0.686924,-0.146561,-0.155497,653.026672,94313.648438,-0.973155,-0.238893,2.927917,1.263184,1.343502,32.500000,38.330036,0,4.590000,0,0,0, 202
2647, 101,483409,483394,1,1,-0.166368,0.106871,9.802363,-0.001367,0.026393,0.003322,9.899747,4.407518,1.554438,-0.725010,0.808501,-1.123191,90.824686,179.393798,154.817125,0.695050,-0.685096,-0.149119,-0.159099,653.202332,94315.335938,0.303235,0.167530,2.927917,1.438843,1.402631,32.500000,38.348152,0,4.590000,0,0,0, 202
2648, 101,485524,485514,1,1,-0.157265,0.091438,9.802920,0.013093,0.012464,0.003591,8.938695,4.407518,1.554438,-0.204008,0.187784,0.710818,90.801020,179.317956,154.891437,0.694087,-0.686268,-0.148482,-0.158847,653.143677,94311.906250,0.067341,-0.062162,2.927917,1.380188,1.374641,32.625000,38.366264,0,4.590000,0,0,0, 202
2649, 101,487638,487635,1,1,-0.173916,0.091580,9.810279,-0.018531,0.026863,0.011193,8.938695,3.926993,1.554438,-0.119424,-0.267493,-0.056825,90.760168,179.417895,154.738865,0.693768,-0.686184,-0.150059,-0.159121,653.320129,94308.656250,0.424850,-0.069785,2.927917,1.556641,1.373530,32.625000,38.375324,0,4.590000,0,0,0, 202
2650, 101,489756,489713,1,1,-0.164903,0.093105,9.813553,0.000772,0.012099,0.014372,9.419221,3.926993,2.515490,-0.357335,0.155579,-0.553142,90.835478,179.362134,154.399554,0.693667,-0.685356,-0.151646,-0.161607,653.279114,94311.367188,-0.007665,0.244886,2.927917,1.515625,1.510483,32.625000,38.393440,0,4.590000,0,0,0, 202
2651, 101,491881,491875,1,1,-0.168860,0.086447,9.800464,-0.007913,-0.027320,0.001258,10.380273,3.926993,2.034964,0.177492,0.119729,0.821079,91.041360,179.373690,154.445002,0.694060,-0.685079,-0.151109,-0.161597,653.174805,94317.320312,0.607163,0.179642,2.927917,1.411316,1.431461,32.625000,38.402496,0,4.590000,0,0,0, 202
2652, 101,494099,494073,1,1,-0.160353,0.104948,9.789063,0.005534,-0.003779,-0.010063,7.497117,9.212777,4.918118,-0.429732,-0.921892,-0.019481,90.977847,179.380684,154.755612,0.695042,-0.684937,-0.149431,-0.159526,653.064941,94316.875000,-0.342902,-0.031888,2.927917,1.301453,1.464783,32.625000,38.425140,0,4.590000,0,0,0, 202
2653, 101,496232,496204,1,1,-0.164824,0.090143,9.801658,0.015847,-0.009197,0.002441,9.419221,4.407518,1.554438,0.087352,0.792383,0.255796,90.940069,179.259189,154.850538,0.694609,-0.685635,-0.148743,-0.159058,653.291504,94312.687500,-0.613839,0.134917,2.927917,1.528015,1.584773,32.625000,38.429668,0,4.590000,0,0,0, 202
2654, 101,498368,498337,1,1,-0.163112,0.089572,9.799187,-0.002872,-0.020825,-0.000069,9.419221,3.926993,0.112860,0.064863,-0.268006,-0.548809,91.002244,179.377802,154.739438,0.694486,-0.685455,-0.149538,-0.159622,653.364685,94309.257812,0.104172,-0.155620,2.927917,1.601196,1.580059,32.750000,38.447784,0,4.580000,0,0,0, 202
2655, 101,500509,500505,1,1,-0.150926,0.089792,9.795254,0.015767,-0.012349,-0.004193,9.899747,3.446467,1.073912,-0.292136,0.907544,-0.393050,90.922017,179.330824,154.921900,0.694871,-0.685557,-0.148211,-0.158742,653.215332,94310.015625,-0.466266,-0.293407,2.927917,1.451843,1.493715,32.625000,38.461369,0,4.580000,0,0,0, 202
2656, 101,502649,502642,1,1,-0.160624,0.087453,9.813843,0.014262,-0.010524,0.014531,9.899747,4.888044,1.073912,-0.640613,1.196922,0.235024,90.923936,179.287507,154.676122,0.694481,-0.685283,-0.149415,-0.160493,653.179504,94311.695312,-0.249513,-0.042206,2.927917,1.416016,1.462708,32.625000,38.479485,0,4.580000,0,0,0, 202
2657, 101,504802,504783,1,1,-0.168355,0.079917,9.799429,-0.001969,-0.003490,0.000200,9.899747,3.926993,1.073912,-0.882380,-0.266873,0.746361,90.864964,179.323215,154.570227,0.693905,-0.685580,-0.150311,-0.160883,653.303101,94310.492188,0.218267,0.118683,2.927917,1.539612,1.479142,32.750000,38.488544,0,4.570000,0,0,0, 202
2658, 101,506955,506927,1,1,-0.169978,0.108137,9.817318,-0.006844,0.005724,0.018381,9.899747,2.965941,1.073912,-0.596184,-0.582319,-0.633340,90.963927,179.417526,154.428405,0.694681,-0.684407,-0.151372,-0.161529,653.406128,94309.289062,0.556026,0.181824,2.927917,1.642639,1.485098,32.750000,38.497601,0,4.580000,0,0,0, 202
2659, 101,509168,509128,1,1,-0.171306,0.086902,9.813598,-0.007345,-0.001896,0.014475,10.380273,5.849096,0.593386,0.098038,0.197916,-0.055092,90.902004,179.361942,154.285832,0.693903,-0.684803,-0.152231,-0.162385,653.185181,94312.085938,-0.076811,-0.091444,2.927917,1.421692,1.426996,32.750000,38.511185,0,4.570000,0,0,0, 202
2660, 101,511344,511330,1,1,-0.163681,0.088311,9.797443,-0.023140,0.012057,-0.001826,9.419221,3.926993,1.554438,-0.297635,-0.621990,0.471438,90.805958,179.491456,154.647285,0.694225,-0.685465,-0.150173,-0.160117,653.072144,94314.882812,0.008661,-0.086414,2.927917,1.308655,1.297941,32.750000,38.524773,0,4.570000,0,0,0, 202
2661, 101,513425,513385,1,1,-0.171567,0.102520,9.793406,0.008855,0.021694,-0.005582,9.419221,3.446467,2.034964,-1.392008,1.683071,-0.169938,90.847581,179.302206,154.398229,0.693654,-0.685362,-0.151273,-0.161988,653.167969,94315.632812,1.121035,0.155147,2.927917,1.404480,1.319005,32.750000,38.538357,0,4.570000,0,0,0, 202
2662, 101,515511,515488,1,1,-0.164756,0.101126,9.825639,-0.009062,-0.000885,0.026536,10.380273,4.407518,2.034964,0.506832,0.139325,0.319451,90.948402,179.435790,154.730750,0.694907,-0.685009,-0.149955,-0.159309,653.003967,94313.406250,-0.124821,-0.005552,2.927917,1.240479,1.259638,32.750000,38.547417,0,4.570000,0,0,0, 202
2663, 101,517603,517593,1,1,-0.166538,0.084813,9.802262,0.001399,-0.015136,0.003032,10.380273,3.926993,2.034964,0.085097,0.833286,-0.317606,90.952233,179.323256,154.725805,0.694769,-0.685129,-0.149295,-0.160016,653.006287,94313.226562,-0.264545,-0.011071,2.927917,1.242798,1.201801,32.750000,38.556473,0,4.570000,0,0,0, 202
2664, 101,519699,519659,1,1,-0.162799,0.090795,9.806351,0.001453,-0.015749,0.007109,9.419221,2.965941,1.554438,-0.247168,-0.484733,-0.069716,90.979718,179.360727,154.542374,0.694728,-0.684673,-0.150581,-0.160940,653.064636,94311.000000,0.025664,-0.060468,2.927917,1.301147,1.205625,32.875000,38.565529,0,4.560000,0,0,0, 202
2665, 101,521802,521760,1,1,-0.150319,0.091422,9.808603,-0.000685,-0.004006,-0.000507,9.899747,4.407518,2.034964,0.177037,0.276064,-0.249341,90.858407,179.369961,154.679592,0.694207,-0.685575,-0.149987,-0.159894,653.093994,94314.726562,-0.313818,0.151366,2.927917,1.330505,1.349133,32.875000,38.583645,0,4.560000,0,0,0, 202
2666, 101,523914,523881,1,1,-0.172011,0.093406,9.801905,-0.006460,-0.002091,0.002856,9.899747,3.446467,2.034964,-0.628610,0.143906,-0.079917,90.936182,179.363172,154.633038,0.694598,-0.685052,-0.150115,-0.160319,652.958130,94314.546875,-0.213326,0.027770,2.927917,1.194641,1.236039,33.000000,38.592701,0,4.550000,0,0,0, 202
2667, 101,526035,526007,1,1,-0.166122,0.086321,9.811090,-0.027141,0.001101,0.011839,9.899747,4.407518,1.073912,0.037790,-0.760927,-0.128398,90.864541,179.497850,154.635633,0.694194,-0.685462,-0.150156,-0.160277,652.854736,94318.273438,-0.014248,-0.039604,2.927917,1.091248,1.066037,32.875000,38.610817,0,4.550000,0,0,0, 202
2668, 101,528241,528230,1,1,-0.159432,0.089085,9.807509,0.009302,0.000851,0.008205,9.419221,4.407518,2.034964,-0.167001,0.124478,-0.130338,90.862922,179.325251,154.751132,0.694273,-0.685701,-0.149281,-0.159734,653.066162,94311.773438,0.371212,-0.090134,2.927917,1.302673,1.118362,32.875000,38.628929,0,4.550000,0,0,0, 202
2669, 101,530358,530352,1,1,-0.168820,0.094641,9.803049,0.010465,0.004417,0.003953,10.380273,4.888044,0.112860,0.878277,0.216638,0.663693,90.895652,179.282972,154.714481,0.694359,-0.685511,-0.149197,-0.160251,652.743469,94320.710938,-0.017212,-0.115728,2.927917,0.979980,1.077774,32.875000,38.642517,0,4.550000,0,0,0, 202
2670, 101,532481,532473,1,1,-0.155320,0.092885,9.826418,0.008137,-0.008395,0.027077,9.419221,3.446467,0.593386,-0.437867,-0.058219,-0.227523,90.928082,179.369128,154.447557,0.694094,-0.685060,-0.151588,-0.161080,652.809448,94317.546875,0.307265,-0.012493,2.927917,1.045959,0.960146,32.875000,38.647045,0,4.550000,0,0,0, 202
2671, 101,534607,534604,1,1,-0.157746,0.093539,9.803634,0.014230,0.026270,0.004303,10.380273,4.407518,2.034964,-0.271197,0.309698,-0.048499,90.738968,179.323516,154.280409,0.692867,-0.685834,-0.152261,-0.162430,652.685608,94318.296875,-0.483183,-0.020506,2.927917,0.922119,0.988248,32.875000,38.660629,0,4.550000,0,0,0, 202
2672, 101,536738,536738,1,1,-0.164283,0.097702,9.806067,0.005725,0.004644,0.006927,10.860798,3.926993,2.515490,-0.310467,0.520495,0.287718,90.901977,179.347080,154.431137,0.694088,-0.685016,-0.151272,-0.161593,652.849854,94316.164062,-0.596034,0.168091,2.927917,1.086365,1.068516,32.875000,38.665157,0,4.540000,0,0,0, 202
2673, 101,538874,538874,1,1,-0.168387,0.101990,9.803407,-0.013867,0.011816,0.004366,9.419221,4.407518,1.554438,-0.046762,-0.585922,-0.160528,90.894832,179.452989,154.287444,0.693990,-0.684725,-0.152784,-0.161823,652.760498,94319.890625,0.192052,0.063249,2.927917,0.997009,0.944982,33.000000,38.683273,0,4.550000,0,0,0, 202
2674, 101,541095,541092,1,1,-0.169451,0.081646,9.805410,-0.002997,0.000426,0.006214,10.860798,6.329622,1.073912,-0.515963,-0.252712,0.426081,90.857075,179.332750,154.265396,0.693565,-0.685087,-0.152240,-0.162623,652.888977,94318.320312,0.713346,0.243271,2.927917,1.125488,1.103865,33.000000,38.710442,0,4.540000,0,0,0, 202
2675, 101,543240,543233,1,1,-0.166566,0.087078,9.798407,-0.010770,0.011615,-0.000804,9.419221,6.329622,1.073912,-0.099694,-0.181585,0.041910,90.812611,179.405437,154.348027,0.693517,-0.685368,-0.152249,-0.161630,652.876587,94316.273438,-0.424320,-0.056760,2.927917,1.113098,1.178243,32.875000,38.710442,0,4.540000,0,0,0, 202
2676, 101,545479,545439,1,1,-0.164189,0.087854,9.794632,0.004245,-0.009882,-0.004604,9.419221,3.446467,1.073912,-0.447810,1.334101,0.204815,90.935916,179.330769,154.420605,0.694253,-0.684818,-0.151188,-0.161799,652.721313,94319.070312,-0.267040,0.038284,2.927917,0.957825,1.018232,33.000000,38.724030,0,4.540000,0,0,0, 202
2677, 101,547629,547628,1,1,-0.180637,0.099671,9.809529,-0.028658,0.036098,0.010590,10.860798,3.926993,2.034964,-0.877789,-0.881411,0.230686,90.768290,179.465147,154.534929,0.693597,-0.685804,-0.151556,-0.160084,652.990295,94314.976562,0.522495,0.006998,2.927917,1.226807,1.126749,33.000000,38.724030,0,4.540000,0,0,0, 202
2678, 101,549843,549828,1,1,-0.151774,0.117802,9.808249,0.021452,0.015533,0.009095,9.419221,5.368570,1.554438,0.103995,-0.031494,0.234478,90.913540,179.373909,154.318630,0.694035,-0.684761,-0.152091,-0.162130,652.841187,94316.835938,0.367043,0.055477,2.927917,1.077698,1.047033,33.000000,38.733086,0,4.540000,0,0,0, 202
2679, 101,551928,551923,1,1,-0.165808,0.101007,9.795213,-0.008465,0.019386,-0.003886,9.899747,3.926993,1.554438,0.305880,0.055542,0.178575,90.840157,179.432894,154.235111,0.694107,-0.684455,-0.152641,-0.162592,652.873962,94315.726562,0.968978,0.071122,2.927917,1.110474,1.022065,33.000000,38.737614,0,4.540000,0,0,0, 202
2680, 101,554016,553984,1,1,-0.157638,0.079773,9.786374,0.012650,-0.024250,-0.013070,9.899747,5.368570,1.073912,-1.016881,1.490689,-0.644642,90.965668,179.300498,154.049043,0.693860,-0.684185,-0.153182,-0.164269,652.866333,94317.312500,-0.324585,0.209628,2.927917,1.102844,1.177837,33.125000,38.760258,0,4.540000,0,0,0, 202
2681, 101,556110,556089,1,1,-0.165741,0.083273,9.810062,0.010186,0.003216,0.010810,11.821850,-1.358791,-1.809243,-0.182362,1.129953,0.380863,90.842827,179.284024,153.978624,0.693180,-0.684683,-0.153974,-0.164328,652.858215,94316.109375,-0.408889,-0.026557,2.927917,1.094727,1.091008,33.125000,38.769314,0,4.530000,0,0,0, 202
2682, 101,558223,558206,1,1,-0.174526,0.113108,9.804221,0.007805,0.028597,0.005382,8.458169,4.888044,2.034964,-0.142895,1.059833,-0.285204,90.874205,179.327887,153.977066,0.693249,-0.684605,-0.153909,-0.164419,652.812744,94314.804688,-0.160837,-0.099914,2.927917,1.049255,1.008206,33.000000,38.782898,0,4.520000,0,0,0, 202
2683, 101,560323,560315,1,1,-0.157547,0.092320,9.795657,0.014199,0.003174,-0.003652,9.899747,3.446467,1.073912,-0.359527,0.182944,-0.132932,90.873693,179.330086,153.701304,0.692852,-0.684233,-0.155570,-0.166073,652.852722,94315.742188,0.065896,-0.004903,2.927917,1.089233,1.071340,33.000000,38.787426,0,4.520000,0,0,0, 202
2684, 101,562515,562478,1,1,-0.175900,0.046210,9.821717,-0.018877,-0.028001,0.022343,9.419221,2.965941,0.112860,-0.494849,0.113192,-0.376402,90.859145,179.309364,153.727464,0.692773,-0.684385,-0.155309,-0.166019,652.782715,94315.554688,-0.059957,-0.126089,2.927917,1.019226,0.995301,33.000000,38.796482,0,4.520000,0,0,0, 202
2685, 101,564622,564595,1,1,-0.176001,0.091849,9.818476,-0.007515,0.010194,0.019474,9.419221,3.926993,1.554438,0.152412,0.516751,0.261975,90.874513,179.358678,153.819043,0.693330,-0.684077,-0.154726,-0.165503,652.825684,94319.562500,0.579585,0.008720,2.927917,1.062195,1.010994,33.125000,38.801010,0,4.520000,0,0,0, 202
2686, 101,566735,566715,1,1,-0.167711,0.088695,9.789647,-0.000601,0.000993,-0.009515,10.380273,1.524364,1.073912,-0.415552,0.531447,-0.398072,90.895673,179.355454,153.581530,0.692872,-0.683874,-0.156380,-0.166703,652.657410,94320.218750,-0.022990,-0.266212,2.927917,0.893921,0.968326,33.000000,38.819126,0,4.520000,0,0,0, 202
2687, 101,568854,568841,1,1,-0.144026,0.212121,9.814094,0.080029,0.102035,0.015586,9.419221,5.368570,0.593386,-0.733731,0.108552,0.342554,90.886862,179.327095,153.721986,0.696752,-0.680362,-0.157140,-0.164166,652.862793,94316.867188,0.897297,0.008258,2.927917,1.099304,1.049215,33.125000,38.832710,0,4.520000,0,0,0, 202
2688, 101,570978,570968,1,1,-0.163328,0.083083,9.805522,0.002833,-0.003181,0.006233,8.938695,3.926993,1.073912,-0.767505,0.534982,-0.083967,90.874793,179.340673,153.855516,0.693096,-0.684420,-0.154712,-0.165079,652.841553,94315.664062,-0.550528,0.201123,2.927917,1.078064,1.105510,33.000000,38.841766,0,4.510000,0,0,0, 202
2689, 101,573106,573086,1,1,-0.164004,0.081253,9.817150,-0.004212,-0.006557,0.017853,8.938695,3.926993,0.593386,0.238301,-0.238357,0.590936,90.883467,179.371546,154.044166,0.693225,-0.684817,-0.153677,-0.163853,652.595581,94322.367188,-0.500716,-0.162135,2.927917,0.832092,0.946065,33.000000,38.864407,0,4.520000,0,0,0, 202
2690, 101,575237,575214,1,1,-0.174631,0.037312,9.831073,-0.029289,-0.032296,0.031598,9.419221,4.888044,1.554438,-0.118724,-0.905341,-0.251748,90.830554,179.351970,153.940566,0.691736,-0.686017,-0.153661,-0.165138,653.107178,94311.289062,0.186662,0.162633,2.927917,1.343689,1.176386,33.125000,38.855350,0,4.500000,0,0,0, 202
2691, 101,577376,577346,1,1,-0.170268,0.083531,9.819543,-0.004024,0.003188,0.020373,9.899747,4.888044,2.034964,-0.269657,0.379542,-0.622624,90.857410,179.347531,153.784127,0.692968,-0.684347,-0.155054,-0.165597,652.939392,94316.132812,0.192237,-0.145680,2.927917,1.175903,1.157802,33.125000,38.868938,0,4.500000,0,0,0, 202
2692, 101,579611,579596,1,1,-0.156412,0.069754,9.794387,0.014346,-0.012356,-0.005134,9.419221,3.926993,1.073912,-0.493952,0.682100,-0.688259,90.843469,179.276715,153.693559,0.692583,-0.684478,-0.155337,-0.166397,653.008362,94312.781250,0.338784,-0.012778,2.927917,1.244873,1.181536,33.125000,38.882523,0,4.500000,0,0,0, 202
2693, 101,581904,581901,1,1,-0.172964,0.080334,9.789028,-0.019315,0.007373,-0.010136,9.899747,2.485415,1.554438,-0.493735,-0.172441,-0.084864,90.828067,179.415409,153.596201,0.692549,-0.684247,-0.156781,-0.166138,652.692871,94321.351562,-1.347130,0.030938,2.927917,0.929382,1.144202,33.125000,38.914219,0,4.500000,0,0,0, 202
2694, 101,584041,584040,1,1,-0.167306,0.091147,9.810740,-0.023217,0.008825,0.011558,9.899747,4.407518,0.593386,0.154690,0.499337,-0.320956,90.861337,179.499625,153.441948,0.692644,-0.683717,-0.158163,-0.166615,652.875793,94315.578125,-0.520968,-0.046367,2.927917,1.112305,1.177472,33.125000,38.896107,0,4.490000,0,0,0, 202
2695, 101,586186,586178,1,1,-0.157862,0.100888,9.807755,0.020853,0.013803,0.008513,8.938695,3.446467,1.554438,-0.988998,0.294124,1.469597,90.861549,179.321494,153.157020,0.691970,-0.683572,-0.158784,-0.169397,652.764404,94319.492188,-0.16742'b'8,-0.103436,2.927917,1.000916,1.111432,33.125000,38.905163,0,4.490000,0,0,0, 202
2696, 101,588345,588327,1,1,-0.160353,0.099987,9.797547,0.018516,0.008625,-0.001652,9.419221,3.926993,0.593386,0.127224,0.849563,-0.086563,90.898446,179.325497,152.768997,0.692034,-0.682390,-0.161579,-0.171243,652.743774,94317.257812,-0.758857,-0.011139,2.927917,0.980286,1.046230,33.250000,38.914219,0,4.490000,0,0,0, 202
2697, 101,590554,590525,1,1,-0.167599,0.082655,9.805937,-0.003239,-0.012909,0.006708,9.419221,3.926993,2.996016,-0.069532,0.690817,0.597957,90.952117,179.368267,152.830086,0.692092,-0.682502,-0.160881,-0.171219,652.808228,94317.164062,0.153266,-0.172339,2.927917,1.044739,1.072775,33.125000,38.918747,0,4.490000,0,0,0, 202
2698, 101,592646,592616,1,1,-0.164095,0.114356,9.816613,0.010470,0.002870,0.017645,9.419221,4.888044,1.073912,-0.218354,-0.301847,-0.303310,91.015508,179.394003,152.697102,0.692308,-0.681895,-0.161734,-0.171959,652.679138,94319.867188,0.080430,0.049392,2.927917,0.915649,1.063653,33.250000,38.936859,0,4.490000,0,0,0, 202
2699, 101,594742,594724,1,1,-0.163485,0.087082,9.805133,0.013413,0.007610,0.005870,8.938695,3.926993,1.554438,-0.310309,0.536676,-0.191706,90.849357,179.311372,152.362874,0.691037,-0.682201,-0.163834,-0.173863,652.805847,94317.820312,0.527929,0.172553,2.927917,1.042358,1.010430,33.125000,38.936859,0,4.490000,0,0,0, 202
2700, 101,596920,596892,1,1,-0.158463,0.082880,9.794933,-0.003947,-0.006887,-0.004438,8.938695,3.926993,1.073912,-1.120506,-0.345988,0.024972,90.896492,179.422308,152.664372,0.691593,-0.682527,-0.162279,-0.171820,652.671143,94316.429688,-0.541448,-0.167635,2.927917,0.907654,0.957019,33.250000,38.954975,0,4.480000,0,0,0, 202
2701, 101,599013,598997,1,1,-0.156125,0.073094,9.809555,0.006437,-0.016454,0.010054,10.380273,3.926993,2.515490,-0.546312,0.523895,-0.112058,90.892387,179.346329,152.813407,0.691214,-0.683345,-0.161268,-0.171041,652.796082,94320.335938,1.041995,0.127613,2.927917,1.032593,0.957085,33.250000,38.964031,0,4.480000,0,0,0, 202
2702, 101,601112,601110,1,1,-0.160092,0.086784,9.806870,0.013256,-0.002173,0.007552,8.938695,4.407518,0.593386,-0.668818,0.963729,-0.596452,90.896718,179.330797,152.257143,0.690842,-0.682078,-0.164150,-0.174821,652.807495,94315.125000,0.178728,0.104908,2.927917,1.044006,0.965612,33.125000,38.968559,0,4.470000,0,0,0, 202
2703, 101,603216,603213,1,1,-0.170537,0.074847,9.799835,-0.004329,0.001810,0.000604,10.860798,4.407518,1.554438,-1.149719,-0.409082,0.516601,90.844255,179.351055,151.957953,0.690123,-0.681909,-0.165983,-0.176578,652.860657,94316.054688,-0.174686,-0.021581,2.927917,1.097168,1.136251,33.250000,38.973087,0,4.470000,0,0,0, 202
2704, 101,605321,605285,1,1,-0.167484,0.091789,9.796910,0.006238,0.008189,-0.002234,8.938695,4.407518,0.593386,-0.492585,0.586918,-0.295593,90.887743,179.353664,151.819095,0.690150,-0.681466,-0.166908,-0.177312,652.769165,94319.781250,-0.248394,0.100012,2.927917,1.005676,1.085423,33.250000,38.991199,0,4.470000,0,0,0, 202
2705, 101,607434,607402,1,1,-0.169507,0.071318,9.808719,-0.016819,-0.009422,0.009424,8.458169,4.407518,0.112860,0.028713,-0.940630,-0.501702,90.888187,179.420341,151.948937,0.690023,-0.681980,-0.166088,-0.176595,652.804993,94315.593750,-0.158332,-0.038512,2.927917,1.041504,1.103984,33.250000,38.995728,0,4.460000,0,0,0, 202
2706, 101,609558,609528,1,1,-0.167307,0.075084,9.807169,-0.015055,-0.027249,0.007834,9.419221,3.446467,1.073912,1.406775,-0.163369,0.658672,91.005010,179.430586,152.020422,0.690301,-0.681916,-0.165744,-0.176082,652.844543,94319.601562,0.499338,0.065448,2.927917,1.081055,1.056301,33.375000,39.000256,0,4.460000,0,0,0, 202
2707, 101,611681,611649,1,1,-0.163934,0.104679,9.815164,0.010678,0.002660,0.016084,9.899747,5.368570,0.593386,-0.275342,1.116862,-0.274185,90.974507,179.382064,151.858260,0.690769,-0.680958,-0.166713,-0.177033,652.708435,94320.437500,-0.088784,-0.045096,2.927917,0.944946,1.025881,33.375000,39.009312,0,4.450000,0,0,0, 202
2708, 101,613895,613871,1,1,-0.168263,0.107207,9.813290,0.009182,0.019726,0.014293,8.938695,4.407518,0.593386,-0.002179,0.502835,0.044085,90.903684,179.381955,151.486424,0.690461,-0.680145,-0.169156,-0.179033,652.719666,94320.164062,0.215469,-0.013373,2.927917,0.956177,0.959920,33.250000,39.022896,0,4.450000,0,0,0, 202
2709, 101,616019,615996,1,1,-0.173096,0.088390,9.796925,-0.026444,0.004996,-0.002185,8.938695,4.888044,2.034964,0.259121,-1.113068,0.185372,90.908199,179.512002,151.480168,0.689926,-0.680655,-0.168979,-0.179321,652.491638,94324.164062,-0.600324,0.006595,2.927917,0.728149,0.899878,33.250000,39.027424,0,4.450000,0,0,0, 202
2710, 101,618149,618125,1,1,-0.128939,-0.067006,9.744143,-0.036538,-0.167261,-0.057278,9.419221,3.926993,0.112860,-0.385760,0.517533,-1.054239,91.002674,179.360672,151.250482,0.684376,-0.685522,-0.170393,-0.180707,652.625183,94318.859375,-0.510964,-0.043555,2.927917,0.861694,0.950690,33.250000,39.036480,0,4.440000,0,0,0, 202
2711, 101,620288,620259,1,1,-0.165743,0.091071,9.805254,-0.005743,-0.003320,0.006075,8.938695,4.407518,2.034964,-0.160643,-1.101652,0.855783,90.950212,179.438167,151.389586,0.689831,-0.680482,-0.169721,-0.179645,652.582153,94319.601562,-0.260919,-0.082108,2.927917,0.818665,0.823840,33.375000,39.050064,0,4.440000,0,0,0, 202
2712, 101,622432,622395,1,1,-0.167961,0.096147,9.805717,0.008036,0.001487,0.006623,9.419221,3.926993,0.112860,-0.650401,1.199126,-0.002253,90.952855,179.358117,151.531763,0.690097,-0.680646,-0.168541,-0.179111,652.347900,94325.562500,-0.108582,-0.144169,2.927917,0.584412,0.712188,33.375000,39.059120,0,4.440000,0,0,0, 202
2713, 101,624574,624569,1,1,-0.167678,0.093148,9.802361,-0.009368,0.014335,0.003222,9.419221,4.888044,1.554438,0.962062,-0.697476,-0.246220,90.861146,179.451541,151.603466,0.690178,-0.680783,-0.168412,-0.178398,652.517212,94319.328125,0.086754,-0.120427,2.927917,0.753723,0.731467,33.250000,39.063648,0,4.430000,0,0,0, 202
2714, 101,626728,626711,1,1,-0.159144,0.088038,9.816830,-0.008272,-0.000130,0.017511,9.899747,3.926993,1.073912,-0.311325,-0.563482,0.710859,90.897366,179.480282,151.302924,0.689597,-0.680458,-0.170724,-0.179683,652.491455,94316.062500,-0.754625,0.078151,2.927917,0.727966,0.795478,33.250000,39.072704,0,4.420000,0,0,0, 202
2715, 101,628883,628853,1,1,-0.164251,0.092721,9.807837,0.011529,0.018754,0.008625,8.938695,3.926993,1.073912,-0.679824,1.065725,0.184974,90.827548,179.353254,151.170883,0.689459,-0.680190,-0.171057,-0.180908,652.623291,94318.023438,-0.145940,0.099980,2.927917,0.859802,0.864003,33.250000,39.077232,0,4.420000,0,0,0, 202
2716, 101,631181,631158,1,1,-0.168391,0.086596,9.806885,0.009332,0.005857,0.007706,9.899747,3.446467,1.073912,-0.251087,0.446780,-0.363278,90.883016,179.327204,151.194256,0.689364,-0.680356,-0.170712,-0.180972,652.464539,94324.078125,-0.753033,-0.020985,2.927917,0.701050,0.830588,33.375000,39.081760,0,4.410000,0,0,0, 202
2717, 101,633259,633245,1,1,-0.174058,0.166303,9.857984,0.038587,0.050161,0.059719,10.380273,3.926993,1.554438,-0.018210,0.598325,-0.350432,91.042535,179.354511,151.215525,0.691998,-0.677762,-0.171037,-0.180343,652.694153,94318.765625,0.421464,-0.043775,2.927917,0.930664,0.876137,33.375000,39.090816,0,4.400000,0,0,0, 202
2718, 101,635343,635307,1,1,-0.156349,0.088070,9.812781,0.014371,0.003029,0.013411,9.419221,4.407518,0.593386,-1.028339,-0.146867,-0.071426,90.873686,179.365576,151.089713,0.688942,-0.680456,-0.171336,-0.181609,652.534485,94323.609375,0.192809,0.069092,2.927917,0.770996,0.860143,33.375000,39.104401,0,4.400000,0,0,0, 202
2719, 101,637439,637417,1,1,-0.157093,0.085482,9.796308,0.027829,-0.000375,-0.003100,10.380273,5.368570,1.554438,-0.093494,0.735994,-0.622895,90.883638,179.274229,151.118714,0.689125,-0.680371,-0.171470,-0.181107,652.672363,94318.765625,-0.312911,0.029112,2.927917,0.908875,0.919984,33.375000,39.090816,0,4.400000,0,0,0, 202
2720, 101,639534,639521,1,1,-0.166231,0.091877,9.802774,0.011534,0.004351,0.003607,9.899747,4.407518,1.554438,-0.412763,-0.174589,-0.395001,90.916805,179.345823,150.839359,0.688769,-0.679851,-0.172634,-0.183296,652.558533,94323.515625,0.179941,-0.081430,2.927917,0.795044,0.913796,33.375000,39.108929,0,4.390000,0,0,0, 202
2721, 101,641635,641594,1,1,-0.161580,0.088306,9.798091,0.014503,-0.000881,-0.001190,9.419221,3.926993,0.593386,-0.628452,1.389432,-0.460629,90.917024,179.342777,150.772697,0.688659,-0.679754,-0.173011,-0.183715,652.475464,94325.476562,-0.078002,0.094584,2.927917,0.711975,0.903664,33.375000,39.113457,0,4.390000,0,0,0, 202
2722, 101,643741,643695,1,1,-0.166009,0.099701,9.804988,-0.007516,-0.001778,0.005897,10.380273,3.446467,1.073912,0.118939,-0.831671,0.043537,90.995100,179.486662,150.491061,0.688896,-0.678634,-0.175422,-0.184676,652.830200,94314.109375,0.409562,0.176841,2.927917,1.066711,0.948492,33.375000,39.117985,0,4.380000,0,0,0, 202
2723, 101,645856,645821,1,1,-0.168453,0.098391,9.815849,-0.002829,0.006391,0.016785,9.419221,4.407518,1.554438,-0.246317,0.038832,-0.374236,90.949925,179.449301,150.165192,0.688041,-0.678462,-0.177200,-0.186785,652.853577,94313.921875,-0.118472,0.062698,2.927917,1.090088,1.055035,33.375000,39.127041,0,4.370000,0,0,0, 202
2724, 101,648076,648059,1,1,-0.166801,0.096511,9.789841,-0.010093,0.022217,-0.009293,8.458169,3.926993,1.073912,0.368387,0.781830,-0.447866,90.848770,179.498929,149.832617,0.687583,-0.677854,-0.179126,-0.188831,652.821289,94315.789062,-0.260486,-0.007754,2.927917,1.057800,1.083602,33.500000,39.136097,0,4.360000,0,0,0, 202
2725, 101,650192,650177,1,1,-0.183799,0.100662,9.808611,-0.005795,0.018409,0.009830,10.380273,4.407518,1.554438,-0.180495,0.870314,-0.106039,90.943054,179.405874,149.574135,0.686957,-0.677650,-0.180447,-0.190576,652.617920,94319.882812,0.122084,0.039515,2.927917,0.854431,0.971064,33.375000,39.136097,0,4.350000,0,0,0, 202
2726, 101,652309,652297,1,1,-0.169351,0.126258,9.821857,0.014738,0.029913,0.023072,7.497117,9.693303,4.918118,-0.190797,-0.916958,-0.405354,90.961386,179.436706,149.496995,0.686987,-0.677369,-0.181058,-0.190886,652.890869,94316.718750,0.431910,0.258972,2.927917,1.127380,1.051350,33.500000,39.140625,0,4.340000,0,0,0, 202
2727, 101,654431,654412,1,1,-0.167601,0.084542,9.811299,-0.005114,0.007904,0.012090,9.419221,4.888044,2.034964,-0.294770,-0.454177,0.203698,90.877941,179.440367,149.299247,0.686370,-0.677344,-0.182160,-0.192144,652.860413,94311.500000,-0.212777,-0.118830,2.927917,1.096924,0.970162,33.375000,39.145153,0,4.330000,0,0,0, 202
2728, 101,656562,656541,1,1,-0.155029,0.088506,9.808950,0.011175,-0.014637,0.009557,9.419221,6.810148,1.554438,0.061168,0.085394,-0.290295,90.995680,179.426187,148.912290,0.685835,-0.676614,-0.184868,-0.194030,652.924194,94315.507812,0.881185,0.128912,2.927917,1.160706,1.020271,33.500000,39.149681,0,4.320000,0,0,0, 202
2729, 101,658698,658672,1,1,-0.155697,0.036258,9.790768,-0.036350,-0.054598,-0.009147,10.860798,-0.397740,-2.770295,-0.624159,-0.219798,-0.858127,90.974568,179.544937,148.656267,0.683803,-0.677794,-0.186010,-0.195982,652.480469,94320.539062,-0.781298,-0.232103,2.927917,0.716980,0.828121,33.500000,39.154209,0,4.300000,0,0,0, 202
2730, 101,660840,660806,1,1,-0.170492,0.102546,9.797288,0.005329,0.018087,-0.001710,9.419221,4.407518,2.034964,-0.507679,-0.936396,0.051160,90.923868,179.427266,148.766547,0.686129,-0.675826,-0.185383,-0.195242,652.706543,94317.460938,0.178619,-0.006173,2.927917,0.943054,0.886005,33.500000,39.154209,0,4.290000,0,0,0, 202
2731, 101,662981,662941,1,1,-0.171808,0.109117,9.809549,0.008550,0.019928,0.010637,9.899747,4.888044,2.034964,-0.878366,0.886319,-0.292672,90.949228,179.423441,148.715252,0.685575,-0.676213,-0.185616,-0.195626,652.467773,94324.257812,-0.659103,0.093767,2.927917,0.704285,0.931494,33.375000,39.172321,0,4.270000,0,0,0, 202
2732, 101,665216,665177,1,1,-0.166689,0.099181,9.797956,0.003107,0.022925,-0.001152,8.938695,3.926993,2.034964,-0.216242,-0.912597,-0.654722,90.870394,179.455202,148.418713,0.684655,-0.676149,-0.187691,-0.197084,652.756287,94318.117188,0.131594,0.117037,2.927917,0.992798,0.889279,33.500000,39.172321,0,4.250000,0,0,0, 202
2733, 101,667357,667317,1,1,-0.147075,0.084593,9.810129,0.010624,0.006706,0.010588,9.419221,3.926993,1.073912,-0.210634,-0.604891,0.051484,90.831892,179.465679,148.370055,0.684362,-0.676281,-0.188108,-0.197250,652.561768,94324.078125,-0.243300,0.214885,2.927917,0.798279,0.948346,33.500000,39.181377,0,4.230000,0,0,0, 202
2734, 101,669507,669505,1,1,-0.159726,0.093931,9.810486,0.010249,0.018342,0.011213,9.419221,5.368570,1.554438,-1.057299,0.111418,-0.749740,90.851741,179.438645,148.066767,0.683908,-0.675708,-0.189701,-0.199252,652.685608,94320.906250,0.336426,0.093501,2.927917,0.922119,0.917188,33.500000,39.185905,0,4.210000,0,0,0, 202
2735, 101,671712,671697,1,1,-0.162382,0.094094,9.802971,0.001598,0.006221,0.003765,9.419221,4.407518,0.593386,-0.375191,-0.616615,0.952713,90.930042,179.471990,148.310646,0.685057,-0.675377,-0.188320,-0.197732,652.722351,94313.828125,0.080595,0.005504,2.927917,0.958862,0.856021,33.375000,39.181377,0,4.190000,0,0,0, 202
2736, 101,673792,673784,1,1,-0.176931,0.276960,9.880858,0.093973,0.167789,0.083452,10.380273,7.290674,0.593386,-0.394537,-0.186104,0.284541,90.932398,179.426693,148.281262,0.690717,-0.669539,-0.189594,-0.196676,652.462280,94323.515625,-0.363833,-0.257798,2.927917,0.698792,0.794185,33.500000,39.208546,0,4.170000,0,0,0, 202
2737, 101,675880,675846,1,1,-0.153668,0.102076,9.819323,0.008598,-0.005128,0.020050,9.899747,4.407518,2.034964,-0.317234,-0.079454,0.399599,91.005598,179.495363,148.568171,0.685777,-0.675518,-0.186819,-0.196175,652.737976,94318.484375,0.865699,0.232800,2.927917,0.974487,0.893648,33.500000,39.204018,0,4.150000,0,0,0, 202
2738, 101,677977,677951,1,1,-0.155894,0.089377,9.795148,-0.003136,-0.036972,-0.004274,9.899747,3.446467,1.554438,0.222824,1.369273,0.073448,91.137530,179.512548,148.590984,0.685447,-0.675928,-0.186797,-0.195934,652.458130,94322.585938,-0.467898,-0.229427,2.927917,0.694641,0.782948,33.500000,39.204018,0,4.140000,0,0,0, 202
2739, 101,680077,680058,1,1,-0.166806,0.104747,9.821022,-0.016658,0.018962,0.021965,9.899747,3.446467,2.034964,0.026315,-0.837348,0.396766,90.917003,179.583227,148.695896,0.686058,-0.675657,-0.186058,-0.195435,652.477844,94322.492188,-0.246492,-0.093156,2.927917,0.714355,0.787974,33.500000,39.208546,0,4.120000,0,0,0, 202
2740, 101,682265,682232,1,1,-0.155586,0.090226,9.818559,0.005695,-0.006745,0.019202,9.419221,1.043838,1.073912,0.647795,0.225491,0.539244,90.961345,179.465543,148.637525,0.685584,-0.675945,-0.186307,-0.195863,652.435303,94324.539062,0.293221,-0.002214,2.927917,0.671814,0.741859,33.625000,39.208546,0,4.100000,0,0,0, 202
2741, 101,684367,684332,1,1,-0.164441,0.086460,9.800183,-0.011743,-0.014918,0.000926,9.419221,4.407518,2.515490,0.584900,-0.190928,0.240170,91.019436,179.511455,148.598456,0.685937,-0.675457,-0.186713,-0.195922,652.390869,94324.351562,-0.291273,-0.255473,2.927917,0.627380,0.720894,33.500000,39.217602,0,4.090000,0,0,0, 202
2742, 101,686473,686449,1,1,-0.158041,0.088729,9.799966,0.016059,-0.002445,0.000628,10.380273,4.888044,1.554438,-0.362209,-0.288436,0.460431,90.940588,179.391708,148.353567,0.684919,-0.675667,-0.188095,-0.197436,652.662964,94316.156250,0.215461,0.009037,2.927917,0.899475,0.768427,33.500000,39.217602,0,4.070000,0,0,0, 202
2743, 101,688587,688566,1,1,-0.157962,0.088445,9.809204,0.023026,0.010621,0.009842,9.419221,3.446467,2.034964,-1.509914,0.589366,-0.530865,90.860811,179.349429,148.458014,0.685024,-0.675914,-0.187460,-0.196824,652.632996,94314.109375,0.080064,-0.020544,2.927917,0.869507,0.755489,33.500000,39.217602,0,4.050000,0,0,0, 202
2744, 101,690707,690689,1,1,-0.161497,0.103045,9.816780,-0.004854,0.019160,0.017629,9.419221,4.888044,1.073912,-0.412014,0.226163,0.526001,90.893726,179.539678,148.456101,0.685550,-0.675370,-0.187614,-0.196719,652.455017,94320.070312,-0.273510,-0.043861,2.927917,0.691528,0.723752,33.500000,39.226658,0,4.040000,0,0,0, 202
2745, 101,692833,692816,1,1,-0.170263,0.099878,9.807724,-0.004273,0.003775,0.008709,9.899747,2.485415,1.073912,0.143411,0.371721,0.953174,90.994389,179.480637,148.563458,0.685757,-0.675519,-0.186611,-0.196438,652.613037,94318.203125,0.538321,0.070348,2.927917,0.849548,0.717444,33.500000,39.217602,0,4.020000,0,0,0, 202
2746, 101,694961,694933,1,1,-0.160977,0.090402,9.793792,0.006704,0.003950,-0.005471,10.380273,3.926993,2.034964,-1.006003,1.238297,-0.751390,90.917714,179.430490,148.722848,0.685414,-0.676402,-0.185667,-0.195489,652.538025,94322.023438,0.284739,0.144522,2.927917,0.774536,0.760014,33.625000,39.231186,0,4.010000,0,0,0, 202
2747, 101,697096,697064,1,1,-0.157809,0.108749,9.811889,0.020614,0.052196,0.012600,9.899747,4.407518,2.515490,-0.211979,-0.571101,0.323048,90.720178,179.430517,148.231648,0.685209,-0.674963,-0.189072,-0.197905,652.611633,94319.882812,0.224553,-0.036953,2.927917,0.848145,0.784528,33.500000,39.235714,0,4.000000,0,0,0, 202
2748, 101,699316,699304,1,1,-0.142350,0.109657,9.807500,0.004347,0.022641,0.008119,9.419221,3.926993,1.554438,0.159155,-1.532588,0.595015,90.849623,179.603567,148.306862,0.684592,-0.675841,-0.189276,-0.196845,652.526611,94319.882812,-0.036413,-0.054109,2.927917,0.763123,0.767693,33.625000,39.235714,0,3.990000,0,0,0, 202
2749, 101,701453,701442,1,1,-0.169309,0.088327,9.797737,0.022785,0.013346,-0.001438,9.899747,4.407518,2.034964,-0.658478,0.705942,0.474016,90.884355,179.300525,148.019106,0.683780,-0.675667,-0.189098,-0.200403,652.461182,94319.976562,-0.227420,0.049453,2.927917,0.697693,0.721332,33.500000,39.231186,0,3.960000,0,0,0, 202
2750, 101,703596,703582,1,1,-0.161301,0.091706,9.813615,0.015694,-0.003868,0.014355,9.899747,4.407518,1.554438,-0.078297,0.910692,0.844575,90.976603,179.395424,147.883281,0.684274,-0.674716,-0.190826,-0.200283,652.600647,94320.906250,0.070620,0.023020,2.927917,0.837158,0.819878,33.625000,39.235714,0,3.950000,0,0,0, 202
2751, 101,705747,705714,1,1,-0.165558,0.081379,9.782431,0.006766,-0.002617,-0.016833,9.419221,3.926993,1.073912,-0.145491,0.690281,0.474399,90.932508,179.389413,148.076520,0.684317,-0.675325,-0.189208,-0.199617,652.535400,94321.835938,-0.254888,0.095546,2.927917,0.771912,0.834166,33.500000,39.240242,0,3.940000,0,0,0, 202
2752, 101,707895,707856,1,1,-0.169842,0.085559,9.799860,-0.004864,0.010807,0.000698,9.419221,3.446467,1.073912,0.303121,0.041342,-0.042578,90.887435,179.451964,147.968221,0.683970,-0.675309,-0.190299,-0.199822,652.585815,94316.804688,0.603052,-0.139859,2.927917,0.822327,0.700262,33.500000,39.235714,0,3.920000,0,0,0, 202
2753, 101,710052,710049,1,1,-0.174056,0.085408,9.807163,-0.008872,-0.002762,0.008075,8.938695,3.926993,0.593386,-0.205792,0.435231,-0.009625,90.979616,179.456513,147.844745,0.684305,-0.674546,-0.190893,-0.200685,652.428650,94320.906250,0.260539,-0.048009,2.927917,0.665161,0.624243,33.625000,39.235714,0,3.900000,0,0,0, 202
2754, 101,712264,712246,1,1,-0.157917,0.084355,9.808823,0.010992,-0.003801,0.009450,9.419221,3.446467,0.593386,-0.334003,-0.219126,0.495820,90.928970,179.414999,147.978084,0.684152,-0.675163,-0.190323,-0.199671,652.400085,94322.953125,-0.191332,-0.114269,2.927917,0.636597,0.742319,33.625000,39.235714,0,3.890000,0,0,0, 202
2755, 101,714352,714351,1,1,-0.164522,0.059401,9.823252,-0.025735,-0.012323,0.023767,9.899747,3.446467,1.554438,-0.303370,-0.594678,-1.217958,90.870906,179.515895,148.288926,0.684538,-0.675831,-0.188820,-0.197503,652.510620,94320.812500,0.109431,0.006857,2.927917,0.747131,0.749366,33.500000,39.240242,0,3.870000,0,0,0, 202
2756, 101,716529,716508,1,1,-0.167257,0.086914,9.804626,-0.022336,0.006320,0.005411,8.938695,4.407518,2.034964,-0.418588,0.463899,0.530558,90.908547,179.565632,148.312258,0.684878,-0.675556,-0.188166,-0.197890,652.754395,94314.757812,0.230024,0.176771,2.927917,0.990906,0.903031,33.500000,39.235714,0,3.860000,0,0,0, 202
2757, 101,718618,718613,1,1,-0.155951,0.094340,9.807140,-0.005947,-0.009065,0.007828,9.899747,4.407518,1.554438,0.452305,-0.443162,-0.344661,91.000386,179.548939,148.315222,0.685402,-0.675045,-0.188640,-0.197365,652.446350,94320.070312,-0.208099,0.224972,2.927917,0.682861,0.744879,33.625000,39.226658,0,3.850000,0,0,0, 202
2758, 101,720711,720680,1,1,-0.170724,0.116895,9.804959,0.011027,0.034984,0.006074,7.497117,9.212777,5.398644,0.441553,-0.744226,0.246425,90.897653,179.438591,148.670378,0.685219,-0.676424,-0.186060,-0.195722,652.477417,94319.976562,-0.297908,-0.112516,2.927917,0.713928,0.728150,33.625000,39.231186,0,3.840000,0,0,0, 202
2759, 101,722809,722786,1,1,-0.156111,0.092684,9.809834,0.016022,-0.015152,0.010490,9.899747,3.926993,2.034964,-0.447539,0.899792,0.400017,91.024961,179.409248,148.659450,0.685577,-0.676032,-0.186363,-0.195533,652.376221,94321.093750,-0.971423,-0.155187,2.927917,0.612732,0.710079,33.500000,39.226658,0,3.820000,0,0,0, 202
2760, 101,724934,724931,1,1,-0.163311,0.099430,9.802699,0.007996,0.005958,0.003558,11.341324,1.043838,1.554438,-0.549466,0.212284,0.022559,90.959098,179.442634,148.524062,0.685338,-0.675811,-0.186842,-0.196673,652.525146,94320.250000,-0.629604,-0.045338,2.927917,0.761658,0.740519,33.500000,39.217602,0,3.800000,0,0,0, 202
2761, 101,727041,727008,1,1,-0.170885,0.085453,9.820710,0.007119,-0.001409,0.021566,9.899747,4.407518,1.554438,0.011648,-0.222643,0.293592,90.954658,179.369852,148.443684,0.685051,-0.675828,-0.186887,-0.197575,652.599182,94321.835938,0.378070,0.072632,2.927917,0.835693,0.769430,33.500000,39.190434,0,3.800000,0,0,0, 202
2762, 101,729159,729132,1,1,-0.166838,0.084736,9.813725,-0.005844,-0.010522,0.014502,9.899747,3.926993,1.073912,0.142736,0.297388,1.035616,90.991193,179.460693,148.586722,0.685287,-0.676072,-0.186440,-0.196338,652.674194,94317.000000,0.566716,0.180557,2.927917,0.910706,0.831473,33.500000,39.176849,0,3.780000,0,0,0, 202
2763, 101,731287,731260,1,1,-0.171380,0.089246,9.812557,0.006720,0.007378,0.013454,8.938695,3.926993,1.073912,-0.373256,0.315575,0.241125,90.927665,179.386039,148.133594,0.684672,-0.675164,-0.189000,-0.199141,652.633789,94318.859375,0.110393,0.167962,2.927917,0.870300,0.887329,33.500000,39.185905,0,3.770000,0,0,0, 202
2764, 101,733497,733487,1,1,-0.168171,0.075052,9.803721,-0.001145,-0.015961,0.004438,10.860798,2.965941,2.034964,0.125069,0.408344,0.346952,90.987238,179.407582,147.876519,0.684321,-0.674636,-0.190399,-0.200795,652.433960,94318.953125,-0.536297,-0.186754,2.927917,0.670471,0.719657,33.500000,39.181377,0,3.750000,0,0,0, 202
2765, 101,735613,735597,1,1,-0.163321,0.093695,9.817735,0.013118,-0.000619,0.018531,9.899747,2.965941,1.073912,-0.748317,0.707900,-0.372235,90.974855,179.409767,147.713537,0.684068,-0.674339,-0.191804,-0.201318,652.567688,94319.140625,-0.210176,0.108436,2.927917,0.804199,0.799447,33.500000,39.172321,0,3.740000,0,0,0, 202
2766, 101,737743,737724,1,1,-0.170983,0.085238,9.813502,0.018881,-0.010719,0.014338,10.380273,4.888044,1.073912,-0.468228,0.692943,-0.227282,91.018862,179.315784,147.467199,0.683470,-0.674089,-0.192886,-0.203143,652.355957,94322.398438,-0.652701,-0.201426,2.927917,0.592468,0.689649,33.500000,39.163265,0,3.730000,0,0,0, 202
2767, 101,739873,739853,1,1,-0.165744,0.139000,9.849671,0.031598,0.034851,0.050934,10.380273,3.926993,1.554438,-0.321961,-0.357973,-0.104356,91.000038,179.446978,147.047921,0.684363,-0.671726,-0.196129,-0.204854,652.543701,94318.390625,0.036804,0.000073,2.927917,0.780212,0.722062,33.500000,39.158737,0,3.720000,0,0,0, 202
2768, 101,742014,741992,1,1,-0.169068,0.088994,9.792010,-0.003798,0.019888,-0.007147,10.380273,3.446467,1.554438,-0.989476,-0.712201,-0.079160,90.858796,179.475788,147.023660,0.682753,-0.673257,-0.195747,-0.205562,652.488159,94321.468750,-0.131863,0.120313,2.927917,0.724670,0.791409,33.500000,39.158737,0,3.700000,0,0,0, 202
2769, 101,744161,744130,1,1,-0.163193,0.089912,9.814268,0.010673,0.002312,0.015031,11.341324,2.965941,2.034964,0.435692,-1.082548,0.045913,90.945260,179.424138,147.025737,0.682766,-0.673257,-0.195885,-0.205389,652.452820,94322.679688,-0.283864,-0.001429,2.927917,0.689331,0.769771,33.500000,39.149681,0,3.690000,0,0,0, 202
2770, 101,746312,746307,1,1,-0.175681,0.095135,9.814835,0.037608,0.102973,0.015256,9.899747,4.888044,2.034964,-0.885436,1.073563,-0.522667,90.424635,179.225544,146.849094,0.682398,-0.673008,-0.196558,-0.206781,652.727844,94316.531250,0.436432,0.124870,2.927917,0.964355,0.834173,33.500000,39.149681,0,3.670000,0,0,0, 202
2771, 101,748470,748454,1,1,-0.155007,0.099831,9.799347,0.016614,0.015346,0.000055,9.899747,4.407518,1.554438,-0.508704,-0.032373,0.101782,90.895358,179.465256,146.733651,0.681848,-0.673149,-0.197628,-0.207114,652.705322,94319.789062,0.051511,0.106759,2.927917,0.941833,0.854051,33.375000,39.140625,0,3.650000,0,0,0, 202
2772, 101,750712,750702,1,1,-0.155877,0.071531,9.791789,-0.012692,-0.010765,-0.007723,8.938695,4.407518,1.554438,0.170575,-1.237854,-0.367361,90.914025,179.542601,146.641621,0.681929,-0.672743,-0.198597,-0.207241,652.632263,94318.859375,0.229002,0.054504,2.927917,0.868774,0.799611,33.500000,39.136097,0,3.650000,0,0,0, 202
2773, 101,752917,752899,1,1,-0.158239,0.105748,9.811827,-0.001132,0.031037,0.012623,9.899747,4.888044,0.593386,-0.495484,-1.138618,0.502958,90.845764,179.582120,146.208915,0.681757,-0.671365,-0.201163,-0.209786,652.451416,94319.976562,-0.676364,-0.230602,2.927917,0.687927,0.800934,33.500000,39.131569,0,3.630000,0,0,0, 202
2774, 101,754995,754953,1,1,-0.156394,0.075111,9.798916,0.004409,-0.008673,-0.000553,8.938695,4.407518,1.073912,-0.285778,0.680328,-0.069321,90.926224,179.461977,145.981988,0.680650,-0.671661,-0.201963,-0.211656,652.654846,94319.046875,-0.175989,0.025314,2.927917,0.891357,0.897572,33.500000,39.127041,0,3.620000,0,0,0, 202
2775, 101,757083,757048,1,1,-0.158897,0.092821,9.809025,0.013504,-0.001753,0.009741,10.380273,4.407518,1.554438,-0.558684,0.563626,0.233239,90.980777,179.459382,145.733001,0.680503,-0.670902,-0.203305,-0.213247,652.243042,94322.023438,-0.629250,-0.278637,2.927917,0.479553,0.668845,33.375000,39.131569,0,3.600000,0,0,0, 202
2776, 101,759179,759161,1,1,-0.166311,0.100937,9.805278,0.015621,-0.000416,0.006195,8.938695,2.485415,0.593386,-0.270772,0.352991,0.196959,91.035138,179.433864,145.945652,0.681308,-0.670869,-0.202292,-0.211736,652.518677,94319.234375,-0.375771,0.075749,2.927917,0.755188,0.742402,33.500000,39.117985,0,3.600000,0,0,0, 202
2777, 101,761276,761270,1,1,-0.107252,0.093718,9.746766,0.058039,-0.037727,-0.053439,9.419221,3.446467,-0.367666,-0.726889,0.790622,0.376220,91.031662,179.446705,145.822818,0.680945,-0.670781,-0.202609,-0.212877,652.303833,94322.304688,-0.155160,-0.021093,2.927917,0.540344,0.596497,33.375000,39.117985,0,3.590000,0,0,0, 202
2778, 101,763375,763336,1,1,-0.171723,0.093006,9.812673,0.004942,0.016034,0.013601,9.899747,3.926993,2.034964,-0.084390,-0.148219,-0.009491,90.917570,179.444355,145.955829,0.680518,-0.671698,-0.202027,-0.211899,652.378052,94321.375000,-0.092690,-0.008454,2.927917,0.614563,0.623554,33.500000,39.113457,0,3.570000,0,0,0, 202
2779, 101,765483,765453,1,1,-0.165475,0.092281,9.809264,0.002802,0.009439,0.010089,9.419221,3.446467,1.554438,-1.151137,0.163688,0.788931,90.930930,179.481484,146.132498,0.680990,-0.671863,-0.201188,-0.210656,652.525757,94321.562500,0.259378,0.120048,2.927917,0.762268,0.712207,33.500000,39.104401,0,3.550000,0,0,0, 202
2780, 101,767686,767666,1,1,-0.161129,0.115728,9.815796,0.014217,0.036390,0.016723,9.419221,2.004889,0.593386,-0.488840,0.261884,0.527564,90.871528,179.509912,146.270359,0.682203,-0.671140,-0.200746,-0.209457,652.379639,94319.609375,-0.692793,-0.257798,2.927917,0.616150,0.671521,33.500000,39.099873,0,3.540000,0,0,0, 202
2781, 101,769801,769787,1,1,-0.169300,0.095809,9.813512,0.020374,0.002478,0.014418,10.380273,4.407518,0.593386,-0.127676,1.403486,-1.245348,91.003016,179.376696,145.870602,0.680738,-0.671162,-0.201965,-0.212951,652.485779,94320.906250,-0.134025,0.195211,2.927917,0.722290,0.768106,33.500000,39.086288,0,3.520000,0,0,0, 202
2782, 101,771915,771909,1,1,-0.163675,0.088921,9.801757,0.000767,0.001284,0.002526,9.899747,4.407518,1.554438,-0.895683,-0.201038,0.364254,90.960033,179.496361,145.801357,0.680576,-0.671079,-0.203164,-0.212588,652.591919,94315.789062,0.425157,-0.008273,2.927917,0.828430,0.716998,33.375000,39.086288,0,3.520000,0,0,0, 202
2783, 101,774037,773995,1,1,-0.158910,0.214834,9.832066,0.074392,0.107759,0.033825,11.341324,3.926993,1.554438,-0.614558,-0.196803,-0.212044,90.927952,179.506497,145.717523,0.680251,-0.671103,-0.203775,-0.212969,652.457703,94322.023438,0.103775,0.016601,2.927917,0.694214,0.706602,33.500000,39.081760,0,3.500000,0,0,0, 202
2784, 101,776162,776157,1,1,-0.172672,0.098418,9.800962,0.002408,0.013770,0.001967,9.899747,4.888044,2.034964,-0.083531,0.353893,0.327977,90.961543,179.472291,145.918495,0.681206,-0.670868,-0.202272,-0.212088,652.528442,94324.914062,1.006019,0.124481,2.927917,0.764954,0.743883,33.375000,39.090816,0,3.490000,0,0,0, 202
2785, 101,778289,778287,1,1,-0.167632,0.085385,9.808551,-0.001645,0.013904,0.009345,10.380273,4.888044,1.554438,0.101107,-0.222741,-0.327086,90.882463,179.481689,145.705051,0.679916,-0.671395,-0.203784,-0.213108,652.471741,94323.234375,-0.019715,-0.000231,2.927917,0.708252,0.702388,33.375000,39.072704,0,3.470000,0,0,0, 202
2786, 101,780427,780422,1,1,-0.158931,0.084918,9.813878,-0.020091,-0.088200,0.014115,9.419221,3.926993,1.073912,0.074473,1.688098,-0.009067,91.447005,179.629822,145.720802,0.683514,-0.667796,-0.203526,-0.213154,652.368469,94321.375000,-0.588387,-0.076489,2.927917,0.604980,0.651467,33.375000,39.063648,0,3.460000,0,0,0, 202
2787, 101,782569,782558,1,1,-0.150499,0.089235,9.793956,0.009477,0.004856,-0.005487,10.860798,3.926993,1.073912,-0.362843,0.138465,0.365234,90.897947,179.509393,145.825126,0.680280,-0.671467,-0.203217,-0.212260,652.480530,94318.484375,-0.259914,0.091112,2.927917,0.717041,0.741174,33.375000,39.054592,0,3.450000,0,0,0, 202
2788, 101,784800,784760,1,1,-0.162813,0.087234,9.795746,-0.003450,-0.010857,-0.003519,9.419221,4.407518,1.554438,-0.236619,-0.097296,0.571302,91.021170,179.520362,145.740077,0.680864,-0.670564,-0.203552,-0.212920,652.584167,94321.648438,0.104954,0.116789,2.927917,0.820679,0.839571,33.375000,39.050064,0,3.440000,0,0,0, 202
2789, 101,786946,786938,1,1,-0.166680,0.089038,9.808327,-0.014340,-0.002009,0.009136,9.419221,5.368570,2.034964,0.259099,-0.860447,-0.503778,90.991282,179.575072,145.551522,0.680236,-0.670503,-0.204615,-0.214096,652.595032,94317.835938,-0.067330,-0.118447,2.927917,0.831543,0.764645,33.375000,39.036480,0,3.420000,0,0,0, 202
2790, 101,789094,789078,1,1,-0.154343,0.045763,9.799317,-0.021339,-0.032509,-0.000438,6.055540,9.212777,6.359696,-0.223654,-0.304896,0.894572,90.922310,179.533462,145.434071,0.679739,-0.670581,-0.205605,-0.214484,652.591064,94320.070312,-0.156819,0.065928,2.927917,0.827576,0.907881,33.500000,39.027424,0,3.410000,0,0,0, 202
2791, 101,791247,791223,1,1,-0.174553,0.098016,9.791175,-0.023242,0.027578,-0.007845,9.419221,4.407518,0.593386,0.273804,-1.784190,0.781481,90.892039,179.623785,145.243795,0.679990,-0.669612,-0.206323,-0.216019,652.580444,94317.179688,-0.369194,-0.146798,2.927917,0.816956,0.827188,33.500000,39.018368,0,3.400000,0,0,0, 202
2792, 101,793455,793421,1,1,-0.159384,0.094797,9.801322,0.003472,-0.000193,0.002076,10.380273,3.926993,1.554438,0.275916,-0.013955,0.253916,90.986890,179.528927,145.314501,0.679884,-0.669991,-0.206156,-0.215336,652.650818,94314.296875,0.197005,-0.005445,2.927917,0.887329,0.834122,33.375000,39.009312,0,3.390000,0,0,0, 202
2793, 101,795543,795523,1,1,-0.159061,0.080632,9.794972,-0.019226,-0.009837,-0.004428,9.899747,3.926993,1.554438,0.497855,-0.471694,0.690462,90.974247,179.614892,145.371424,0.679583,-0.670500,-0.205863,-0.214981,652.423218,94324.531250,-0.259241,-0.003946,2.927917,0.659729,0.794733,33.375000,39.009312,0,3.370000,0,0,0, 202
