b'echo: D dec: 68 
68\r
dumping data to serial\r
index, checksum,uptime mp,uptime nav,  errorflag mp,errorflag NAV,  accel x, accel y, accel z, accelworld x, accelworld y, accelworld z, accelhighg x, accelhighg y, accelhighg z, gyro x, gyro y, gyro z, euler x, euler y, euler z, quat w, quat x, quat y, quat z, altitude, presusre, verticalvel,filtered vvel, maxalt, altitudeagl, filtered alt, imutemp, barotemp,state,battstate,pyros fired,pyros cont,pyros state, checksum2\r
0, 101,0,0,1,0,0.000000,0.000000,0.000000,0.000000,0.000000,0.000000,0.000000,0.000000,0.000000,0.000000,0.000000,0.000000,0.000000,57.295780,0.000000,0.000000,0.000000,0.000000,0.000000,0.000000,0.000000,0.000000,0.000000,0.000000,0.000000,0.000000,0.000000,0.000000,0,0.000000,0, 202
1, 101,3305,0,1,0,0.000000,0.000000,0.000000,0.000000,0.000000,0.000000,0.000000,0.000000,0.000000,0.000000,0.000000,0.000000,0.000000,57.295780,0.000000,0.000000,0.000000,0.000000,0.000000,0.000000,0.000000,0.000000,0.000000,0.000000,0.000000,0.000000,0.000000,0.000000,0,0.000000,0, 202
2, 101,3248,0,1,0,0.000000,0.000000,0.000000,0.000000,0.000000,0.000000,0.000000,0.000000,0.000000,0.000000,0.000000,0.000000,0.000000,57.295780,0.000000,0.000000,0.000000,0.000000,0.000000,0.000000,0.000000,0.000000,0.000000,0.000000,0.000000,0.000000,0.000000,0.000000,0,0.000000,0, 202
3, 101,3248,1083354125,1,1082855788,-7.925434,0.241394,0.257452,-9.801000,0.736165,0.131004,-6.561944,12.339699,0.000000,17.946816,580.662795,888.084582,7.495788,53.141129,20.757071,0.037470,0.084359,0.000000,0.000000,23.314451,19.904490,-0.350586,0.000000,2001.756348,7.804800,0.000000,2001.405762,0.000000,0,0.000000,0, 202
4, 101,0,0,1,0,0.000000,0.000000,0.000000,0.000000,0.000000,0.000000,0.000000,0.000000,0.000000,0.000000,0.000000,0.000000,0.000000,57.295780,0.000000,0.000000,0.000000,0.000000,0.000000,0.000000,0.000000,0.000000,0.000000,0.000000,0.000000,0.000000,0.000000,0.000000,0,0.000000,0, 202
5, 101,3265,0,1,0,0.000000,0.000000,0.000000,0.000000,0.000000,0.000000,0.000000,0.000000,0.000000,0.000000,0.000000,0.000000,0.000000,57.295780,0.000000,0.000000,0.000000,0.000000,0.000000,0.000000,0.000000,0.000000,0.000000,0.000000,0.000000,0.000000,0.000000,0.000000,0,0.000000,0, 202
6, 101,3325,0,1,0,0.000000,0.000000,0.000000,0.000000,0.000000,0.000000,0.000000,0.000000,0.000000,0.000000,0.000000,0.000000,0.000000,57.295780,0.000000,0.000000,0.000000,0.000000,0.000000,0.000000,0.000000,0.000000,0.000000,0.000000,0.000000,0.000000,0.000000,0.000000,0,0.000000,0, 202
7, 101,3439,0,1,0,0.000000,0.000000,0.000000,0.000000,0.000000,0.000000,0.000000,0.000000,0.000000,0.000000,0.000000,0.000000,0.000000,57.295780,0.000000,0.000000,0.000000,0.000000,0.000000,0.000000,0.000000,0.000000,0.000000,0.000000,0.000000,0.000000,0.000000,0.000000,0,0.000000,0, 202
8, 101,0,0,1,0,0.000000,0.000000,0.000000,0.000000,0.000000,0.000000,0.000000,0.000000,0.000000,0.000000,0.000000,0.000000,0.000000,57.295780,0.000000,0.000000,0.000000,0.000000,0.000000,0.000000,0.000000,0.000000,0.000000,0.000000,0.000000,0.000000,0.000000,0.000000,0,0.000000,0, 202
9, 101,2517,0,1,0,0.000000,0.000000,0.000000,0.000000,0.000000,0.000000,0.000000,0.000000,0.000000,0.000000,0.000000,0.000000,0.000000,57.295780,0.000000,0.000000,0.000000,0.000000,0.000000,0.000000,0.000000,0.000000,0.000000,0.000000,0.000000,0.000000,0.000000,0.000000,0,0.000000,0, 202
10, 101,2517,1092489408,1,1063499246,-0.361307,-0.006650,-0.002913,-9.801000,0.023681,-0.078033,0.165419,13.189781,0.000000,0.339293,568.696795,909.570500,4.893965,54.376744,0.601003,-0.041531,0.044404,0.000000,0.000000,0.262078,21.505014,-0.001465,0.000000,1945.795166,6.843748,0.000000,1945.793701,0.128906,0,0.000000,0, 202
11, 101,2517,1092505142,1,1063547843,-0.363910,-0.002741,-0.005915,-9.801000,0.032423,-0.085511,1.126471,15.134550,0.000000,0.381751,569.572808,931.056417,5.039396,54.359519,0.849289,-0.045685,0.045505,0.000000,0.000000,0.214320,22.041426,-0.009033,0.000000,1945.795166,7.324274,0.000000,1945.786133,0.343994,0,0.000000,0, 202
12, 101,2517,1088782150,1,-1066115801,5.266989,-0.286113,1.819910,-9.801000,0.407968,0.755777,5.931729,11.357434,0.000000,1.782872,554.776487,952.542334,-25.982950,48.195133,5.561751,0.409173,-0.141800,0.000000,0.000000,0.040520,22.555046,-0.346313,0.000000,1945.795166,2.519016,0.000000,1945.448853,0.343994,0,0.000000,0, 202
13, 101,2517,1087075753,1,-1059342505,3.506174,1.263790,-0.177338,-9.801000,2.901583,2.731704,3.529100,10.480799,0.000000,-40.272663,572.564048,981.190224,157.228359,51.124639,-9.468244,0.178811,-0.221450,0.000000,0.000000,0.226232,22.986805,-0.345459,0.000000,1945.795166,-0.844666,0.000000,1945.449707,0.343994,0,0.000000,0, 202
14, 101,2517,1068613696,1,-1057762609,6.045767,0.129712,-0.062845,-9.801000,2.906830,2.823628,5.931729,7.546301,0.000000,88.409497,562.947470,1002.676141,146.141610,50.147485,-9.543189,0.115388,-0.312105,0.000000,0.000000,-0.278637,23.404888,0.237549,0.000000,1945.795166,-2.286243,0.000000,1946.032715,0.387573,0,0.000000,0, 202
15, 101,2517,-1081303576,1,-1059273889,6.630994,-0.234673,-0.036372,-9.801000,2.305734,2.579024,6.412255,6.451679,0.000000,5.614492,551.859942,1024.162059,158.799999,42.837932,-27.467054,0.180121,-0.288531,0.000000,0.000000,0.973837,23.850195,-0.036865,0.000000,1945.795166,0.116386,0.000000,1945.758301,0.489990,0,0.000000,0, 202
16, 101,2517,1066981036,1,-1058103206,5.837259,-0.045637,-0.397685,-9.801000,1.840701,2.600140,5.931729,7.162640,0.000000,-45.104961,546.889039,1052.809949,144.183449,34.961887,-36.055401,0.032070,-0.367609,0.000000,0.000000,0.293316,24.331804,-0.213623,0.000000,1945.795166,-1.805717,0.000000,1945.581543,0.489990,0,0.000000,0, 202
17, 101,2517,1092504907,1,-1105719880,-0.261094,-0.031206,0.002486,-9.801000,2.813358,2.768682,-0.795633,13.838561,0.000000,0.321933,567.138201,1074.295866,164.238346,51.633491,-11.154133,0.164174,-0.165958,0.000000,0.000000,0.255538,24.722504,-0.174072,0.000000,1945.795166,5.402171,0.000000,1945.621094,0.489990,0,0.000000,0, 202
18, 101,990300076,1056628736,-1144771486,-1121937442,-0.462646,1945.795166,6.363223,0.000000,4.025481,6.400001,-0.045814,0.000000,0.000000,783.620664,64.542009,866.688988,5729.577951,0.000000,0.000000,0.000000,0.000000,-0.443517,-0.143782,3.068075,-9.801000,3.063491,0.016835,0.934637,-0.045154,-0.256355,0.000000,2.824267,1100480512,24.931469,58, 202
19, 101,1078442504,0,1077252870,0,0.000000,1.502735,2.400000,-0.070383,9.899331,-0.244515,0.000000,0.000000,0.000000,5729.577951,0.000000,0.000000,-0.028912,-0.525754,0.721489,9.902600,19.250000,80457.671875,1945.759766,-0.751244,-0.551034,0.000000,0.019538,0.000000,0.000000,-9.801000,0.000000,0.000000,-1157024256,0.000000,10, 202
20, 101,2517,1092487229,1,-1112512107,-0.245624,0.007186,-0.001630,-9.801000,0.022862,0.276935,1.126471,14.491920,0.000000,0.074804,566.107553,1117.267701,-0.454124,53.851380,0.644220,0.144895,-0.002637,0.000000,0.000000,-1.016323,25.476549,-0.331299,0.000000,1945.795166,5.882697,0.000000,1945.463867,0.489990,0,0.000000,0, 202
21, 101,2517,1092508042,1,-1109027724,-0.261991,0.001548,-0.002037,-9.801000,0.027032,0.264849,1.126471,13.681404,0.000000,0.329337,567.283329,1124.429673,-0.650272,53.903392,0.755716,0.138666,-0.004227,0.000000,0.000000,-0.230553,25.789940,-0.122192,0.000000,1945.795166,4.921645,0.000000,1945.672974,0.489990,0,0.000000,0, 202
22, 101,2517,1092513105,1,-1106309941,-0.249582,0.008020,-0.014026,-9.801000,0.025257,0.227250,1.126471,14.491920,0.000000,0.528891,567.561563,1145.915590,-0.778306,54.056624,0.703534,0.119149,-0.005740,0.000000,0.000000,0.065366,26.112392,0.083984,0.000000,1945.795166,5.882697,0.000000,1945.879150,0.489990,0,0.000000,0, 202
23, 101,658369253,4181196,339495136,-851476451,0.000000,0.000000,0.000000,6685826743296589824.000000,-0.000000,3236095852544.000000,-0.000000,0.000000,-0.000000,0.000000,0.000027,-0.000000,0.000000,3433532831116032249452380028928.000000,0.000000,0.000003,-0.000000,0.000000,0.000000,-8796093022208.000000,0.000000,0.000000,0.000000,0.000000,0.000000,-1953999101486900445151968460323946496.000000,-0.000000,0.000000,0,-0.000000,0, 202
24, 101,2517,1092540879,1,-1118826740,-0.293893,0.022765,-0.020873,-9.801000,0.025057,0.197834,1.126471,13.235984,0.000000,-0.064118,569.099175,1160.239535,-0.440442,54.161010,0.724987,0.103785,-0.002854,0.000000,0.000000,1.044511,26.539263,0.056152,0.000000,1945.795166,4.921645,0.000000,1945.851318,0.582275,0,0.000000,0, 202
25, 101,2517,1092525945,1,-1108445723,-0.276281,0.000028,-0.003705,-9.801000,0.025043,0.170376,0.645945,14.098954,0.000000,0.607881,568.286274,1181.725452,-0.377798,54.244898,0.732306,0.089441,-0.002450,0.000000,0.000000,-0.638405,26.789009,0.398315,0.000000,1945.795166,4.921645,0.000000,1946.193481,0.712646,0,0.000000,0, 202
26, 101,2517,1084550113,1,-1060104501,5.190087,-0.787839,0.062873,-9.801000,2.955628,2.825770,4.490152,8.722311,0.000000,17.804097,560.752029,1188.887425,160.745292,52.335208,-7.135411,0.143019,-0.184948,0.000000,0.000000,-0.008065,27.029661,0.368408,0.000000,1945.795166,-0.844666,0.000000,1946.163574,0.712646,0,0.000000,0, 202
27, 101,2517,1067397409,1,-1063574862,8.517001,0.161928,0.066608,-9.801000,1.894634,2.669404,8.334359,9.073724,0.000000,0.502430,566.008706,1203.211370,-165.412237,41.795840,-31.015578,0.279174,-0.037492,0.000000,0.000000,0.648647,27.292999,0.337891,0.000000,1945.795166,0.116386,0.000000,1946.133057,0.712646,0,0.000000,0, 202
28, 101,2517,1065501780,1,-1065468834,8.770262,0.288174,-0.023489,-9.801000,1.760588,2.582764,6.412255,6.925031,0.000000,-0.542209,554.715070,1217.535315,-164.998902,38.975573,-33.731282,0.299884,-0.072401,0.000000,0.000000,0.107695,27.538164,-0.052490,0.000000,1945.795166,2.519016,0.000000,1945.742676,0.712646,0,0.000000,0, 202
29, 101,3389,0,1,0,0.000000,0.000000,0.000000,0.000000,0.000000,0.000000,0.000000,0.000000,0.000000,0.000000,0.000000,0.000000,0.000000,57.295780,0.000000,0.000000,0.000000,0.000000,0.000000,0.000000,0.000000,0.000000,0.000000,0.000000,0.000000,0.000000,0.000000,0.000000,0,0.000000,0, 202
30, 101,0,0,1,0,0.000000,0.000000,0.000000,0.000000,0.000000,0.000000,0.000000,0.000000,0.000000,0.000000,0.000000,0.000000,0.000000,57.295780,0.000000,0.000000,0.000000,0.000000,0.000000,0.000000,0.000000,0.000000,0.000000,0.000000,0.000000,0.000000,0.000000,0.000000,0,0.000000,0, 202
31, 101,3401,0,1,0,0.000000,0.000000,0.000000,0.000000,0.000000,0.000000,0.000000,0.000000,0.000000,0.000000,0.000000,0.000000,0.000000,57.295780,0.000000,0.000000,0.000000,0.000000,0.000000,0.000000,0.000000,0.000000,0.000000,0.000000,0.000000,0.000000,0.000000,0.000000,0,0.000000,0, 202
32, 101,3401,1092302804,1,-1080820945,0.646166,-0.043650,0.010413,-9.801000,0.018349,-0.078556,2.568048,13.711591,0.000000,-8.341742,560.989828,1296.317011,-2.813857,56.523596,0.588936,-0.039507,-0.025193,0.000000,0.000000,0.081003,28.187326,-0.387573,0.000000,1945.597900,4.441119,0.000000,1945.210327,0.000000,0,0.000000,0, 202
33, 101,857915187,-790298624,268435456,0,-0.000003,-0.000000,-321577713664.000000,0.000000,-410.489655,0.000000,0.000000,0.000000,0.000000,-184796238610485854460706816.000000,-0.000000,-0.210037,0.000000,0.000000,0.000000,0.000000,0.000000,0.000000,0.000005,0.000000,0.000000,-25232932864.000000,-0.000000,-108135424.000000,0.000000,0.000001,0.000000,0.000000,1635631017,0.000000,222, 202
34, 101,3401,1086068294,1,-1058227745,3.931053,0.329679,0.832072,-9.801000,0.343539,-0.097430,5.451203,9.643874,0.000000,5.398687,586.342070,1310.640956,-27.329720,53.886463,10.273813,-0.005329,-0.242515,0.000000,0.000000,-0.439916,28.682081,-0.560669,0.000000,1945.597900,-0.844666,0.000000,1945.037231,0.126953,0,0.000000,0, 202
35, 101,1732100409,4140106,-1497476224,71427909,0.000000,0.000000,221745983216680960.000000,0.000000,-10384593717069655257060992658440192.000000,-0.000000,-0.000000,0.000000,0.000000,0.000000,-0.042208,0.042127,0.000000,0.000000,0.000000,0.000000,0.000000,-576460752303423488.000000,-0.000000,0.000000,-37778931862957161709568.000000,0.000000,0.000000,0.000000,0.000000,14223197411467369381888.000000,0.000000,221570662926536146944.000000,4266934,-0.000000,0, 202
36, 101,0,1064214118,1,15921,9.894578,-0.111999,-0.002104,-0.028078,0.137643,0.012641,13.676761,1.126471,15.126576,1.261449,1.368872,569.463689,11.680102,5.726921,56.924258,0.011363,0.101309,0.050338,0.993516,30.900982,1945.462036,0.489380,0.063244,-0.263184,1945.725220,0.073257,80462.148438,0.059654,0,0.000000,0, 202
37, 101,18426,1056857492,1,18425,9.885591,-0.133874,-0.008192,0.020746,0.097904,0.012215,14.637813,1.126471,16.000784,1.108545,-1.146748,567.169292,10.413601,2.557299,57.043377,0.008106,0.090591,0.022776,0.995595,31.032537,1945.580688,0.489380,0.063244,-0.144531,1945.725220,-0.002926,80460.804688,0.054862,0,0.000000,0, 202
38, 101,22745,1036905808,1,22723,9.934438,-0.304855,0.008415,0.070965,0.138349,0.024348,13.676761,1.126471,15.126576,-0.453619,0.350536,569.498441,9.848500,0.156343,57.079939,0.012246,0.085816,0.002404,0.996233,31.272959,1945.230591,0.489380,0.063244,-0.494629,1945.725220,0.034213,80466.046875,-0.436104,0,0.000000,0, 202
39, 101,26990,-1090927510,1,26958,9.865749,-0.231360,-0.010518,0.034734,0.079445,0.020606,13.196237,2.087523,14.598101,0.518856,0.045655,566.111596,16.695793,-3.168038,56.666415,0.006177,0.145402,-0.025853,0.989016,31.526974,1945.228271,0.489380,0.063244,-0.496948,1945.725220,-0.100192,80464.640625,-0.932729,0,0.000000,0, 202
40, 101,31249,-1090436182,1,31212,9.860079,-0.238219,-0.020725,-0.004831,0.088191,0.023027,13.196237,0.645945,13.938488,0.144157,-0.605563,565.845874,16.939137,-3.406341,56.645412,0.006760,0.147543,-0.027543,0.988642,31.735617,1945.832764,0.489380,0.063244,0.107544,1945.725220,0.019743,80458.023438,0.784170,0,0.000000,0, 202
41, 101,35525,-1110225455,1,35513,9.879333,0.132200,-0.086925,0.051102,0.072266,3.135575,12.235185,1.126471,13.836882,-0.091707,-13.729549,566.125694,160.966044,177.326724,56.490903,-0.006823,0.165225,-0.023503,0.985952,31.903433,1945.886230,0.489380,0.063244,0.161011,1945.725220,0.176437,80457.085938,0.749302,0,0.000000,0, 202
42, 101,39952,-1143714697,1,39927,9.678562,2.242557,-0.049446,0.227632,0.130508,2.891351,14.157287,3.529100,15.558496,-0.613028,-3.983229,569.232009,177.252015,179.825931,56.831204,-0.124795,0.023601,-0.004499,0.991892,32.112057,1945.692749,0.489380,0.148236,-0.032471,1945.725220,-0.256461,80462.492188,-0.358943,0,0.000000,0, 202
43, 101,44229,-1087653580,1,44198,9.893229,0.069106,-0.023033,0.232424,0.100510,3.120783,13.676761,2.568048,14.607265,-0.155195,-6.583108,568.155571,168.749741,173.332552,56.984074,-0.007699,0.097484,-0.035897,0.993387,32.266254,1945.916016,0.601074,0.269868,0.190796,1945.725220,-0.038424,80459.054688,-0.704964,0,0.000000,0, 202
44, 101,48398,1051028483,1,48378,9.896623,-0.175929,-0.006384,-0.001161,0.102380,0.017434,10.793607,1.126471,12.829956,-0.404301,-0.981815,567.426325,12.416454,1.878723,56.950766,0.010578,0.107963,0.015458,0.993949,32.402306,1946.074951,0.601074,0.331516,0.349731,1945.725220,0.235957,80457.367188,0.477196,0,0.000000,0, 202
45, 101,17662,1054310230,1,17846,9.917866,-0.208149,-0.005442,-0.004919,0.127967,0.021941,14.157287,0.645945,15.344450,0.487213,-0.034105,568.888368,9.486399,2.163401,57.084969,0.012492,0.082464,0.019719,0.996321,33.005413,1945.666992,0.730835,0.509918,-0.061157,1945.728149,-0.275927,80462.093750,-0.594771,0,0.000000,0, 202
46, 101,22071,1054119107,1,22052,9.904800,-0.211883,0.008335,-0.004038,0.114755,0.021888,12.715711,2.568048,14.449040,-0.656409,0.011934,568.131365,9.955331,2.256804,57.064137,0.012609,0.086531,0.020567,0.995957,33.136906,1945.926147,0.730835,0.509918,0.197998,1945.728149,0.283324,80460.523438,0.237328,0,0.000000,0, 202
47, 101,0,1054684494,1,15715,9.886339,-0.268240,0.000964,0.013832,0.098399,0.025735,14.637813,2.568048,15.812776,0.206051,0.133857,567.194427,-4.327932,2.585323,57.236237,0.012003,-0.038037,0.022056,0.998961,33.549500,1945.425537,0.240845,0.000000,-0.428711,1945.854248,-0.007894,80465.046875,-0.074563,0,0.000000,0, 202
48, 101,18245,1054346221,1,18212,9.908249,-0.253114,-0.007935,0.004140,0.119459,0.025166,13.676761,2.568048,15.108103,0.348741,-0.690483,568.400474,-4.107019,2.543927,57.240793,0.011964,-0.036104,0.021722,0.999042,33.581234,1945.369629,0.240845,0.000000,-0.484619,1945.854248,-0.018620,80466.710938,-0.120299,0,0.000000,0, 202
49, 101,22486,1054288985,1,22451,9.904102,-0.258671,-0.006850,0.003936,0.115387,0.025766,12.715711,2.087523,14.371418,0.601178,-0.079575,568.167264,-3.397841,2.546466,57.252336,0.012387,-0.029930,0.021603,0.999239,33.680977,1945.308594,0.240845,0.000000,-0.545654,1945.854248,0.223472,80467.453125,-0.573751,0,0.000000,0, 202
50, 101,26746,1061026667,1,26708,9.837505,-0.213145,-0.001091,0.031747,0.163365,0.021663,13.196237,2.568048,14.873672,0.411509,-4.041655,565.380984,-7.175034,1.779898,57.172559,0.011298,-0.062746,0.015225,0.997872,33.771648,1945.477173,0.240845,0.000000,-0.377075,1945.854248,-0.282250,80460.500000,0.230086,0,0.000000,0, 202
51, 101,31117,1051605517,1,31085,9.913470,-0.175566,-0.010682,-0.023865,0.118431,0.016859,14.157287,0.645945,15.344450,-3.732681,1.068283,568.423533,-12.277443,1.200285,56.957292,0.006994,-0.106946,0.017153,0.994185,33.862316,1945.582275,0.240845,0.000000,-0.271973,1945.854248,-0.046703,80457.585938,-0.096345,0,0.000000,0, 202
52, 101,35398,1055617059,1,35392,10.225763,0.051808,0.080520,0.173028,0.252117,0.066668,14.157287,3.048574,15.456585,29.915344,3.253354,586.492717,-25.108066,14.389144,55.506751,0.005068,-0.219603,0.114990,0.968776,33.952984,1945.520630,0.240845,0.000000,-0.333618,1945.854248,0.031115,80462.750000,0.366793,0,0.000000,0, 202
53, 101,39552,1050343954,1,39531,9.904547,-0.171465,-0.008452,0.020707,0.109605,0.016173,12.715711,1.126471,14.263550,-0.120557,0.259301,567.838650,-12.609700,2.112025,56.939326,0.006829,-0.109967,0.016262,0.993767,34.007385,1945.486572,0.240845,0.000000,-0.367676,1945.854248,0.018396,80460.382812,-0.030996,0,0.000000,0, 202
54, 101,0,-1102769599,0,1092524050,-0.000776,0.012257,-0.001411,0.018006,-0.208668,0.035978,14.273800,-0.020230,0.022428,568.281957,1575.633937,4610088.248854,56.973651,0.405604,-5.975082,0.016952,0.994378,0.007079,-0.104285,0.240845,0.708816,1945.854248,0.000000,5.402171,13.196237,0.000000,34.034584,-0.375244,0,0.295306,1, 202
55, 101,45828,1052032032,1,45819,9.910681,-0.183646,-0.008985,-0.001196,0.117665,0.018939,13.676761,2.087523,15.033884,0.537814,0.398862,568.297639,-10.603213,2.232408,57.038268,0.007627,-0.092561,0.018521,0.995506,34.088985,1945.685791,0.240845,0.000000,-0.168457,1945.854248,0.101523,80458.851562,1.738269,0,0.000000,0, 202
56, 101,50099,1050845422,1,50080,9.925093,-0.174262,-0.000322,-0.019146,0.129927,0.017654,11.754659,1.606997,13.462729,0.360777,0.783896,569.044643,-9.490760,1.283344,57.094043,0.007870,-0.082818,0.010430,0.996479,34.161514,1945.760132,0.240845,0.000000,-0.094116,1945.854248,0.507541,80462.773438,1.160331,0,0.000000,0, 202
57, 101,54312,-1071017434,1,54293,9.485853,-0.227614,-0.005064,-0.034746,0.042546,0.030291,12.715711,1.126471,13.011675,0.328908,11.257163,564.453008,-5.037728,-13.176529,56.851524,0.020072,-0.041917,-0.115271,0.992246,34.234043,1945.529541,0.240845,0.000000,-0.324707,1945.854248,-0.057359,80463.648438,0.264447,0,0.000000,0, 202
58, 101,347849300,1849501204,1539178610,2000421675,-106880432959651840.000000,-0.000000,3813343997829479150552819039207424.000000,0.000000,0.000000,0.000000,-0.000000,0.000000,-0.000000,838505118988566399462097813504.000000,0.000000,-0.000000,0.000000,-0.000000,0.000000,0.000092,-0.000000,104668764045312.000000,3610160631782289960022835200.000000,0.000000,0.000000,-618970019642690137449562112.000000,0.000000,-0.000000,0.000000,-0.000011,0.000000,0.000000,-1640183250,-0.000000,161, 202
59, 101,60669,-1062552266,1,60639,8.257278,-0.399953,-0.039758,0.020495,0.038148,0.040105,12.235185,1.606997,12.354695,-0.318483,-26.586894,563.748569,10.516251,-33.563375,54.644235,-0.007338,0.093487,-0.285694,0.953722,34.342838,1945.464844,0.240845,0.000000,-0.389404,1945.854248,-0.025215,80462.937500,0.285741,0,0.000000,0, 202
60, 101,7567,-1090076320,1,7764,9.862344,-0.234654,-0.002251,0.009351,0.078135,0.022769,12.715711,1.606997,14.529578,0.068084,-0.970489,566.034661,-1.012923,-3.169927,57.267752,0.011624,-0.008520,-0.027757,0.999511,34.265778,1945.498291,0.024780,0.000000,-0.366821,1945.865112,13.536724,80463.273438,0.034089,0,0.000000,0, 202
61, 101,6920,1043269745,1,7106,9.921334,-0.239523,-0.001069,-0.003349,0.124695,0.024470,12.715711,0.645945,14.233663,0.284538,-0.392479,568.700566,2.382181,0.960774,57.276976,0.012406,0.020682,0.008636,0.999672,34.234043,1945.656982,0.210449,0.000000,-0.133911,1945.790894,47.059391,80463.648438,0.508955,0,0.000000,0, 202
62, 101,-1159068785,1107886651,-1098850552,1156788192,-0.978939,0.210449,-0.294800,0.013282,0.018981,0.008438,0.013282,0.018981,0.008438,111485.606016,309.521579,811.152774,1.154935,13.754194,5729.577951,0.000000,0.000000,0.000000,0.000000,-0.009163,-0.008718,0.026258,0.000000,0.038184,0.016380,0.000000,15.194774,0.128985,999855900,80458.812500,64, 202
63, 101,13658,1054866808,1,13625,9.908207,-0.258072,-0.005416,-0.010601,0.120209,0.027116,13.676761,2.087523,15.435298,0.316987,0.321825,568.443860,1.665205,2.441654,57.271222,0.013863,0.014238,0.021499,0.999571,34.315639,1945.450317,0.210449,0.000000,-0.340576,1945.790894,-0.020467,80463.117188,-0.541803,0,0.000000,0, 202
64, 101,17566,1071853081,1,17745,9.788731,-0.020447,-0.003915,0.004624,0.147325,0.001418,12.235185,1.606997,13.884264,0.299949,-0.329431,569.998684,4.391063,10.401645,57.017856,0.004178,0.038088,0.090607,0.995149,17.179544,1866.158203,0.878906,0.646013,0.313721,1865.844482,-0.140656,81262.726562,-0.440512,0,0.000000,0, 202
65, 101,-623820929,0,465714594,17096,0.000000,0.000000,-0.000000,280049837842366464.000000,0.000000,-0.000000,-0.000000,517280316528900545958729280795967488.000000,-4.757948,482143058134251450304299008.000000,0.000000,0.000000,0.000000,0.000000,0.000000,0.000000,0.490736,-2.003843,2.003805,0.000000,0.000000,0.000000,-0.000000,-230584300921369395200.000000,0.000000,0.000000,0.000000,0.000000,213793449,0.000000,163, 202
66, 101,8586,1070029807,1,8571,9.852520,-0.491612,0.000059,0.003645,0.185936,0.048905,13.056985,-8.536605,19.286890,0.605642,-0.232444,572.211392,-0.496982,9.160569,57.095675,0.024026,-0.006274,0.079726,0.996508,22.368694,2049.373047,0.212646,0.000000,-0.279785,2049.652832,0.168173,79435.898438,-0.238192,0,0.000000,0, 202
67, 101,12783,1070345117,1,12774,9.845217,-0.490988,0.004414,0.015007,0.184596,0.047656,14.018037,-8.536605,19.950052,0.289539,-0.273370,572.136861,-0.508136,9.021339,57.102017,0.023403,-0.006293,0.078516,0.996618,22.623220,2049.407715,0.212646,0.000000,-0.245117,2049.652832,0.116770,79431.843750,0.389023,0,0.000000,0, 202
68, 101,17006,1070356610,1,17000,9.837550,-0.499988,0.015256,0.004662,0.177749,0.049682,14.498561,-9.497657,20.713266,0.687419,-0.558739,571.741912,0.498672,9.053570,57.098397,0.025104,0.002376,0.079008,0.996555,22.895910,2049.380615,0.212646,0.000000,-0.272217,2049.652832,-0.009216,79433.015625,0.053563,0,0.000000,0, 202
69, 101,21316,1070125185,1,21286,9.878835,-0.492899,-0.000542,-0.020125,0.213689,0.051200,13.056985,-8.056079,19.368568,-0.448914,0.253955,573.804192,0.845457,9.185449,57.099258,0.025212,0.005333,0.078638,0.996420,23.145863,2049.408447,0.212646,0.000000,-0.244385,2049.652832,0.115445,79430.000000,0.131342,0,0.000000,0, 202
70, 101,25565,1070173851,1,25523,9.828731,-0.488384,-0.004699,0.019064,0.172671,0.048453,14.979087,-9.017131,21.105398,0.423002,-0.808860,571.012229,1.523488,8.990081,57.096290,0.025189,0.011351,0.078664,0.996518,23.386711,2049.726318,0.216553,0.029455,0.073486,2049.652832,-0.137518,79426.273438,0.349173,0,0.000000,0, 202
71, 101,29838,1070215399,1,29831,9.824181,-0.485862,-0.006482,0.017816,0.161195,0.046988,12.576459,-9.497657,19.416449,-0.616268,-0.479613,570.793008,1.566919,9.123283,57.091721,0.024503,0.011758,0.079822,0.996439,23.618460,2049.749023,0.438965,0.289523,0.096191,2049.652832,-0.039036,79430.742188,0.165709,0,0.000000,0, 202
72, 101,34121,1070087266,1,34090,9.835938,-0.479425,0.001696,-0.006125,0.170090,0.048737,14.979087,-9.017131,20.582483,0.236851,-0.466305,571.301556,2.041512,8.951744,57.093083,0.025678,0.015854,0.078436,0.996462,23.822933,2050.518799,1.072510,0.844190,0.865967,2049.652832,0.070231,79421.312500,0.595227,0,0.000000,0, 202
73, 101,38517,1070268795,1,38481,9.845910,-0.493198,-0.005705,0.019617,0.183996,0.047496,14.018037,-9.497657,20.379807,-0.851175,0.208489,572.099213,2.249436,9.026688,57.088900,0.025212,0.017694,0.079119,0.996389,24.050116,2049.897705,1.072510,0.844190,0.244873,2049.652832,-0.218557,79424.875000,-0.015753,0,0.000000,0, 202
74, 101,42889,1066408818,1,42847,9.890490,-0.125982,-0.017945,0.010373,0.179601,0.015344,14.979087,-8.536605,20.124531,0.856674,3.462218,570.388497,2.267949,8.032921,57.134252,0.009471,0.019187,0.071921,0.997309,24.277285,2050.025879,1.072510,0.844190,0.373047,2049.652832,-0.028460,79423.445312,-0.044713,0,0.000000,0, 202
75, 101,47066,1070207022,1,47054,9.829940,-0.459205,-0.002200,0.020493,0.165438,0.044126,14.018037,-9.017131,19.635786,0.395664,0.033846,571.036982,2.020248,8.928577,57.097434,0.023363,0.015854,0.078194,0.996538,24.486271,2050.108887,1.072510,0.844190,0.456055,2049.652832,0.189645,79425.625000,-0.184745,0,0.000000,0, 202
76, 101,51257,1070096150,1,51248,9.858614,-0.453210,-0.005431,0.006151,0.191391,0.044834,14.498561,-8.536605,20.290577,-0.669963,-0.154907,572.522630,1.955820,8.846921,57.100750,0.023661,0.015283,0.077478,0.996596,24.713419,2050.069580,1.072510,0.844190,0.416748,2049.652832,0.050436,79426.101562,-0.199609,0,0.000000,0, 202
77, 101,55542,1070260405,1,55530,9.838870,-0.448391,-0.012860,0.007383,0.174797,0.044231,14.018037,-8.536605,19.419811,0.503457,0.077536,571.571267,1.564113,9.099653,57.094566,0.023124,0.011849,0.079600,0.996488,24.922384,2050.177490,1.072510,0.844190,0.524658,2049.652832,0.102897,79422.250000,-0.062754,0,0.000000,0, 202
78, 101,59755,1070111248,1,59752,9.831485,-0.445686,-0.001870,-0.008910,0.164560,0.045591,13.537511,-8.056079,19.411085,0.611964,0.373873,570.985838,2.048667,9.076792,57.090321,0.024132,0.016013,0.079500,0.996414,25.135883,2050.225586,1.072510,0.844190,0.572754,2049.652832,0.226006,79425.140625,0.051326,0,0.000000,0, 202
79, 101,63989,1070103622,1,63983,9.836373,-0.441340,-0.018427,-0.016973,0.169046,0.045979,14.979087,-9.497657,20.550634,0.781169,-0.125774,571.242926,3.397603,8.976001,57.076848,0.025226,0.027749,0.078875,0.996179,25.358456,2050.065674,1.072510,0.844190,0.412842,2049.652832,-0.098742,79424.679688,0.287577,0,0.000000,0, 202
80, 101,68247,1070185246,1,68236,9.823177,-0.457624,-0.011934,-0.003100,0.158320,0.046413,15.459613,-8.056079,20.539158,-0.522228,-0.238732,570.627116,3.867222,8.909741,57.071295,0.025741,0.031829,0.078389,0.996082,25.558306,2050.401367,1.072510,0.874701,0.748535,2049.652832,0.216806,79424.046875,-0.149228,0,0.000000,0, 202
81, 101,521945503,1980777728,16671,443694920,-1594333333553152.000000,-0.000000,0.037293,0.000000,0.000000,0.000000,30442545675117789184.000000,856757808463347712.000000,-0.000000,0.000000,150834690960451.125000,0.000000,0.000000,0.000000,-0.000000,0.000000,-0.000000,30289218250858844651520.000000,0.000000,-18380118603973379570197034097790943232.000000,-23404363161085235226933703271776256.000000,30442545675117789184.000000,-2731.757324,856757808463347712.000000,-18379958879997750813292445513187065856.000000,32263188250624.000000,0.000000,0.000000,1141720320,-2.003878,205, 202
82, 101,74747,1070265730,1,74707,9.844296,-0.456649,-0.003720,0.004998,0.180599,0.045545,14.018037,-8.536605,20.227089,-0.441232,-0.336700,571.905072,4.078096,8.830467,57.071196,0.025427,0.033714,0.077723,0.996080,25.848982,2050.421143,1.072510,0.920003,0.768311,2049.652832,0.039384,79421.882812,0.676162,0,0.000000,0, 202
83, 101,79039,1070205589,1,79025,9.862061,-0.438231,-0.010253,-0.009049,0.196175,0.044772,14.018037,-8.056079,19.749212,0.804481,0.192296,572.796712,4.195690,8.987650,57.063375,0.025168,0.034732,0.079096,0.995944,26.039728,2050.645020,1.072510,0.921269,0.992188,2049.652832,0.163454,79420.523438,0.735735,0,0.000000,0, 202
84, 101,83323,1070173207,1,83304,9.849228,-0.448095,-0.014126,0.006213,0.183356,0.044389,13.537511,-8.536605,19.615389,0.163352,-0.454486,572.061565,4.137366,8.897224,57.067931,0.025190,0.034238,0.078300,0.996030,26.221384,2050.580811,1.172852,1.034062,0.927979,2049.652832,-0.154583,79415.500000,-0.081173,0,0.000000,0, 202
85, 101,87575,1070228173,1,87565,9.842863,-0.460449,0.001626,-0.007769,0.178619,0.047242,14.498561,-8.536605,19.769470,0.876717,-0.649520,571.793439,3.660663,8.764591,57.079891,0.025978,0.030034,0.077103,0.996232,26.380327,2050.080078,1.172852,1.034062,0.427246,2049.652832,-0.227625,79426.273438,-0.608993,0,0.000000,0, 202
86, 101,91817,1070343381,1,91811,9.861252,-0.459342,0.012816,0.005730,0.198918,0.045345,12.095933,-8.056079,18.434687,0.558790,0.083120,572.954626,4.605848,9.104331,57.050101,0.025769,0.038248,0.080190,0.995712,26.561968,2050.319580,1.172852,1.034062,0.666748,2049.652832,-0.155709,79421.195312,-1.140182,0,0.000000,0, 202
87, 101,96019,1070266445,1,95988,9.842685,-0.447439,-0.012629,0.000466,0.178634,0.044992,14.979087,-9.017131,20.582483,-1.075973,-0.008784,571.790926,5.080678,8.916258,57.047410,0.025848,0.042431,0.078628,0.995665,26.693653,2050.299805,1.172852,1.034062,0.646973,2049.652832,-0.065758,79422.039062,0.426651,0,0.000000,0, 202
88, 101,100239,1070390617,1,100216,9.826125,-0.457097,-0.005191,0.005903,0.165105,0.045461,14.018037,-8.536605,19.950052,0.221234,0.320826,571.015890,5.446976,9.022245,57.034159,0.026369,0.045571,0.079620,0.995434,26.843498,2050.620117,1.172852,1.034062,0.967285,2049.652832,0.260513,79419.156250,0.581699,0,0.000000,0, 202
89, 101,104576,1070331826,1,104558,9.848188,-0.439328,-0.005049,0.002711,0.184942,0.044008,14.498561,-9.497657,19.960430,-0.507185,-0.076645,572.152434,5.852951,8.910179,57.029358,0.025872,0.049181,0.078677,0.995350,26.975174,2050.706299,1.370117,1.124235,1.053467,2049.652832,-0.050240,79416.976562,-0.171431,0,0.000000,0, 202
90, 101,108821,1070360115,1,108802,9.830578,-0.464199,-0.004469,0.004718,0.169231,0.046616,14.979087,-9.017131,20.840042,1.309050,-0.629417,571.252816,6.900561,8.820441,57.000913,0.027821,0.058199,0.078135,0.994854,27.120468,2050.310059,1.370117,1.124235,0.657227,2049.652832,-0.140063,79424.210938,0.127675,0,0.000000,0, 202
91, 101,-2110569216,-1779482272,672024475,1239499061,-0.000000,-236498436096.000000,189172.015625,0.000000,0.000000,0.000000,-151997298769920.000000,-71.617455,0.000000,-0.000000,-14967271401743977035180073152724074496.000000,49029474967327.265625,-0.000000,-63744796822741272494080.000000,-32771891046139183505604608.000000,0.000000,0.000000,0.000000,-0.000372,937819852976947200.000000,0.000000,-0.000000,-499.469299,0.000000,937819852976947200.000000,0.000000,-0.000000,79048949760.000000,1610628776,731533431534831195085589679439872.000000,175, 202
92, 101,115233,1070287852,1,115215,9.836927,-0.463410,-0.015150,0.015853,0.174076,0.045234,14.498561,-9.017131,20.767115,1.163939,0.472604,571.530613,7.832266,8.842244,56.970509,0.027758,0.066336,0.078427,0.994323,27.333860,2050.442871,1.370117,1.124235,0.790039,2049.652832,0.158411,79422.750000,-0.310764,0,0.000000,0, 202
93, 101,119535,1070340008,1,119492,9.830983,-0.461781,0.002390,-0.012755,0.189136,0.046679,14.979087,-8.536605,20.124531,-1.008616,-0.275118,571.247297,7.997014,8.661757,56.968245,0.027858,0.067819,0.077621,0.994324,27.465523,2050.389404,1.370117,1.124235,0.736572,2049.652832,-0.224888,79420.515625,0.123392,0,0.000000,0, 202
94, 101,123979,1070243648,1,123969,9.835928,-0.462147,-0.004570,0.016168,0.172185,0.044981,13.056985,-8.056079,19.079069,-0.306595,-0.037701,571.422806,8.019948,8.855184,56.965427,0.028535,0.067896,0.077937,0.994202,27.592642,2050.457275,1.370117,1.124235,0.804443,2049.652832,0.039294,79420.437500,0.466675,0,0.000000,0, 202
95, 101,128138,1070352195,1,128119,9.845803,-0.469183,-0.006977,0.015269,0.184324,0.046045,15.459613,-7.575553,20.355480,-0.784730,0.408109,572.117627,8.384820,8.785641,56.952119,0.028490,0.071113,0.078047,0.994002,27.715218,2050.308594,1.370117,1.124235,0.655762,2049.652832,0.064198,79419.531250,-0.466018,0,0.000000,0, 202
96, 101,132328,1070328298,1,132327,9.843537,-0.452980,0.004394,-0.008209,0.180878,0.047022,14.498561,-9.497657,20.713266,0.612597,-0.321805,571.920699,8.603955,8.689466,56.946764,0.029056,0.073001,0.077281,0.993909,27.796932,2050.344971,1.370117,1.124235,0.692139,2049.652832,0.143752,79418.257812,0.580252,0,0.000000,0, 202
97, 101,136533,1070264213,1,136491,9.831112,-0.457717,0.002595,-0.003725,0.167643,0.046761,13.537511,-7.575553,19.216629,-0.393040,-0.036603,571.161237,8.527768,8.788560,56.946036,0.028940,0.072325,0.078120,0.993896,27.901344,2050.297607,1.370117,1.124235,0.644775,2049.652832,0.008090,79423.062500,-0.365197,0,0.000000,0, 202
98, 101,-1069436928,272957466,4267973,1916734272,0.000000,-0.000000,-24.125437,0.000000,0.000000,0.000000,0.737939,-60092950977877773378642377703424.000000,213495230781980672.000000,0.000000,7169073055366380126432974237007523872768.000000,0.000000,0.000000,0.000000,-0.000000,0.000000,-3669873246461509824938453762048.000000,-200867424.000000,-0.000000,0.046414,-3042.181152,0.737939,-0.000000,-60092950977877773378642377703424.000000,0.046294,-31719708549873656048728363160922226688.000000,-0.002887,-15908661358346815312780607647274500096.000000,474284067,0.000000,184, 202
99, 101,1027460864,1065239498,1043112428,1033791252,0.029352,0.081649,0.077345,0.000000,2.920000,0.000000,0.000000,0.000000,0.000000,1.157722,13.750987,5729.577951,0.000000,90.143908,563.761246,-0.458280,0.009485,-0.010046,-0.005532,0.000000,0.000000,0.140523,21.366344,1.124235,0.000000,-9.978183,0.000000,0.762086,1041968528,0.081649,202, 202
100, 101,145071,1070350281,1,145056,9.836344,-0.445541,-0.000814,-0.008898,0.173806,0.046965,14.498561,-9.497657,20.203064,-0.278140,-0.024269,571.519084,10.002694,8.531312,56.895107,0.029809,0.085174,0.076119,0.993007,28.119238,2050.446045,1.370117,1.124235,0.793213,2049.652832,-0.015590,79422.281250,-0.294555,0,0.000000,0, 202
101, 101,149317,1070168281,1,149303,9.834619,-0.450249,-0.011505,-0.001596,0.168950,0.045936,14.018037,-7.575553,19.840628,0.825541,-0.597348,571.236096,9.658261,8.669212,56.905701,0.029180,0.082192,0.077221,0.993192,28.210024,2050.364014,1.370117,1.124235,0.711182,2049.652832,-0.120576,79423.609375,-0.160293,0,0.000000,0, 202
102, 101,153586,1070268865,1,153554,9.835323,-0.460633,-0.002519,0.004346,0.172019,0.046588,15.940139,-9.017131,21.292103,1.558282,0.394715,571.411987,10.295326,8.659067,56.876351,0.030084,0.087681,0.077423,0.992697,28.323503,2050.312988,1.370117,1.124235,0.660156,2049.652832,-0.127919,79426.007812,-0.141386,0,0.000000,0, 202
103, 101,157942,1070253666,1,157925,9.836710,-0.457863,0.005362,-0.007471,0.172954,0.047870,14.018037,-9.017131,20.160349,0.077751,-0.849692,571.466519,10.992138,8.535173,56.848187,0.030882,0.093712,0.076337,0.992188,28.409746,2050.529785,1.370117,1.124235,0.876953,2049.652832,0.082971,79419.507812,0.067957,0,0.000000,0, 202
104, 101,-1438147809,-1522457067,-717114112,-1723531238,0.000000,-0.000000,0.000000,0.000000,0.000000,0.000000,3941154872073370458529484689687707648.000000,0.000000,-0.000000,-101097607837371890434834432.000000,-0.000000,-178560277.176293,0.000000,0.000000,-788934406346364289024.000000,-7554300602759125962657886109696.000000,-200867424.000000,-0.000000,0.000000,-13475052943048704.000000,-0.000000,3941154872073370458529484689687707648.000000,0.000000,-0.000000,-13475052943048704.000000,-0.000000,-12769303552.000000,-0.000721,2101470116,3783415559439715797026857811968.000000,232, 202
105, 101,-2108096512,890372098,65536,-2110259200,405646013298564266209661203261685760.000000,0.006783,27313538241776512577568768.000000,493813620362541846799319040.000000,8944877668663296.000000,0.000000,-0.000000,10960.335938,-0.000000,-0.000000,0.000000,-0.000000,0.000070,18018.774287,-53648731718.102333,-0.000000,-0.000000,-227215518772753259306811886927872.000000,-232186626048.000000,-0.000000,0.000000,37108367903858622464.000000,-573126575369694524473344.000000,0.000000,0.000000,0.000000,0.000000,0.000000,0,0.000000,0, 202
106, 101,2,-2129903668,-1971585024,1294729218,0.000000,88471368.000000,-0.000000,-0.000000,0.000000,0.000000,-1172605819430782947484643413196800.000000,0.000000,0.000000,6375436146.094085,-0.036661,0.000000,0.000057,-39933.455254,-2.185633,-0.000000,0.000000,-696.962708,-0.038146,0.000000,-7775037159236741489038312079360.000000,-2422550659051659705974784.000000,-133213747178988657360717037638254592.000000,0.000000,731533431534831195085589679439872.000000,-571968645862302041505792.000000,0.000000,36962691409271324672.000000,0,-0.000000,0, 202
107, 101,170703,1070193620,1,170690,9.838241,-0.464499,-0.002137,0.009689,0.173646,0.046561,14.979087,-8.056079,20.442581,0.505085,-0.594934,571.505642,12.594967,8.563007,56.764801,0.031260,0.107627,0.076733,0.990733,28.709312,2050.703613,1.423828,1.189000,1.050781,2049.652832,0.075927,79419.304688,-0.074616,0,0.000000,0, 202
108, 101,174987,1070289762,1,174962,9.841128,-0.446424,-0.017197,-0.007780,0.177492,0.046656,14.498561,-8.536605,20.025953,0.610027,0.219080,571.725684,12.208507,8.590517,56.784629,0.030724,0.104306,0.077067,0.991082,28.813704,2050.644775,1.423828,1.189000,0.991943,2049.652832,0.044197,79419.031250,0.411215,0,0.000000,0, 202
109, 101,179196,1070175569,1,179186,9.845551,-0.456741,-0.022550,0.012737,0.180155,0.045451,15.459613,-9.017131,21.188061,-0.417924,0.392049,571.878789,12.850869,8.547343,56.752038,0.030856,0.109887,0.076569,0.990510,28.909014,2050.576660,1.423828,1.189000,0.923828,2049.652832,0.086768,79418.125000,-0.316712,0,0.000000,0, 202
110, 101,183427,1070266269,1,183419,9.828271,-0.469385,-0.016956,0.009789,0.165419,0.047148,14.979087,-8.056079,19.925449,-0.412268,-1.108262,571.034086,12.242850,8.600803,56.782112,0.031365,0.104549,0.077044,0.991035,28.999783,2050.638672,1.423828,1.189000,0.985840,2049.652832,0.029077,79418.398438,0.508768,0,0.000000,0, 202
111, 101,187669,1070318094,1,187654,9.826700,-0.462453,-0.006386,0.026606,0.164483,0.045348,13.537511,-8.536605,19.615389,0.519135,0.029649,570.983215,12.706600,8.489415,56.762461,0.030660,0.108659,0.076045,0.990692,29.090551,2050.870117,1.423828,1.273301,1.217285,2049.652832,0.303855,79417.664062,-0.004838,0,0.000000,0, 202
112, 101,-1165430496,1069318144,-1164077495,1026594391,0.979248,2049.652832,11.341324,0.076781,0.020206,0.240000,0.076781,0.990623,0.031506,775.642238,-489.111431,1123.878996,5729.577951,0.000000,0.000000,0.000000,0.000000,1.074891,-0.206102,0.046920,0.194103,0.149484,9.841227,0.990623,0.031506,1.582273,-0.007494,0.221665,1102774272,29.145010,182, 202
113, 101,194136,1070279282,1,194108,9.837563,-0.462446,-0.002579,0.008869,0.174506,0.046637,14.018037,-6.614501,19.206318,0.016539,-0.099397,571.554656,12.655390,8.569300,56.761126,0.031342,0.108145,0.076799,0.990669,29.235775,2050.741943,1.472656,1.280799,1.089111,2049.652832,0.085854,79420.679688,1.025146,0,0.000000,0, 202
114, 101,198410,1070333649,1,198367,9.842035,-0.460975,-0.017933,0.015113,0.187367,0.046636,13.537511,-8.536605,19.341530,0.110320,0.035924,571.862670,12.975258,8.574946,56.743426,0.032267,0.110844,0.076552,0.990349,29.303848,2051.016602,1.565918,1.280799,1.363770,2049.652832,-0.061865,79413.851562,0.374837,0,0.000000,0, 202
115, 101,202714,1070238319,1,202693,9.852274,-0.455942,0.005801,-0.005074,0.187942,0.047236,14.498561,-8.536605,20.025953,0.203759,-0.509651,572.324391,12.814865,8.554507,56.752199,0.031724,0.109506,0.076724,0.990513,29.399147,2051.173340,1.713379,1.528347,1.520508,2049.652832,0.314173,79410.898438,-0.200010,0,0.000000,0, 202
116, 101,207102,1070342188,1,207093,9.862054,-0.458917,-0.006878,0.006531,0.199690,0.046599,15.459613,-9.017131,21.188061,-0.004204,0.441071,572.997574,13.021202,8.542424,56.741489,0.031525,0.111317,0.076612,0.990326,29.480831,2051.288818,1.713379,1.530840,1.635986,2049.652832,0.134931,79411.515625,0.483046,0,0.000000,0, 202
117, 101,211267,1070146751,1,211250,9.822704,-0.468620,-0.014586,0.018404,0.157607,0.046181,14.979087,-8.056079,20.442581,-0.179809,-0.141385,570.588102,13.830857,8.532887,56.694361,0.031812,0.118333,0.076606,0.989503,29.557976,2051.073242,1.798340,1.530840,1.420410,2049.652832,-0.019450,79414.312500,-0.034996,0,0.000000,0, 202
118, 101,215456,1070196482,1,215449,9.840943,-0.451703,-0.016890,-0.005793,0.175772,0.046879,15.459613,-9.978183,21.126141,0.461716,1.060878,571.627766,14.173698,8.547762,56.672023,0.032385,0.121264,0.076818,0.989113,29.635118,2050.680664,1.798340,1.530840,1.027832,2049.652832,-0.260196,79417.109375,-0.527742,0,0.000000,0, 202
119, 101,219676,1070270039,1,219634,9.841959,-0.467265,0.006243,-0.002687,0.178894,0.048389,13.537511,-8.536605,19.897085,-0.241158,-0.225417,571.805897,13.742764,8.522308,56.698070,0.032839,0.117491,0.076634,0.989568,29.712261,2050.867676,1.798340,1.530840,1.214844,2049.652832,0.095168,79417.898438,0.251042,0,0.000000,0, 202
120, 101,223980,1070285039,1,223973,9.830131,-0.475474,-0.006374,0.022275,0.167868,0.047406,14.018037,-8.056079,20.029026,0.566716,-1.359155,571.176099,14.413876,8.386578,56.662566,0.032621,0.123363,0.075489,0.988948,29.780327,2050.690674,1.798340,1.530840,1.037842,2049.652832,-0.223878,79419.062500,-0.194859,0,0.000000,0, 202
121, 101,1067321344,1002392125,1072050176,-1133527890,0.196152,0.045767,0.255066,1.342612,0.066765,1.530840,0.000000,0.000000,0.000000,8.458709,56.650941,1.853726,0.000000,0.000000,0.000000,0.000000,0.000000,0.000000,0.000000,0.032011,0.988704,0.076033,2050.833008,0.000000,0.000000,79417.648438,0.075415,0.125134,1094022672,21.052414,87, 202
122, 101,230333,1070402028,1,230309,9.833627,-0.455531,-0.010972,0.013818,0.172640,0.045872,15.459613,-8.536605,20.988066,0.659658,-0.172880,571.448050,14.605574,8.560106,56.645149,0.032168,0.125027,0.076914,0.988644,29.898304,2051.116211,1.798340,1.541957,1.463379,2049.652832,-0.128586,79413.117188,0.008853,0,0.000000,0, 202
123, 101,1092581650,1067005952,980388988,1072050176,2049.652832,11.341324,14.979087,0.010000,0.120000,100.000000,0.988833,0.033212,0.123551,-544.175651,1206.214467,-0.313533,0.000000,0.000000,0.000000,0.000000,1.321231,-0.063312,1.541957,0.252080,0.048342,0.988833,-0.468901,0.033212,0.123551,9.819070,0.166054,0.148148,1201347895,-0.352243,153, 202
124, 101,236895,1070209609,1,236886,9.832924,-0.457026,0.000124,0.006753,0.168359,0.046614,14.018037,-8.536605,19.680851,0.037291,0.362726,571.202655,15.410780,8.457869,56.595265,0.032916,0.131975,0.076172,0.987774,30.020815,2050.317383,1.798340,1.541957,0.664551,2049.652832,-0.248922,79425.023438,-0.992283,0,0.000000,0, 202
125, 101,241287,1070038548,1,241281,9.828866,-0.454709,0.000516,0.004068,0.161044,0.046756,14.498561,-9.017131,20.235460,0.289391,0.217864,570.783336,15.460997,8.331408,56.596508,0.032871,0.132439,0.075097,0.987795,30.097950,2050.565918,1.798340,1.541957,0.913086,2049.652832,0.013998,79417.765625,-0.034934,0,0.000000,0, 202
126, 101,1103233024,1157634674,1092592760,1064304640,11.341324,14.979087,-9.017131,0.240000,100.000000,0.000000,0.033752,0.132447,0.074924,1194.046458,0.955702,-0.701642,0.000000,0.000000,0.000000,0.927868,-0.060585,1.541957,0.000000,0.144809,0.269982,0.033752,0.002255,0.132447,0.074924,-0.461243,0.048612,0.987778,1157638514,1.798340,134, 202
127, 101,247786,1070342078,1,247763,9.827057,-0.454067,-0.010763,0.012469,0.164951,0.045983,15.459613,-9.497657,20.903473,0.837433,0.412929,571.007476,15.756485,8.506347,56.570352,0.032873,0.134966,0.076587,0.987339,30.206844,2050.853760,1.798340,1.541957,1.200928,2049.652832,0.240896,79422.203125,0.254995,0,0.000000,0, 202
128, 101,1530826275,859638209,524108662,457145531,0.000000,-0.002893,-0.000000,0.000000,0.000008,35188499283968.000000,0.000000,0.000000,0.000000,0.000000,0.000000,0.000000,0.000000,-177035.272006,1576520416861166764032.000000,-0.000000,-0.000000,115860957142363104931167076352.000000,0.000000,-0.002924,8388608.000000,-201086432.000000,0.000000,-0.000000,0.000000,0.000000,0.000000,-104256833060864.000000,457145531,3667450020769223060932788224.000000,193, 202
129, 101,254052,1070214074,1,254040,9.830190,-0.454478,-0.002024,0.002795,0.165637,0.047198,15.940139,-9.017131,21.292103,0.946531,-0.051931,571.046326,15.944626,8.373070,56.561172,0.033429,0.136580,0.075542,0.987179,30.306662,2051.039795,1.798340,1.541957,1.386963,2049.652832,0.010121,79414.976562,0.076882,0,0.000000,0, 202
130, 101,258324,1070200752,1,258304,9.842568,-0.458286,0.006119,0.002432,0.177769,0.047533,14.018037,-9.017131,19.893993,-0.136641,0.458722,571.741420,16.526949,8.355627,56.520017,0.033923,0.141590,0.075482,0.986460,30.370180,2051.067871,1.798340,1.541957,1.415039,2049.652832,-0.016519,79412.281250,-0.176673,0,0.000000,0, 202
131, 101,262532,1070173537,1,262524,9.836469,-0.453154,-0.004736,-0.000711,0.170992,0.047154,14.979087,-8.056079,20.442581,-0.047017,-0.118769,571.353903,17.290720,8.385338,56.462630,0.034231,0.148170,0.075794,0.985459,30.451845,2050.756348,1.798340,1.541957,1.103516,2049.652832,0.001459,79419.867188,-0.092278,0,0.000000,0, 202
132, 101,266757,1070260360,1,266748,9.843611,-0.452567,-0.006779,0.003262,0.179641,0.046547,14.498561,-8.056079,20.368231,0.749891,1.055078,571.849884,17.395696,8.458995,56.452442,0.034091,0.149074,0.076393,0.985281,30.506289,2051.375000,1.798340,1.541957,1.722168,2049.652832,0.074999,79409.515625,0.698176,0,0.000000,0, 202
133, 101,0,1045819033,1,4594,8.600143,4.897784,-0.009355,0.013808,0.098161,2.618427,12.576459,-4.211873,16.550293,-0.525054,0.419439,567.183061,173.389379,-174.631340,55.245387,-0.254594,0.068041,0.029049,0.964015,20.004539,2054.227051,0.332031,0.030446,-0.051758,2054.278809,1.618609,79383.789062,-0.106798,0,0.000000,0, 202
134, 101,0,1075331911,1,4644,8.618066,4.349834,-0.002459,-0.015580,0.141434,2.690136,12.095933,-5.172924,17.369410,0.429322,0.200203,569.660289,-178.263757,-165.378687,55.357228,-0.223850,0.013831,0.127370,0.966166,21.000366,2054.464355,0.008057,0.000000,-0.305420,2054.769775,2.562668,79382.734375,0.245998,0,0.000000,0, 202
135, 101,0,1049696513,1,4454,8.365657,5.259606,0.018600,0.065463,0.083568,2.570964,12.576459,-4.692398,17.266813,-0.115753,-3.501056,566.411578,172.780495,-174.448236,54.855203,-0.277645,0.073948,0.028679,0.957404,21.477737,2054.017578,0.000000,0.000000,-0.375000,2054.392578,2.001357,79385.070312,0.366637,0,0.000000,0, 202
136, 101,8409,-1094830278,1,8379,7.370788,6.355056,-0.220083,-0.222718,-0.066409,2.444002,11.134881,-2.289769,15.074269,-1.805851,25.638462,558.018751,173.224922,-175.411702,53.754873,-0.338672,0.069144,0.017375,0.938200,21.841415,2053.892822,0.000000,0.000000,-0.499756,2054.392578,-0.105078,79386.265625,-0.155643,0,0.000000,0, 202
137, 101,0,-1106336914,1,4454,8.898108,4.315573,-0.006752,-0.004979,0.089388,2.689991,12.576459,-4.211873,16.842127,0.618584,-0.391572,566.677791,177.076288,-179.537929,55.824021,-0.223712,0.025766,-0.001783,0.974313,22.582315,2053.959473,0.000000,0.000000,-0.478027,2054.437500,2.076745,79385.867188,0.221020,0,0.000000,0, 202
138, 101,8287,1061945993,1,8269,9.093697,3.865854,-0.058844,-0.015164,0.112290,2.742076,14.018037,-4.211873,18.516773,1.342626,3.332570,567.995198,-176.684986,-176.140948,56.090033,-0.199191,-0.021655,0.038723,0.978956,22.855009,2053.966309,0.000000,0.000000,-0.471191,2054.437500,-0.051846,79386.039062,0.140370,0,0.000000,0, 202
139, 101,12478,1059035539,1,12471,9.034432,4.040082,-0.001721,0.004185,0.115234,2.720970,13.537511,-4.211873,17.859480,-0.262959,0.862159,568.158959,-176.897624,-177.350861,55.990336,-0.209244,-0.021642,0.028248,0.977216,23.195850,2054.461426,0.245605,0.000000,0.023926,2054.437500,-0.068229,79380.718750,0.071409,0,0.000000,0, 202
140, 101,811155501,1881423738,-102810177,636566732,0.000000,0.032162,-0.000000,-230584300921369395200.000000,0.000000,14.812500,15.625000,0.000000,0.000000,-4103.434711,0.000000,0.000000,-161344.915109,-691830552.097985,-7197.901201,-1890.015747,-887901650944.000000,-5676628.000000,-293638930432.000000,80750600743933639278906278912030932992.000000,0.000000,-311014886556601450466790866944.000000,-3952739.500000,520347011847315519421039991848960.000000,-89655024.000000,4423894958080.000000,0.000000,0.000000,636600390,0.032162,122, 202
141, 101,18865,-1093603005,1,18840,8.889402,4.568678,0.025709,-0.139212,0.200637,2.681279,12.095933,-5.653450,16.339975,-2.387540,-0.497385,573.132047,-178.681246,177.295291,55.769246,-0.227787,-0.016585,-0.020352,0.973357,23.686619,2054.357910,0.494629,0.267819,-0.079590,2054.437500,-0.090693,79381.718750,-0.374282,0,0.000000,0, 202
142, 101,23090,-1079941894,1,23059,8.364365,4.885608,-0.023891,-0.083736,-0.033059,2.625603,11.615407,-3.731347,15.124183,1.193975,-8.154767,559.688049,176.443730,173.185621,55.247976,-0.256352,0.014793,-0.065340,0.964259,23.986506,2054.539551,0.494629,0.267819,0.102051,2054.437500,-0.099290,79380.640625,-0.072191,0,0.000000,0, 202
143, 101,27334,-1078274672,1,27302,8.691593,4.651618,-0.014760,-0.133048,0.150543,2.668628,12.576459,-4.211873,15.477403,-6.667044,21.415983,570.983105,179.996535,173.791773,55.619378,-0.233942,-0.012657,-0.052650,0.970741,24.286371,2054.142090,0.494629,0.267819,-0.295410,2054.437500,-0.173593,79384.445312,-0.519946,0,0.000000,0, 202
144, 101,0,1000345327,1,4654,8.327418,5.320249,0.204707,0.094604,0.080059,2.563402,11.134881,-4.211873,15.180487,-3.406719,-1.139041,566.188313,177.877319,-179.173101,54.909462,-0.284901,0.019811,0.001635,0.958351,24.404495,2054.610840,0.209473,0.000000,-0.117676,2054.728516,2.562111,79380.062500,-0.449373,0,0.000000,0, 202
145, 101,-1841406467,943834195,557902443,-2008743831,0.000000,0.000000,-0.000000,-0.000000,14694633827818682990498676736.000000,-0.000000,-0.000000,14694633827818682990498676736.000000,-26114212757504.000000,-3411395872634919067366457344.000000,834993087630103755939119104.000000,219386626166001702168671461310464.000000,-10.573523,0.000000,0.000000,0.000000,0.000000,0.000000,0.000000,484353866519466860260214364438528.000000,-0.000000,997355087941102558983530322514149376.000000,2147492096.000000,0.000046,-13211280605184.000000,0.000000,-0.000000,-0.000000,213809390,-3348826624.000000,14, 202
146, 101,10647,-1080289370,1,10637,6.330408,7.476076,0.126902,-0.142697,0.069477,2.294773,12.095933,-2.770295,15.293344,-2.649860,-13.666902,565.613757,175.944471,173.108453,52.059026,-0.411811,0.007521,-0.069274,0.908601,24.858788,2054.615723,0.256836,0.074379,-0.112793,2054.728516,0.005992,79378.968750,-0.385533,0,0.000000,0, 202
147, 101,14975,-1088013241,1,14940,8.957807,4.139484,0.006701,0.007579,0.088343,2.708935,13.537511,-4.692398,17.146561,-0.244851,1.343537,566.618177,179.747616,176.043290,55.929110,-0.214257,-0.005136,-0.034701,0.976091,25.158594,2054.703613,0.323242,0.113224,-0.024902,2054.728516,0.023231,79379.585938,0.553874,0,0.000000,0, 202
148, 101,998686364,0,1606434674,0,0.000000,0.000000,0.000000,-558360397948025463854233808797696.000000,9813219.000000,0.000000,-32444082456392878458573911228416.000000,-0.000000,-0.000000,-29626131725291974819840.000000,-1541339776.965327,-24258193876772989207140485824512.000000,0.000000,139917706266342224232972288.000000,-0.000000,296904654848.000000,37106846179765780480.000000,-2.003841,407997448470261346888318976.000000,0.000000,0.000000,0.000000,-1195368674016900243298152603451392.000000,0.000000,8519680.000000,-452516483271118290944.000000,10289152.000000,0.000000,1573436843,0.000000,165, 202
149, 101,21308,-1070128762,1,21277,6.963474,5.570855,0.432277,-0.206141,-0.438692,2.505299,14.979087,-4.211873,17.271933,9.481693,8.031549,536.602173,165.145805,167.939844,53.421942,-0.321364,0.089513,-0.139153,0.932389,25.581017,2054.502441,0.469482,0.165891,-0.226074,2054.728516,-0.029942,79381.421875,0.030527,0,0.000000,0, 202
150, 101,25485,-1098242939,1,25456,8.717420,4.680307,-0.076759,-0.052993,0.092659,2.653955,12.095933,-4.211873,16.188158,2.770201,5.352392,567.116781,179.609537,-179.656692,55.600721,-0.241398,0.004030,0.002085,0.970416,25.830816,2054.715576,0.469482,0.165891,-0.012939,2054.728516,0.296608,79381.804688,0.141733,0,0.000000,0, 202
151, 101,4716,-1070945404,1,6291,7.553689,5.000771,-0.084734,0.218290,-0.360286,2.519921,11.615407,-3.250821,15.012854,1.904950,-4.756744,541.065511,159.471393,173.673542,53.619382,-0.300517,0.153127,-0.102251,0.932407,26.175972,2054.612061,0.354492,0.173146,-0.082764,2054.694824,0.009163,79383.414062,0.199457,0,0.000000,0, 202
152, 101,10538,-1075994378,1,10510,8.695308,4.699513,0.038611,-0.129282,0.208095,2.668029,13.056985,-4.692398,16.249434,-13.627696,-4.430002,574.936255,164.728139,172.328692,55.024404,-0.249628,0.105133,-0.065933,0.959234,26.384869,2055.385498,0.750244,0.571713,0.690674,2054.694824,0.105870,79372.320312,0.646542,0,0.000000,0, 202
153, 101,14776,-1063318096,1,14753,8.512635,0.416474,-0.019631,0.027992,0.065238,3.036892,13.056985,-8.536605,16.267979,-0.525257,0.013366,565.296235,114.967834,155.032972,46.758918,-0.159115,0.514571,-0.209486,0.816097,26.621000,2055.254883,0.799316,0.612571,0.560059,2054.694824,0.207681,79370.078125,0.900399,0,0.000000,0, 202
154, 101,1101529088,1157655326,1092464353,1052868608,3.652910,14.018037,-8.056079,0.240000,100.000000,0.000000,-0.160172,0.519367,-0.209263,949.710265,-0.361667,0.287542,0.000000,0.000000,0.000000,0.449433,0.029187,0.612571,0.000000,2.705385,1.994854,-0.160172,-0.001751,0.519367,-0.209263,0.429949,3.036800,0.812903,1157656874,0.799316,0, 202
155, 101,0,-1063154731,1,4091,8.459727,0.429764,-0.007505,-0.004686,0.059890,3.098473,12.576459,-7.095027,15.159003,-0.132861,-0.285102,564.987565,178.480807,149.202163,55.216844,-0.024302,0.007054,-0.265728,0.963716,27.147711,2054.934570,0.029785,0.000000,-0.091309,2055.025879,4.794398,79372.265625,0.763705,0,0.000000,0, 202
156, 101,8011,-1062704922,1,8000,8.311554,0.682145,0.007046,-0.021556,0.059400,3.074161,13.056985,-8.536605,16.138271,-0.238528,4.434981,565.008384,178.433255,148.513434,55.102787,-0.036149,0.004006,-0.271592,0.961725,27.283918,2054.840820,0.068848,0.000000,-0.185059,2055.025879,-0.005249,79376.843750,-0.054109,0,0.000000,0, 202
157, 101,1886043853,-1160332059,15757,-705511684,-0.000000,-227.251053,0.000000,1770206956955401370739287261184.000000,0.000000,-0.000000,0.000000,0.000000,0.000000,11203372840660579593471444006207488.000000,48603369881.682129,5214044.403571,0.000000,0.000000,0.000000,0.000000,0.000000,0.000000,0.058838,-149236.453125,0.005348,-15112342830929959202611487834112.000000,-862940921447479221938666078208.000000,-1189022906974208.000000,0.000000,2382714482878919701692416.000000,24608080.000000,712.953003,-1997455285,39971774729661329375756288.000000,65, 202
158, 101,14585,-1061209690,1,14561,7.832274,0.474933,-0.007428,-0.017467,0.056018,3.092206,12.576459,-6.614501,14.462540,0.522834,0.743802,565.112148,175.425254,144.891767,54.550464,-0.035556,0.030600,-0.302214,0.952085,27.583563,2054.415527,0.068848,0.000000,-0.610352,2055.025879,-0.273169,79383.867188,-0.370292,0,0.000000,0, 202
159, 101,4800,-1063661479,1,6400,8.616465,0.479709,-0.016282,-0.005679,0.077135,3.093594,14.979087,-9.017131,17.861284,0.014692,-0.335400,565.976140,177.027220,150.908440,55.415708,-0.029733,0.019076,-0.251599,0.967187,27.837790,2054.410400,0.707031,0.439019,0.230713,2054.179688,-0.095961,79384.656250,-0.074870,0,0.000000,0, 202
160, 101,4874,-1063373868,1,6478,8.510595,0.481542,0.000535,-0.000738,0.053112,3.092695,12.095933,-7.575553,14.999641,0.189154,-0.135732,564.599064,176.960270,150.014996,55.299797,-0.030465,0.019291,-0.259151,0.965164,28.101080,2054.452881,0.286133,0.175162,-0.014160,2054.467041,0.449839,79387.039062,-0.493907,0,0.000000,0, 202
161, 101,0,-1063376248,1,4388,8.512988,0.489543,-0.003664,-0.009122,0.054994,3.092774,12.095933,-6.614501,14.697518,0.165246,-0.187724,564.707418,178.314424,150.007552,55.316657,-0.027378,0.007889,-0.258997,0.965458,28.382511,2054.235840,0.000000,0.000000,-0.701904,2054.937744,2.292550,79382.617188,-1.279040,0,0.000000,0, 202
162, 101,8395,-1063413147,1,8355,8.518445,0.482870,-0.011284,-0.001320,0.050560,3.092736,12.576459,-6.614501,15.095455,0.099618,-0.812023,564.454046,177.130806,149.985913,55.298724,-0.030066,0.017852,-0.259370,0.965145,28.505066,2054.814941,0.000000,0.000000,-0.122803,2054.937744,0.220459,79376.625000,0.540346,0,0.000000,0, 202
163, 101,12613,-1062555140,1,12571,8.201411,0.544810,-0.018741,-0.004790,0.034986,3.092765,12.095933,-7.095027,14.619723,2.071106,8.868709,561.422425,175.532214,148.069772,55.012580,-0.034170,0.030755,-0.275676,0.960151,28.682081,2054.741699,0.271240,0.054998,-0.196045,2054.937744,-0.173856,79379.398438,-0.486556,0,0.000000,0, 202
164, 101,11206880,81978,-1345503899,1030815744,20.375000,56727364360213265716977468440576.000000,-0.000068,5454727479296.000000,-0.000000,-1893104931983929987441885184.000000,40153248005580844799755288576.000000,2500.312500,-0.000000,-0.000000,0.000000,135145767642651947077468160.000000,-0.000000,-58636465141623767040.000000,891984.500258,2014080007784890534027329536.000000,-0.000000,-192149360.000000,-0.000000,0.000000,0.000000,-43779675389952.000000,0.000000,0.000000,-0.000000,0.000000,-0.000296,2597347313503607667220807680.000000,1104019456,0.000000,0, 202
165, 101,18969,-1063467805,1,18945,8.414720,0.607001,-0.029543,0.026632,-0.045710,3.077425,12.576459,-7.575553,15.540596,-0.045490,2.696551,558.968693,172.388073,149.672941,55.118650,-0.048247,0.055661,-0.262919,0.962002,28.918091,2054.813232,0.307617,0.089070,-0.124512,2054.937744,0.307272,79378.710938,-0.224399,0,0.000000,0, 202
166, 101,23237,-1063063313,1,23220,8.430509,0.458633,0.002521,-0.008549,0.058576,3.095045,12.576459,-8.056079,15.496872,0.021607,-0.388621,564.912488,169.807368,149.392015,54.999374,-0.045797,0.079539,-0.264820,0.959920,29.072397,2055.056641,0.307617,0.089070,0.118896,2054.937744,0.538178,79376.351562,1.374470,0,0.000000,0, 202
167, 101,27604,-1062305524,1,27587,8.175853,0.500323,-0.008579,0.017869,0.039263,3.088652,12.576459,-8.056079,15.631903,-0.271918,-2.777172,563.811571,167.762724,146.679433,54.512433,-0.055759,0.094533,-0.287666,0.951421,29.217623,2055.125000,0.332031,0.173707,0.187256,2054.937744,-0.169286,79373.351562,0.115247,0,0.000000,0, 202
168, 101,31895,-1062073709,1,31885,8.085899,0.520815,-0.012418,-0.003953,0.027973,3.087804,13.056985,-7.575553,15.425236,0.897189,-0.097038,563.158878,167.214205,146.114344,54.398406,-0.058000,0.098687,-0.292365,0.949431,29.362843,2054.646240,0.332031,0.173707,-0.291504,2054.937744,-0.067801,79380.343750,-0.217803,0,0.000000,0, 202
169, 101,36264,-1062037969,1,36261,8.085370,0.528421,-0.009816,-0.003214,0.037603,3.086359,12.095933,-7.095027,14.762779,-0.044360,-0.027467,563.710484,165.637333,146.195063,54.309201,-0.062667,0.111566,-0.291822,0.947930,29.526211,2054.633789,0.332031,0.173707,-0.303955,2054.937744,0.054387,79380.562500,-0.037975,0,0.000000,0, 202
170, 101,0,-1061922557,1,4580,8.041256,0.495998,-0.008961,0.030367,0.030881,3.087757,13.056985,-8.056079,15.889322,0.609774,0.182333,563.339577,177.847703,145.452321,54.626422,-0.029916,0.010441,-0.300006,0.954232,29.739487,2054.871582,0.083984,0.000000,-0.077881,2054.949463,1.619028,79375.656250,-0.122176,0,0.000000,0, 202
171, 101,8406,-1061859773,1,8396,8.073672,0.520835,0.021955,-0.014081,0.076050,3.090074,12.576459,-8.056079,15.496872,-2.450429,-1.986566,565.915214,176.996457,145.224725,54.629168,-0.032400,0.017308,-0.299277,0.953459,29.875616,2054.876465,0.092041,0.000000,-0.072998,2054.949463,0.068419,79378.968750,0.593863,0,0.000000,0, 202
172, 101,10503373,1077516698,0,0,0.000000,0.000000,-5.631085,-6.614501,15.095455,0.003359,-0.337646,2054.949463,5.094488,462.252286,31.310779,0.090531,-0.783699,3.025132,176.894386,3.073909,2.535655,0.953285,-0.035941,24.125000,9.853808,2054.611816,0.000000,30.020815,-0.053330,0.000000,0.004681,79378.875000,1,0.000000,69, 202
173, 101,14723,-1061903212,1,14694,8.035867,0.548372,-0.005881,-0.003328,0.034796,3.085976,12.095933,-7.575553,14.858866,-0.372829,-0.245463,563.549674,175.926234,145.166231,54.596277,-0.037148,0.025583,-0.299960,0.952885,30.088875,2054.406250,0.092041,0.000000,-0.543213,2054.949463,-0.226618,79380.015625,0.060612,0,0.000000,0, 202
174, 101,1064644545,-1097679639,1076092846,1015846249,0.020203,0.240000,100.000000,0.000000,-6.101179,7.535257,0.000000,0.000000,2.900000,0.000000,0.000000,0.000000,31.603002,0.587763,-0.882226,0.216884,9.711268,24.250000,79389.468750,0.000000,-0.244774,0.000000,-0.105320,0.000000,0.000000,-0.159854,-0.604063,0.000000,1015846249,-0.016228,233, 202
175, 101,21162,-1060986764,1,21160,7.692110,0.682073,-0.008735,-0.004924,0.028829,3.071974,12.576459,-7.095027,15.159003,-0.121511,-0.077332,563.207782,171.943032,142.223882,53.998516,-0.055575,0.055191,-0.325038,0.942452,30.261290,2054.185791,0.092041,0.000000,-0.763672,2054.949463,0.138158,79386.781250,-0.071518,0,0.000000,0, 202
176, 101,25407,-1060971506,1,25404,7.692694,0.706515,0.001363,-0.015449,0.035490,3.070626,12.095933,-6.614501,14.392655,-0.011569,-0.064059,563.590819,170.912288,142.199129,53.950011,-0.059103,0.063448,-0.325362,0.941605,30.352032,2054.140625,0.092041,0.000000,-0.808838,2054.949463,0.000285,79384.945312,-0.836175,0,0.000000,0, 202
177, 101,29678,-1060968080,1,29664,7.685008,0.689443,-0.010688,0.021530,0.029276,3.068141,12.576459,-6.133976,14.733690,0.825839,-0.429214,563.234994,169.180412,142.308098,53.882188,-0.065028,0.077356,-0.324645,0.940422,30.451845,2054.426514,0.092041,0.000000,-0.522949,2054.949463,0.207112,79385.718750,0.258827,0,0.000000,0, 202
178, 101,34067,-1060977289,1,34035,7.683281,0.690161,-0.000874,0.006398,0.025283,3.069327,12.095933,-6.614501,14.392655,0.471337,0.672523,563.004680,168.698023,142.399295,53.874391,-0.065744,0.081569,-0.323863,0.940286,30.556194,2054.742920,0.092041,0.000000,-0.206543,2054.949463,0.140557,79376.257812,0.656217,0,0.000000,0, 202
179, 101,1106563072,-1056905805,1157655197,1094813937,14.875350,0.002713,0.033789,0.000000,0.000000,0.000000,0.020206,0.240000,100.000000,1.269337,175.794630,168.508048,-26.109730,-6.428944,0.000000,0.000000,0.000000,0.000000,0.000000,0.082908,-0.066852,0.939877,9.827101,-0.066852,0.082908,0.001589,0.939877,-0.324480,1035763712,3.172385,0, 202
180, 101,40569,-1060954544,1,40568,7.660979,0.700106,-0.003895,0.005247,0.015293,3.067920,11.615407,-7.575553,14.225706,-0.419315,-0.769816,562.432310,167.798446,142.397464,53.822557,-0.068894,0.088737,-0.323949,0.939381,30.710445,2054.642334,0.092041,0.000000,-0.307129,2054.949463,0.110653,79378.710938,0.291370,0,0.000000,0, 202
181, 101,4755,-1073286851,1,6337,9.682067,-0.020303,-0.014605,0.024437,0.107977,3.141242,13.056985,-8.536605,17.307953,-0.546577,-0.260724,567.744448,176.006270,167.655504,56.931672,-0.002832,0.034742,-0.107025,0.993599,18.085012,2067.014160,0.664795,0.481505,0.156006,2066.858154,0.075520,79258.835938,-1.434519,0,0.000000,0, 202
182, 101,1093015074,1050198016,-1092775236,1059729408,2066.858154,10.380273,13.056985,0.010000,0.120000,100.000000,0.981628,-0.175267,0.020032,-323.918825,1009.115862,47.488284,0.000000,0.000000,0.000000,0.000000,0.257489,0.045457,0.481505,3.076731,2.792655,0.981628,0.298154,-0.175267,0.020032,9.857359,0.537358,3.005160,1201327184,0.268181,129, 202
183, 101,12681,-1074984500,1,12659,9.280373,0.252964,0.097738,-0.115622,-0.385315,3.126543,11.615407,-6.614501,15.325667,4.659145,60.369201,542.402862,179.744679,174.634331,57.231173,-0.007621,0.001873,-0.046823,0.998872,18.776501,2067.425293,0.712158,0.500532,0.567139,2066.858154,0.187241,79254.289062,0.379335,0,0.000000,0, 202
184, 101,16857,-1070997032,1,16816,9.533579,0.084024,0.010813,-0.006348,0.101834,3.133296,13.056985,-8.536605,17.105293,0.194146,-0.413487,567.031650,178.443979,164.479097,56.764865,-0.005944,0.012894,-0.135074,0.990734,19.217724,2067.230713,0.712158,0.530789,0.372559,2066.858154,0.020607,79255.601562,-0.643811,0,0.000000,0, 202
185, 101,21053,-1070600062,1,21019,9.497221,0.068666,-0.007802,0.013332,0.086309,3.133217,14.018037,-8.536605,17.666328,-0.030189,-0.139910,566.502064,176.853419,163.953814,56.707680,-0.007361,0.026692,-0.140202,0.989814,19.631617,2067.446289,0.881836,0.629445,0.588135,2066.858154,0.010754,79254.710938,0.806072,0,0.000000,0, 202
186, 101,-257228447,81981,1439514415,1889796096,2398076729582241710080.000000,0.000000,-0.000000,-0.000002,-0.000000,-0.028470,0.000000,-0.000000,-0.000000,0.000000,-19373653860.073994,0.000000,-497399318056493184.000000,-10850776014882452.000000,0.000000,-0.000002,2473347983441577708991826362368.000000,-468657982469939658752.000000,-333730700583873019904.000000,-4890807.000000,0.000000,10.891847,118525331121339449039941749702656.000000,-15.203522,158759330951535523102579490816.000000,0.000000,-0.000000,0.000087,1661140992,0.000000,0, 202
187, 101,27450,-1070862303,1,27414,9.539231,0.000243,-0.013992,-0.005997,0.109315,0.000575,13.537511,-8.536605,17.673273,1.305918,0.407758,567.819307,4.235144,-15.724673,56.718499,-0.004770,0.036642,-0.136689,0.989925,20.231916,2067.409424,0.911865,0.745608,0.551270,2066.858154,-0.106484,79255.289062,0.048211,0,0.000000,0, 202
188, 101,31675,-1070396364,1,31633,9.508183,-0.025182,-0.002381,-0.000109,0.125294,0.001418,14.498561,-7.575553,17.799715,0.391737,-0.699842,567.872692,5.266208,-16.378211,56.651928,-0.005842,0.045573,-0.142258,0.988763,20.591150,2067.621094,0.947510,0.774296,0.762939,2066.858154,-0.197929,79247.054688,-0.306180,0,0.000000,0, 202
189, 101,1866963660,-247406457,-1891535360,-364576467,0.000000,489474296006961014422265867010048.000000,0.000000,0.000000,0.000000,0.000000,0.000000,0.000000,-0.000000,-0.000000,831398959965497917584317612032.000000,-765750574742485248.000000,0.000000,528460290590760239104.000000,-0.000000,1524.393066,-200565632.000000,-0.000000,0.000000,822438199296.000000,0.000000,0.000000,-103007123406848.000000,0.000000,822438199296.000000,-1543361.375000,49728216.000000,0.000000,1296148043,-0.002910,23, 202
190, 101,38032,-1070418687,1,38032,9.511742,-0.014094,-0.003536,-0.004661,0.112123,0.002097,13.537511,-9.497657,17.963915,1.457773,-0.210995,567.981155,6.157096,-16.474061,56.623306,-0.006658,0.053301,-0.143006,0.988263,21.123123,2067.190430,0.947510,0.774296,0.332275,2066.858154,0.018514,79253.445312,-0.081886,0,0.000000,0, 202
191, 101,322705819,507339732,1924959508,1404822554,123361824205543029811381839343910912.000000,-0.000000,1613971587072.000000,0.000000,0.000000,-0.000000,-0.000000,0.000000,-0.000000,0.000000,-1607102576602395757772800.000000,-0.000000,0.000000,-0.000000,148751273797046826989087728712286208.000000,-0.000000,0.000000,-0.000000,-5.878469,0.000000,0.000000,2305843009213693952.000000,-59837714889717564686974582784.000000,-0.000000,1518.598145,-0.000000,0.000000,0.000000,339413049,-0.000000,176, 202
192, 101,44481,-1070399861,1,44461,9.490098,-0.018308,-0.004518,-0.001283,0.092649,0.002032,12.576459,-9.017131,16.991425,-0.470592,-0.403373,566.864392,7.324822,-16.450664,56.591075,-0.008135,0.063366,-0.142710,0.987701,21.636850,2067.325195,0.947510,0.774296,0.467041,2066.858154,-0.111460,79254.343750,-0.256627,0,0.000000,0, 202
193, 101,48629,-1070398847,1,48602,9.500018,-0.020813,-0.000898,-0.003222,0.102236,0.002546,14.018037,-7.095027,17.408375,0.737655,0.071952,567.413758,8.365381,-16.461333,56.555302,-0.009185,0.072367,-0.142685,0.987076,21.950512,2067.375977,1.000732,0.885384,0.517822,2066.858154,-0.325062,79256.164062,-0.264556,0,0.000000,0, 202
194, 101,52799,-1070395391,1,52776,9.492319,-0.019588,-0.011081,0.015371,0.095072,0.000404,14.018037,-9.017131,18.276236,0.718046,0.425294,567.003892,8.852282,-16.423456,56.538670,-0.010124,0.076512,-0.142467,0.986797,22.245972,2067.923828,1.158203,0.978032,1.065674,2066.858154,0.274636,79245.710938,0.183809,0,0.000000,0, 202
195, 101,56984,-1070733441,1,56976,9.530674,-0.123513,-0.003628,0.016589,0.110207,0.010733,13.537511,-8.056079,16.877031,-0.436294,-0.039839,567.871599,9.372269,-15.952279,56.554492,-0.006039,0.081648,-0.137861,0.987062,22.550501,2067.895508,1.516846,1.349998,1.037354,2066.858154,-0.013259,79251.656250,-0.592537,0,0.000000,0, 202
196, 101,1201325881,1088456682,1099563008,1157705147,13.537511,-9.497657,17.963915,100.000000,0.000000,0.000000,0.085384,-0.137503,0.020187,-0.316440,-0.335591,5.843661,0.000000,0.000000,69.249430,0.168543,1.349998,0.000000,0.000000,0.986797,-0.277942,0.085384,0.011057,-0.137503,0.986797,0.004166,0.170950,-0.005841,1102418249,1.239990,202, 202
197, 101,63336,-1070709850,1,63334,9.526271,-0.120495,-0.002203,0.002679,0.107481,0.012492,13.056985,-7.575553,16.264791,-0.213161,-0.652705,567.715379,10.568931,-16.203732,56.486365,-0.006822,0.092056,-0.139762,0.985873,22.968626,2068.265381,1.747803,1.582024,1.407227,2066.858154,-0.004112,79248.484375,-0.577242,0,0.000000,0, 202
198, 101,67545,-1070648453,1,67511,9.522620,-0.118130,-0.005810,-0.000430,0.107998,0.012111,16.420666,-8.056079,19.423151,1.001802,-0.849766,567.743793,11.133849,-16.148435,56.463944,-0.007658,0.096891,-0.139209,0.985482,23.241295,2068.243164,1.747803,1.582024,1.385010,2066.858154,0.111092,79247.500000,0.490322,0,0.000000,0, 202
199, 101,71765,-1070682331,1,71724,9.535786,-0.116946,0.007357,0.008900,0.108828,0.012595,13.056985,-6.614501,16.445160,-0.653100,0.129758,568.340423,12.501278,-16.129621,56.396271,-0.009077,0.108677,-0.138778,0.984301,23.509403,2068.385742,1.747803,1.582024,1.527588,2066.858154,0.264425,79238.703125,0.174228,0,0.000000,0, 202
200, 101,76070,-1070671625,1,76055,9.525888,-0.121865,-0.011845,0.015095,0.109647,0.011233,14.979087,-8.056079,18.053892,-0.175913,-0.323974,567.838978,13.198974,-16.199609,56.352660,-0.010669,0.114566,-0.139323,0.983539,23.782040,2067.767334,1.747803,1.582024,0.909180,2066.858154,-0.047841,79250.460938,-0.518907,0,0.000000,0, 202
201, 101,80312,-1070605884,1,80288,9.522662,-0.123767,-0.006753,0.009119,0.110906,0.011670,14.498561,-8.056079,18.202072,-0.705121,0.618167,567.910996,14.059378,-16.207590,56.298271,-0.011050,0.122039,-0.139645,0.982656,24.031940,2067.812744,1.747803,1.582024,0.954590,2066.858154,-0.014456,79251.132812,-0.093904,0,0.000000,0, 202
202, 101,84555,-1070696648,1,84535,9.515773,-0.141461,-0.005448,0.034884,0.098482,0.011631,14.018037,-8.536605,17.494244,-0.136381,-0.541167,567.202678,14.687133,-16.286509,56.257919,-0.012396,0.127345,-0.139749,0.981886,24.277285,2068.068359,1.747803,1.582024,1.210205,2066.858154,0.190858,79244.984375,0.534311,0,0.000000,0, 202
203, 101,1061009815,616435528,-1262775223,2067662099,-784308.312500,466124394900856682176608993280.000000,986639320504723278795328316143304704.000000,0.000000,-0.000000,0.000000,0.000000,42535295865117307932921825928971026432.000000,0.000000,1685086802290289279180614926336.000000,-0.000000,0.000000,132115072647690059776.000000,541165657787172932026368.000000,-406246268547391037636608.000000,0.000000,0.023194,0.000000,-14940935283595899005075772669952.000000,0.000000,0.000000,0.000000,7291465859063009693925376.000000,-190.399704,-201107440.000000,-0.000000,0.000000,0.000000,1648264666,466124394900856682176608993280.000000,230, 202
204, 101,90786,-1070672902,1,90763,9.503708,-0.130479,-0.001321,0.016058,0.088349,0.011752,12.095933,-7.095027,15.471624,1.062018,1.144756,566.619106,15.641002,-16.178758,56.199927,-0.012596,0.135641,-0.139030,0.980937,24.622561,2067.882812,1.747803,1.582024,1.024658,2066.858154,0.229101,79248.906250,0.791416,0,0.000000,0, 202
205, 101,95027,-1070643310,1,95000,9.529979,-0.129978,-0.000142,0.003259,0.115557,0.013315,14.018037,-9.017131,18.084429,-0.608348,-0.067584,568.176881,16.081156,-16.250600,56.169297,-0.013244,0.139399,-0.139024,0.980339,24.854244,2067.358887,1.747803,1.582024,0.500732,2066.858154,-0.009956,79256.054688,-0.380672,0,0.000000,0, 202
206, 101,99208,-1070609702,1,99193,9.509131,-0.112069,0.006146,-0.003433,0.097524,0.012051,13.056985,-9.017131,16.984201,-0.187736,0.454280,567.143720,16.727202,-16.282969,56.121206,-0.014697,0.144830,-0.139242,0.979500,25.067745,2067.927246,1.747803,1.582024,1.069092,2066.858154,0.020862,79247.960938,0.642175,0,0.000000,0, 202
207, 101,103398,-1070533399,1,103391,9.528216,-0.128142,-0.013349,0.014011,0.121098,0.011977,13.537511,-9.017131,17.529776,1.212209,-0.282246,568.495004,18.130423,-16.387313,56.009266,-0.016601,0.156790,-0.139803,0.977546,25.263067,2067.953125,1.747803,1.582024,1.094971,2066.858154,-0.019335,79249.460938,-1.794725,0,0.000000,0, 202
208, 101,16670,767246236,-1878836555,-1610596385,-4274110890108879261138944.000000,-0.000000,-105813622483341618970624.000000,-71.618446,0.000000,0.000000,-0.000000,-0.000000,-0.000000,-0.000000,-13183270609941074480851963807126257664.000000,9362552059881067642880.000000,0.000000,0.000000,0.000000,-22682796032.000000,0.000000,inf,-7221563380203520.000000,-200989472430856484159488.000000,0.000000,-0.000000,0.000003,-0.000000,-0.000000,-0.000000,-61.060421,0.000000,1095714714,-0.000031,1, 202
209, 101,109788,-1070654584,1,109779,9.510885,-0.129787,-0.002848,0.026405,0.096407,0.012010,13.537511,-8.056079,17.446243,0.165788,-0.647734,567.082849,19.803713,-16.444922,55.869530,-0.018738,0.171036,-0.139862,0.975107,25.558306,2068.598389,1.889404,1.637640,1.740234,2066.858154,0.048202,79238.148438,-0.057351,0,0.000000,0, 202
210, 101,-1425626274,20987248,-851455586,-1543503872,524288.000000,147581781112466178048.000000,-6150.086426,111276250210930524160.000000,-0.000000,-249531605251562782688622832062172233728.000000,-0.002924,15608311901981778509309744775168.000000,0.000000,-199302624399895986176.000000,-6898174564090261214286471917207552.000000,-1705966683766684854752610153922560.000000,0.000005,-679.938338,875965819468305133232260243552993280.000000,-12499756.000000,-0.000000,-0.000730,-0.000000,0.000000,0.000000,-0.000000,-0.000000,-0.000000,0.000000,0.000000,-93.955482,0.194926,1375731712,0.000000,189, 202
211, 101,116115,-1070556557,1,116110,9.522712,-0.107821,-0.020307,0.003884,0.114042,0.011100,14.498561,-8.056079,17.827755,-1.409211,0.688672,568.090165,21.391119,-16.374731,55.734105,-0.021032,0.184473,-0.138915,0.972744,25.858067,2068.085693,1.889404,1.637640,1.227539,2066.858154,0.042315,79246.468750,-0.207747,0,0.000000,0, 202
212, 101,120357,-1070638517,1,120352,9.506598,-0.119398,-0.019151,0.014356,0.093263,0.011606,13.537511,-8.536605,17.474850,0.485648,-0.413053,566.900073,21.707410,-16.363277,55.706067,-0.021156,0.187193,-0.138682,0.972254,26.048813,2068.158936,1.889404,1.637640,1.300781,2066.858154,0.133303,79248.023438,0.928687,0,0.000000,0, 202
213, 101,124665,-1070571574,1,124634,9.511467,-0.123683,-0.009015,0.007547,0.102429,0.012498,14.018037,-6.614501,17.014393,-0.529285,0.231618,567.424905,22.023279,-16.415352,55.673480,-0.021197,0.189924,-0.138949,0.971686,26.221384,2068.342773,1.889404,1.637640,1.484619,2066.858154,0.281720,79244.281250,0.978491,0,0.000000,0, 202
214, 101,-2009320746,-633453828,2050625185,-1648580376,-1711847245470498816.000000,-0.000000,-0.000000,0.000000,0.000000,-0.000000,-0.000000,0.000000,664613997892457936451903530140172288.000000,-767103049654129664.000000,0.000000,-0.000000,0.000000,2164573350259753939369984.000000,-0.000027,-1948990824415205389301301718810624.000000,-772.379944,28717146386659053932642304.000000,462157455939518728368457515008.000000,0.000000,0.000000,170141183460469231731687303715884105728.000000,3922742925496196954861135720349696.000000,-3451770795234164736.000000,0.000000,0.000000,0.000000,0.000000,-1422106928,-0.000000,58, 202
215, 101,1933433501,-1715598032,708553347,2000569571,0.000000,114041848594112737901019136.000000,3859115592842016800836939258265600.000000,0.000000,-0.000000,0.000000,0.000000,-0.000000,0.000000,93537083028119.906250,-0.000000,0.000000,-0.000000,2016038826941652.500000,-6198802987343441920.000000,-15665775908365212474709521006067712.000000,-26115968073728.000000,0.000000,0.000000,0.000000,0.000000,-12854706176.000000,111276250210930524160.000000,0.000000,-201136608.000000,-59865600463798909941961457664.000000,0.000000,590295810358705651712.000000,-264321234,114041848594112737901019136.000000,192, 202
216, 101,133047,-1069367503,1,133043,9.408508,-0.153074,-0.000753,0.005392,0.088509,0.017435,14.498561,-9.017131,18.459400,1.171893,-0.312805,566.628341,24.776060,-18.459199,55.252351,-0.026003,0.213111,-0.154805,0.964335,26.589214,2067.732910,1.889404,1.637640,0.874756,2066.858154,-0.012434,79249.781250,0.662222,0,0.000000,0, 202
217, 101,137218,-1068987935,1,137193,9.373026,-0.147220,-0.001439,-0.018692,0.082984,0.018874,13.056985,-7.095027,16.644249,0.546415,0.051115,566.311857,25.763981,-18.955261,55.111092,-0.028545,0.221259,-0.158226,0.961828,26.752684,2067.596924,1.889404,1.637640,0.738770,2066.858154,0.066867,79253.296875,-0.310474,0,0.000000,0, 202
218, 101,141413,-1068897187,1,141393,9.382633,-0.153170,-0.019588,-0.000757,0.099075,0.016751,14.498561,-7.095027,17.239990,0.081881,0.580286,567.232894,26.198145,-18.948261,55.059716,-0.029257,0.224879,-0.158441,0.960973,26.920689,2067.666016,1.889404,1.637640,0.807861,2066.858154,0.043818,79249.640625,0.292798,0,0.000000,0, 202
219, 101,145682,-1068756777,1,145653,9.239176,0.117506,0.004647,0.033768,-0.026626,3.127681,13.537511,-8.536605,17.287510,0.774665,4.321583,560.043547,151.531216,160.946523,54.753201,-0.047345,0.241376,-0.162109,0.955624,27.093227,2067.884766,1.889404,1.637640,1.026611,2066.858154,0.117397,79252.757812,0.220732,0,0.000000,0, 202
220, 101,742290639,0,-1480800904,0,-0.000008,0.000000,0.000000,-0.000000,0.000000,-59939751062312929111106912256.000000,-0.000000,0.000000,0.000000,-11524278743.977270,-0.000000,0.000000,0.000000,-3102696697838187.500000,-0.000000,0.000000,0.000000,6514123210752.000000,-0.000000,0.000000,0.000000,0.000000,-0.000000,37778931862957161709568.000000,-0.000000,60898811296511954497136250566213632.000000,0.000000,633825300114114700748351602688.000000,0,0.000000,0, 202
221, 101,4661,-1067969248,1,6236,9.276960,-0.068707,-0.058975,0.082122,0.060146,3.141534,14.018037,-6.133976,17.256124,-3.185317,-5.525783,565.651952,178.424717,157.284217,56.168399,-0.002736,0.013472,-0.196919,0.980323,27.429203,2067.808838,0.134277,0.000000,-0.024170,2067.833008,0.282640,79248.312500,-0.057681,0,0.000000,0, 202
222, 101,10652,-1067246910,1,10645,9.286004,0.055349,-0.079011,0.010494,0.140052,3.135037,14.018037,-7.095027,16.837885,0.568432,1.431823,569.581277,177.123648,159.016885,56.318987,-0.007792,0.024082,-0.182113,0.982952,27.569942,2067.372314,0.151855,0.000000,-0.460693,2067.833008,-0.085729,79254.640625,-0.559471,0,0.000000,0, 202
223, 101,14934,-1067755837,1,14910,9.188523,-0.074164,0.028474,0.068964,0.004194,0.001564,17.381718,-7.095027,20.042356,-0.377013,-3.004044,561.907587,3.141462,-21.547372,56.264902,-0.004356,0.027074,-0.186839,0.982008,27.746996,2067.419678,0.151855,0.000000,-0.413330,2067.833008,-0.024169,79253.492188,-0.088301,0,0.000000,0, 202
224, 101,1091710315,1201326199,-1066181110,1102118912,2067.553223,27.810551,0.018069,-0.196977,0.980317,0.006136,-0.396759,0.980317,0.006136,8.700677,-16.030509,118478.104085,0.682029,-11.285966,0.572958,0.120000,100.000000,0.000000,0.000000,17.657244,-8.056079,0.002553,2.910000,0.096257,0.016724,0.000000,14.498561,0.019733,-1171080551,9.897277,89, 202
225, 101,21371,-1067473411,1,21341,9.260582,-0.122865,0.006480,-0.017774,0.097331,0.013881,14.018037,-8.056079,17.821688,-0.505506,-5.720209,567.156014,2.166275,-20.190463,56.358080,0.002802,0.019671,-0.179079,0.984341,27.964897,2067.798340,0.171387,0.000000,-0.034668,2067.833008,0.134238,79251.664062,-0.307092,0,0.000000,0, 202
226, 101,25648,-1072825439,1,25613,9.752701,0.056159,0.185286,-0.028511,0.188740,0.001213,14.498561,-6.614501,17.821411,-0.948937,-11.388277,573.072324,4.620550,-15.630869,56.717614,-0.004881,0.040019,-0.135848,0.989909,28.101080,2068.217773,0.446777,0.216758,0.384766,2067.833008,-0.029316,79246.132812,1.211289,0,0.000000,0, 202
227, 101,29826,-1098996192,1,29817,9.916133,0.001812,0.003364,-0.018923,0.116170,3.141431,14.979087,-8.056079,19.679392,-1.215361,2.112613,568.331189,174.715734,179.737835,57.234721,-0.000186,0.046097,-0.002289,0.998934,28.228180,2068.108643,0.573486,0.436876,0.275635,2067.833008,-0.183974,79246.945312,0.349525,0,0.000000,0, 202
228, 101,0,-1082950979,1,4648,9.880750,-0.021751,-0.013807,0.026706,0.125407,3.141098,15.940139,-8.536605,20.388315,0.366318,-0.595499,568.743241,-178.625074,174.514557,57.225760,0.001535,-0.011938,-0.047936,0.998783,27.851408,2067.680664,0.000000,0.000000,-0.401123,2068.081787,2.113428,79248.273438,-1.265194,0,0.000000,0, 202
229, 101,0,-1066512560,1,4453,9.125342,-0.502153,-0.006115,-0.007788,0.067589,0.051716,13.056985,-8.056079,16.494085,0.154949,-0.132503,565.428850,-1.053229,-22.105916,56.209182,0.027136,-0.004061,-0.191877,0.981035,20.477472,2063.977295,0.000000,0.000000,-0.735352,2064.712646,2.056103,79291.250000,0.067030,0,0.000000,0, 202
230, 101,1379719325,0,541031191,0,0.000000,-0.000000,-0.000000,-193083.593750,-828210824609792.000000,0.000000,-7270259597368023654072320.000000,-0.000000,0.000000,0.000000,-7690109350.234856,-0.000000,0.000000,12876376187405058048.000000,-14308598701670984925775867632680960.000000,3.025823,0.000000,0.000000,1804559656539664527917056.000000,0.000000,0.000000,0.000000,3093456.750000,0.000000,-0.000000,-51400212480.000000,-0.000000,0.000000,-1765915221,0.000000,232, 202
231, 101,10581,-1066235639,1,10550,9.112813,-0.513371,-0.011453,0.012413,0.081701,0.050711,14.018037,-8.536605,17.494244,0.848482,-0.200085,566.237927,0.153572,-22.515106,56.168423,0.025161,0.006359,-0.195682,0.980450,21.118578,2064.303467,0.000000,0.000000,-0.409180,2064.712646,0.095525,79285.125000,0.628078,0,0.000000,0, 202
232, 101,14850,-1065204701,1,14848,8.983626,-0.492586,-0.002498,0.002945,0.074160,0.049514,12.576459,-9.017131,16.292015,-0.332580,0.660950,565.807735,2.527784,-24.323974,55.985630,0.019548,0.026770,-0.210027,0.977134,21.559568,2064.188965,0.000000,0.000000,-0.523682,2064.712646,0.282736,79285.625000,0.014679,0,0.000000,0, 202
233, 101,-519422631,1456880794,-31441585,168181625,0.000000,-0.000000,-71.618446,0.000000,5210112.000000,-7918845952.000000,0.000000,0.000000,0.000000,0.000000,0.000000,0.000000,23191355852950810624.000000,-0.000000,-8506407130150797761765760454098944000.000000,-26190556089624297472.000000,0.000000,0.000000,0.000000,0.000000,56371445760.000000,0.000000,0.000000,-1468912762880.000000,0.000000,-0.000000,0.000000,0.000000,168181625,3599804812651010628944364830720.000000,154, 202
234, 101,21270,-1065598385,1,21249,9.097498,-0.217030,-0.028858,-0.027133,0.107666,0.021734,13.537511,-8.536605,17.111616,-0.711944,0.826503,568.203601,4.138356,-21.161765,56.285642,0.004045,0.037484,-0.183107,0.982370,22.141426,2064.304199,0.000000,0.000000,-0.408447,2064.712646,0.045796,79281.007812,-0.277950,0,0.000000,0, 202
235, 101,25625,-1080797490,1,25614,9.830493,-0.622292,-0.018639,0.005147,0.116248,0.062691,13.537511,-9.978183,18.412907,0.010991,-0.185394,568.265783,1.704443,-7.586934,57.137609,0.030285,0.016907,-0.065655,0.997239,22.532320,2064.698730,0.095947,0.000000,-0.013916,2064.712646,0.088743,79276.015625,0.337491,0,0.000000,0, 202
236, 101,29881,-1069010297,1,29877,9.278048,-0.781901,0.005496,-0.056842,0.014903,0.082390,14.018037,-8.536605,17.185249,0.204363,5.165412,562.778901,-5.612472,-20.246358,56.268068,0.049091,-0.040926,-0.177390,0.982063,22.886822,2065.000488,0.287842,0.097950,0.287842,2064.712646,0.088036,79276.148438,0.052086,0,0.000000,0, 202
237, 101,0,-1069111177,1,4643,9.378784,-0.498345,0.002366,0.006716,0.090658,0.049731,14.498561,-9.017131,18.115917,-0.002654,-0.009005,566.750410,1.333766,-18.366177,56.542775,0.022686,0.015454,-0.159244,0.986858,24.104637,2064.375244,0.500732,0.224262,0.253906,2064.121338,2.561522,79286.093750,0.536163,0,0.000000,0, 202
238, 101,-257228703,81978,1036861029,-515375104,0.000000,0.000000,0.000000,-9294355255120467359106658305117782016.000000,-401807182919949615104.000000,0.000038,0.000000,-0.000000,-0.000000,-18020.008748,0.000036,0.000000,-0.375471,113229363384967459726426112.000000,-37837694159216530985774925601570816.000000,0.000000,-0.000000,-0.000000,474472098520792939672633344.000000,-138679318216704.000000,0.000000,-101328904.000000,-591396864.000000,-5116377090775553469721620288372736.000000,0.000000,0.000000,0.000000,0.000000,559218688,0.000000,0, 202
239, 101,10615,-1069138035,1,10573,9.382053,-0.496373,-0.001743,0.004276,0.092543,0.049873,14.018037,-9.017131,18.276236,0.729108,0.790311,566.807346,2.396086,-18.323661,56.539640,0.021282,0.024604,-0.158625,0.986803,24.495358,2064.347656,0.500732,0.239766,0.226318,2064.121338,0.028531,79284.437500,0.076923,0,0.000000,0, 202
240, 101,14796,-1069149838,1,14771,9.395120,-0.479258,-0.008817,0.007707,0.102321,0.047751,13.056985,-8.056079,16.494085,-0.012413,-0.687021,567.418676,3.519982,-18.426455,56.521858,0.018977,0.034188,-0.159071,0.986470,24.767933,2064.710449,0.589111,0.449117,0.589111,2064.121338,0.058476,79277.171875,0.370580,0,0.000000,0, 202
241, 101,18995,-1069179959,1,18976,9.396489,-0.497386,0.005297,0.002422,0.102271,0.050256,14.498561,-8.536605,18.049988,0.062417,-0.210496,567.415944,4.757567,-18.485851,56.494889,0.018113,0.044986,-0.159402,0.986022,25.040491,2064.647705,0.688721,0.469655,0.526367,2064.121338,0.243515,79278.789062,0.422864,0,0.000000,0, 202
242, 101,188566565,-197166000,1363002161,381559962,0.000000,3661496297225945155729620992.000000,-112240601425170996920320.000000,131072.000000,0.000000,-0.000000,-0.000000,0.000000,0.000000,-0.000000,0.000000,0.000000,-0.000000,-5640750.692885,-14705237277923574954096678236019165757440.000000,0.000000,-50222288896.000000,12070.866211,-414198827843584.000000,604462909807314587353088.000000,0.000000,-0.000000,0.000000,-200214368.000000,-0.000000,-2005198558492168459506369180261679104.000000,0.000000,-0.000000,381593275,3661496297225945155729620992.000000,80, 202
243, 101,0,-257228446,17096,952975163,0.000000,3541774862152233910272.000000,0.000000,-0.000520,10404268298114017805769964439732224.000000,-36965013577829187584.000000,0.000000,-1488794444365824.000000,0.000000,0.000000,0.000000,-13211507264769006501888.000000,0.000000,-0.000000,-11546844721057741184022380975962980352.000000,-105813757591330440085504.000000,0.000000,0.000000,0.000000,-1026560576.000000,0.000000,37567.000000,6409976727336147484672.000000,-141387379272841160818429156090735230976.000000,132619578282206767897703606124544.000000,-164703875837684208201891840.000000,3467987885857395703808.000000,-182718800.000000,0,-2236425402507130884769972224.000000,0, 202
244, 101,27517,-1068945114,1,27479,9.364357,-0.496859,0.003222,-0.000283,0.089381,0.050921,14.498561,-8.056079,17.351152,2.244405,-1.053622,566.679376,6.401369,-19.044150,56.413398,0.015834,0.059251,-0.163714,0.984600,25.531054,2065.004883,1.058350,0.753234,0.883545,2064.121338,0.014545,79274.976562,0.327509,0,0.000000,0, 202
245, 101,31751,-1063393531,1,31747,8.540971,-0.295612,-0.016788,0.002779,0.067053,0.030981,13.056985,-7.095027,16.046614,-0.442913,0.775241,565.414917,7.589721,-30.695236,55.140271,-0.002611,0.067907,-0.263074,0.962379,25.771774,2065.025879,1.058350,0.833388,0.904541,2064.121338,0.221832,79277.648438,0.330947,0,0.000000,0, 202
246, 101,35994,-1063013941,1,35990,8.440500,-0.315090,-0.020430,0.017329,0.073657,0.030665,13.056985,-9.017131,16.665752,-0.118618,-2.618601,565.777190,9.123333,-31.547134,54.976094,-0.006909,0.080683,-0.269770,0.959514,26.017021,2064.530518,1.058350,0.912973,0.409180,2064.121338,-0.311067,79282.093750,0.095955,0,0.000000,0, 202
247, 101,40243,-1063029906,1,40204,8.418962,-0.304985,-0.000123,-0.014610,0.044468,0.032187,12.576459,-9.497657,16.292885,0.323981,-3.298021,564.478197,9.889315,-31.638980,54.935119,-0.008068,0.087289,-0.270223,0.958799,26.216843,2065.028564,1.058350,0.912973,0.907227,2064.121338,0.045849,79277.312500,0.769036,0,0.000000,0, 202
248, 101,0,-1065087879,1,6593,8.967945,-0.583401,0.006328,0.003991,0.088001,0.058616,13.537511,-9.497657,17.781729,-0.482491,-0.769651,566.598725,-0.402038,-24.772183,55.936545,0.029374,0.002860,-0.214505,0.976277,26.670950,2064.161621,0.192871,0.000000,-0.217773,2064.379395,0.120376,79285.421875,-0.171196,0,0.000000,0, 202
249, 101,9217,-1065066107,1,9193,8.947892,-0.569432,-0.001400,-0.001280,0.073359,0.057833,13.537511,-8.056079,16.877031,-1.239905,0.290369,565.759213,-0.299243,-24.763150,55.938638,0.028800,0.003650,-0.214405,0.976313,26.761765,2064.455078,0.223145,0.020294,0.075684,2064.379395,0.139058,79279.851562,0.021077,0,0.000000,0, 202
250, 101,13408,-1065012308,1,13382,8.948050,-0.580809,-0.007599,0.001885,0.084938,0.058599,12.095933,-8.536605,15.819798,0.146860,0.338097,566.422670,0.324124,-25.001875,55.917529,0.028070,0.009128,-0.216010,0.975887,26.947931,2064.392578,0.472412,0.207641,0.013184,2064.379395,-0.170809,79286.445312,-0.710776,0,0.000000,0, 202
251, 101,17683,-1064944725,1,17654,8.940521,-0.571773,-0.004036,-0.000783,0.091220,0.057939,12.576459,-8.536605,16.031055,-0.012269,-0.112778,566.782539,1.197687,-25.244266,55.892278,0.025941,0.016524,-0.217820,0.975436,27.120468,2064.916748,0.537354,0.305212,0.537354,2064.379395,0.150370,79274.609375,0.790687,0,0.000000,0, 202
252, 101,-1018542847,-161005232,149833626,-378978141,2047594986265978034875619344384.000000,-85463745801354215424.000000,-0.000000,0.000000,0.000000,0.000000,-152550275809280.000000,-71.617455,0.000000,-0.006154,14189538883235804.000000,-0.000009,162400990.916825,3728088784334385492075124621312.000000,0.000009,-7940041201231862862012481536.000000,-423386864894090804121175064576.000000,0.000000,18279380811776.000000,520700360130560000.000000,-0.000000,-0.000000,-7243345797764481418264576.000000,-0.000000,520700360130560000.000000,-0.000000,-0.000000,0.000000,15797,0.000000,16, 202
253, 101,1016872460,1039516303,1020432342,1008981770,100.000000,0.000000,0.000000,8.932545,-0.576263,-0.004612,2.910000,0.000000,0.000000,0.000000,0.000000,7.450707,0.554702,-0.249867,566.382454,21.625000,79283.421875,2064.405762,27.374722,0.000000,0.000000,0.000000,0.040798,0.000000,0.000000,0.057691,0.392976,0.000000,1064938923,-0.218526,214, 202
254, 101,1064935535,0,-1101036820,1120403456,0.000000,0.000000,0.000000,-0.005065,0.004314,-0.002339,0.000000,-4.189832,8.933440,-0.509823,-1.975574,22.515872,566.336555,1239.021232,4542485.943378,2064.264404,27.451904,-0.222272,0.562500,0.000000,0.000000,0.000000,0.975206,0.000000,2.910000,-0.441596,0.000000,0.000000,1020712071,0.000000,170, 202
255, 101,28231,-1064934577,1,28228,8.926762,-0.589269,0.001454,0.023304,0.081842,0.057345,14.018037,-8.536605,17.333775,-0.440283,0.267568,566.246779,2.776854,-25.327322,55.871333,0.022653,0.029914,-0.218395,0.975139,27.538164,2064.239258,0.562500,0.392976,-0.140137,2064.379395,0.054155,79283.867188,-0.000568,0,0.000000,0, 202
256, 101,32549,-1064940670,1,32518,8.926312,-0.564823,0.003756,-0.000229,0.078796,0.057455,12.576459,-9.017131,16.148209,-0.796820,-0.211392,566.070997,4.039434,-25.484549,55.839733,0.020229,0.040693,-0.219351,0.974587,27.701597,2064.324707,0.562500,0.392976,-0.054688,2064.379395,-0.342492,79283.281250,0.169431,0,0.000000,0, 202
257, 101,36798,-1064910095,1,36758,8.921655,-0.565589,-0.009205,-0.018513,0.080826,0.059309,12.576459,-9.978183,17.158117,0.203581,-0.279841,566.187930,4.429924,-25.521167,55.828863,0.020363,0.044222,-0.219498,0.974397,27.846869,2064.819824,0.562500,0.392976,0.440430,2064.379395,0.286964,79279.421875,0.303904,0,0.000000,0, 202
258, 101,41043,-1064908920,1,41008,8.926033,-0.566505,-0.013930,-0.004925,0.085087,0.058118,13.537511,-9.017131,17.194582,-0.370738,-0.555162,566.431140,5.658474,-25.589112,55.799681,0.017373,0.054540,-0.219694,0.973888,28.014832,2065.026367,0.913086,0.677725,0.646973,2064.379395,-0.090688,79274.617188,-0.726610,0,0.000000,0, 202
259, 101,490588790,1807638715,414916468,2050840781,254512660814075578169687917769248473088.000000,0.000000,0.000000,0.000000,633825300114114700748351602688.000000,0.000000,0.000000,-0.000000,0.000000,0.000000,0.000000,0.000000,-0.000000,135288672800998533627904.000000,0.000000,0.000000,100178960.000000,0.000000,-15604936077483932232870202049376026624.000000,0.000000,0.000000,-0.000000,0.000000,0.000000,-200566496.000000,0.000000,0.000000,-0.000002,1212007358,48271.574219,56, 202
260, 101,47286,-1064919212,1,47248,8.916109,-0.570336,0.008240,-0.018600,0.074235,0.060156,13.056985,-7.095027,16.234051,0.842686,0.094188,565.810521,6.461689,-25.694089,55.769079,0.016748,0.061599,-0.220243,0.973354,28.200945,2065.137695,1.149414,0.775118,0.758301,2064.379395,0.127183,79276.046875,-0.033147,0,0.000000,0, 202
261, 101,51538,-1064894406,1,51500,8.916338,-0.568168,-0.005688,-0.010775,0.079376,0.058962,13.537511,-9.497657,17.451374,0.182959,-0.221560,566.104274,6.821316,-25.679449,55.762279,0.015474,0.064518,-0.220025,0.973235,28.346199,2065.186768,1.149414,0.975730,0.807373,2064.379395,-0.061981,79274.117188,-0.691023,0,0.000000,0, 202
262, 101,55723,-1064902871,1,55700,8.915533,-0.574211,0.007191,-0.017293,0.077265,0.060620,13.056985,-9.017131,17.161400,-0.401895,-0.368694,565.983953,8.123859,-25.826117,55.713693,0.012848,0.075598,-0.220415,0.972295,28.468754,2065.323486,1.338867,1.128200,0.944092,2064.379395,0.232287,79277.101562,-0.384746,0,0.000000,0, 202
263, 101,59924,-1064879418,1,59907,8.932746,-0.567357,-0.011248,-0.008448,0.097191,0.058896,13.537511,-9.017131,17.194582,1.000539,0.268528,567.124814,9.268447,-25.830780,55.670024,0.010554,0.085276,-0.220366,0.971625,28.591305,2065.705566,1.702881,1.458804,1.326172,2064.379395,-0.103424,79271.070312,0.499066,0,0.000000,0, 202
264, 101,64135,-1064879300,1,64112,8.929010,-0.575488,-0.008076,0.014778,0.094296,0.057421,12.576459,-7.575553,16.070982,1.547548,0.101849,566.959960,10.546479,-25.862257,55.608573,0.008019,0.096078,-0.220754,0.970705,28.704775,2065.426758,1.702881,1.458804,1.047363,2064.379395,-0.057109,79273.406250,-0.136379,0,0.000000,0, 202
265, 101,68429,-1064891724,1,68394,8.916919,-0.596496,0.001853,0.017931,0.082104,0.060041,12.576459,-9.497657,16.716866,-0.656508,-0.730264,566.261259,11.837983,-26.094453,55.534096,0.005815,0.107155,-0.221434,0.969253,28.827318,2065.242188,1.702881,1.458804,0.862793,2064.379395,-0.145875,79272.351562,-0.055702,0,0.000000,0, 202
266, 101,72660,-1064885850,1,72657,8.908315,-0.566894,-0.010221,0.001958,0.073811,0.058846,13.537511,-7.575553,16.484356,0.278189,-0.784349,565.785222,12.555442,-26.148093,55.493607,0.003760,0.113082,-0.221623,0.968546,28.936245,2065.488770,1.702881,1.458804,1.109375,2064.379395,0.296127,79273.859375,0.516292,0,0.000000,0, 202
267, 101,-725871882,1916921836,1975457364,-146472682,0.000000,0.000000,0.000000,0.000000,0.000000,0.000000,0.000000,0.000000,-438994636496170909696.000000,-0.000000,834213014183655567995699200.000000,0.000000,-0.000000,0.000000,0.000000,0.000000,0.000000,0.000000,-37778931862957161709568.000000,49443616.000000,488755008897264813851549716916994048.000000,-13018240909312.000000,-0.000000,0.000000,-440209517680026189824.000000,151115727451828646838272.000000,0.000000,0.000045,-784643322,-0.000000,44, 202
268, 101,79085,-1064913656,1,79074,8.906444,-0.575724,-0.013531,-0.009932,0.066941,0.061777,14.498561,-8.536605,17.881596,0.708885,-0.226604,565.393279,14.018271,-26.275661,55.401809,0.002128,0.125744,-0.221818,0.966944,29.108704,2065.647949,1.702881,1.458804,1.268555,2064.379395,-0.083693,79271.710938,-0.267897,0,0.000000,0, 202
269, 101,83316,-1064805711,1,83311,8.908500,-0.585266,-0.015916,0.008461,0.091447,0.060139,14.018037,-7.575553,16.881207,0.575062,-0.444426,566.795817,14.572707,-26.405860,55.355729,0.000079,0.130232,-0.222742,0.966140,29.213085,2066.092773,1.713379,1.600789,1.713379,2064.379395,0.056976,79264.359375,0.059752,0,0.000000,0, 202
270, 101,87467,-1064593669,1,87447,8.851372,-0.598312,-0.007655,0.010815,0.084777,0.059779,14.018037,-9.017131,17.428936,-0.302133,0.898302,566.427205,15.188722,-26.766938,55.238120,-0.000862,0.135485,-0.228428,0.964793,29.317463,2065.608154,1.713379,1.600789,1.228760,2064.379395,-0.099035,79275.039062,-0.626084,0,0.000000,0, 202
271, 101,91639,-1063223095,1,91601,8.489467,-0.615265,0.002846,-0.002527,0.078614,0.064368,13.056985,-9.017131,16.283035,-0.207017,0.773492,566.060998,15.133968,-31.444391,54.709351,-0.004960,0.135336,-0.264396,0.954858,29.403687,2065.737305,1.713379,1.600789,1.357910,2064.379395,-0.065820,79269.429688,-0.020897,0,0.000000,0, 202
272, 101,95831,-1062553284,1,95802,8.250569,-0.639908,-0.006162,0.016798,0.045009,0.066726,13.056985,-9.017131,16.283035,-0.158344,-0.701453,564.137398,16.105716,-34.117314,54.283284,-0.009497,0.143538,-0.285829,0.947422,29.498983,2065.356689,1.713379,1.600789,0.977295,2064.379395,-0.081093,79273.460938,-0.218825,0,0.000000,0, 202
273, 101,0,-1062723971,1,6594,8.293061,-0.691442,-0.005408,0.020606,0.040443,0.068252,12.576459,-9.497657,16.292885,-0.052009,0.120023,563.874736,-0.969702,-32.220734,55.007106,0.035125,0.001342,-0.277594,0.960055,29.657808,2065.440430,0.232422,0.002461,-0.043945,2065.484375,0.083379,79271.804688,-0.729752,0,0.000000,0, 202
274, 101,9253,-1062755734,1,9215,8.317224,-0.682988,-0.000058,0.010563,0.052184,0.068304,13.056985,-8.056079,16.165985,-0.354101,0.438846,564.546226,-0.467516,-32.157477,55.019711,0.033939,0.005539,-0.276928,0.960275,29.689573,2064.947754,0.232422,0.002461,-0.536621,2065.484375,-0.385204,79279.492188,-0.432675,0,0.000000,0, 202
275, 101,13479,-1062711492,1,13462,8.325683,-0.663265,-0.006333,-0.003256,0.069208,0.067576,12.576459,-9.017131,16.448610,0.131101,0.177090,565.521413,0.361850,-32.264045,55.009712,0.031574,0.012418,-0.277589,0.960101,29.766714,2064.948975,0.232422,0.002461,-0.535400,2065.484375,-0.114974,79277.250000,0.263455,0,0.000000,0, 202
276, 101,0,-1062739098,1,4457,8.346235,-0.566915,-0.011585,0.004615,0.073522,0.056975,13.537511,-9.017131,16.670832,-0.238908,-0.354253,565.770524,-0.018672,-32.304794,55.011634,0.027405,0.007768,-0.278085,0.960134,29.712261,2065.215332,0.303223,0.000000,0.193604,2065.021729,1.986230,79269.515625,0.694515,0,0.000000,0, 202
277, 101,0,-1070493754,1,4593,9.491404,-0.409071,-0.011558,0.008215,0.095940,0.040372,12.576459,-8.536605,16.948383,0.998642,0.522242,567.058533,2.286444,-16.135999,56.692708,0.017596,0.022601,-0.141845,0.989760,29.848391,2065.290039,0.173096,0.000000,0.068604,2065.221436,2.103037,79274.804688,1.221594,0,0.000000,0, 202
278, 101,8517,-1064272147,1,8476,8.775267,-0.313768,-0.013606,0.010187,0.072862,0.030943,12.576459,-8.056079,15.631903,0.537027,-0.675716,565.731455,4.241398,-27.444738,55.623363,0.006242,0.039612,-0.236470,0.970811,29.970903,2065.333740,0.397217,0.240515,0.112305,2065.221436,-0.147845,79272.640625,-0.866064,0,0.000000,0, 202
279, 101,12685,-1063991898,1,12668,8.723541,-0.315775,-0.001531,-0.003496,0.089093,0.032266,12.576459,-7.575553,15.881621,-0.790859,0.750643,566.661508,5.663409,-28.132823,55.513759,0.003624,0.051831,-0.241945,0.968898,30.102488,2065.257080,0.448486,0.274920,0.035645,2065.221436,0.000290,79278.093750,0.230878,0,0.000000,0, 202
280, 101,16880,-1063822944,1,16836,8.672450,-0.421643,-0.003073,-0.022350,0.086216,0.044725,13.537511,-9.017131,17.044842,0.229643,0.476961,566.501846,5.709016,-28.617384,55.451383,0.009335,0.053763,-0.245699,0.967809,30.206844,2065.304199,0.448486,0.274920,0.082764,2065.221436,-0.025367,79275.671875,-0.575268,0,0.000000,0, 202
281, 101,21192,-1062987346,1,21166,8.398017,-0.499240,-0.015994,0.018127,0.051521,0.048835,14.018037,-8.536605,17.048977,0.717499,0.962842,564.512294,7.594315,-31.594700,54.994829,0.006324,0.070551,-0.271456,0.960272,30.324810,2065.242432,0.448486,0.274920,0.020996,2065.221436,-0.192241,79274.664062,-0.965668,0,0.000000,0, 202
282, 101,25407,-1064083931,1,25396,8.645026,-0.460987,0.003330,0.027709,0.004703,0.046028,13.537511,-7.575553,16.328106,-0.075716,-7.293149,561.841252,9.512035,-28.901358,55.304701,0.001522,0.085991,-0.246774,0.965249,30.433699,2065.537354,0.531494,0.345088,0.315918,2065.221436,0.066396,79271.023438,-0.442045,0,0.000000,0, 202
283, 101,29647,-1062041309,1,29641,8.127984,-0.493406,-0.004795,0.004465,0.069941,0.050250,12.576459,-9.978183,16.278131,-0.210629,-0.210124,565.563323,9.695181,-34.946407,54.475854,-0.001488,0.088097,-0.297066,0.950783,30.533510,2065.495605,0.531494,0.377399,0.274170,2065.221436,0.161469,79269.765625,-0.178582,0,0.000000,0, 202
284, 101,33896,-1063847112,1,33879,8.677374,-0.533496,0.001861,0.063638,0.085566,0.054208,13.537511,-9.017131,17.194582,-0.506287,-2.461478,566.743416,10.462110,-30.917842,55.010460,0.001719,0.095035,-0.262958,0.960114,30.633320,2065.461914,0.603516,0.398445,0.240479,2065.221436,-0.124255,79275.531250,0.668179,0,0.000000,0, 202
285, 101,-834830772,155152623,79548516,1790870865,-0.000000,0.000000,439602200233400860672.000000,-0.000000,0.000000,649037107316853453566312041152512.000000,10633823966279326983230456482242756608.000000,0.000000,0.000000,-0.000029,0.000000,0.000000,-8658447191240769575845888.000000,1412560.524215,691.261371,-105054363189248.000000,-0.000000,0.000003,-49322348.000000,-2596148429267413814265248164610048.000000,0.000000,-480731615278891609907725936361472.000000,0.000000,-200065024.000000,-0.000000,0.000000,0.000000,878789224876153503744.000000,968829698,-834757965381632.000000,213, 202
286, 101,0,-1063376764,1,3541,8.550846,-0.603481,-0.000779,0.005708,0.093888,0.060457,12.095933,-9.978183,16.487253,-0.016438,-0.211350,566.935645,0.352265,-30.104393,55.305783,0.028389,0.010816,-0.259489,0.965268,30.842007,2065.459229,0.150879,0.000000,-0.107666,2065.566895,26.391613,79275.601562,0.218787,0,0.000000,0, 202
287, 101,420658750,563952789,15898,121093283,0.000479,-0.000000,22023410573974838444032.000000,8377187027930837380235264.000000,0.000000,-0.000000,0.000000,0.000000,0.000000,0.000000,-2098567157961035.500000,-15884632782473302016.000000,-24257804253569943091510375350272.000000,0.000000,0.000000,0.000000,0.000000,0.000000,-0.000000,354917248.000000,0.000000,0.831032,0.000000,83325550592.000000,0.000000,0.000000,0.000000,-0.000000,-98877308,15823081046016.000000,103, 202
288, 101,9599,-1063094508,1,9595,8.456146,-0.600929,-0.012614,-0.005757,0.080478,0.061418,13.056985,-10.458709,17.232374,0.081773,-0.026897,566.167604,1.372419,-30.985040,55.189592,0.026389,0.019737,-0.266613,0.963240,30.928200,2065.587402,0.458252,0.160528,0.020508,2065.566895,-0.066044,79273.890625,-0.652712,0,0.000000,0, 202
289, 101,548519704,-440711935,-223985405,482625434,-346375804744129410362245120.000000,-0.000000,-0.000000,423586594816.000000,2734503503046165659648.000000,-247651471720448.000000,423586594816.000000,2734503503046165659648.000000,-247651471720448.000000,0.000000,-0.000000,-1009783178354014750085480448.000000,8149663079680033423360.000000,-4103.434711,0.000000,0.000000,0.000000,0.000000,0.000000,11664433872896.000000,8601986.000000,-0.000000,0.000003,0.000000,117.619286,0.000000,0.000000,0.144277,879148123,-1479676002304.000000,2, 202
290, 101,16022,-1062645815,1,16015,8.317961,-0.634408,0.002680,-0.014174,0.077522,0.065830,12.576459,-9.497657,16.421371,-0.298524,-0.321662,565.998543,2.786888,-32.703451,54.945132,0.024726,0.032584,-0.280529,0.958973,31.077902,2065.966797,0.479004,0.329814,0.399902,2065.566895,0.038415,79266.414062,1.048444,0,0.000000,0, 202
291, 101,20184,-1062634117,1,20161,8.289965,-0.659575,-0.004652,0.010083,0.058615,0.066013,13.537511,-9.017131,16.572172,0.590373,0.367356,564.914838,3.779711,-32.779714,54.918501,0.022799,0.041048,-0.281170,0.958627,31.177698,2065.826416,0.735596,0.502618,0.259521,2065.566895,-0.062963,79271.140625,-0.099100,0,0.000000,0, 202
292, 101,17826032,503316480,-1425976360,20986265,0.000000,-108459048189296640.000000,-0.000000,-0.000000,-54289710433439842304.000000,-1956824853131134197016579798856630272.000000,0.000000,0.000000,-256921196954509214032531653859462873088.000000,0.000000,0.000000,-0.000000,46664544800893.882812,0.000001,-0.000000,95.536880,-0.000000,11.790898,-0.000000,199.604767,228785743374182713917440.000000,-55909977156409622528.000000,799160512.000000,0.000000,0.000000,2658455991569831745807614120560689152.000000,0.000000,-221807177910714368.000000,95,-0.000000,0, 202
293, 101,26462,-1062606819,1,26453,8.318525,-0.651958,-0.003364,0.002087,0.089126,0.066036,12.095933,-9.017131,15.643067,0.389054,-0.397673,566.662492,5.455441,-32.897681,54.884142,0.018157,0.054954,-0.281177,0.957909,31.304710,2065.706787,0.735596,0.502618,0.139893,2065.566895,0.176700,79271.656250,-0.692887,0,0.000000,0, 202
294, 101,17826271,33554432,-1425951789,20986265,0.000008,105917072801792.000000,0.000000,0.000185,-23917.248047,0.000000,0.000000,-0.000000,-59837714889717564686974582784.000000,-1435528681.557983,-352714308.372802,0.000000,0.000000,53771530275013208661387093475328.000000,-0.000000,0.000000,0.000000,3475741958515820855296.000000,-57284366860859033484525568.000000,-0.779706,15354170307256571549573837750272.000000,0.000000,-13756383600268279808.000000,0.000000,0.000000,-0.000000,0.000000,0.000000,120,-0.000000,0, 202
295, 101,32840,-1062676448,1,32827,8.321301,-0.656153,0.007151,0.001209,0.073958,0.066937,12.576459,-8.056079,15.631903,-0.405952,-0.006739,565.793418,7.241599,-32.875773,54.847785,0.014170,0.069988,-0.280226,0.957274,31.427183,2065.982178,0.738525,0.556686,0.415283,2065.566895,-0.313771,79266.320312,-0.076284,0,0.000000,0, 202
296, 101,37048,-1062642551,1,37007,8.308582,-0.654239,-0.002390,-0.001059,0.059573,0.067591,13.537511,-9.017131,16.907440,0.221135,-0.006015,565.668125,7.780899,-32.969921,54.819962,0.013084,0.074589,-0.280750,0.956789,31.490686,2065.949463,0.738525,0.556686,0.382568,2065.566895,-0.067165,79265.554688,0.142679,0,0.000000,0, 202
297, 101,41277,-1062651694,1,41275,8.315463,-0.647639,-0.002780,0.000500,0.074790,0.066511,14.018037,-8.536605,17.185249,0.148557,0.236824,565.841230,9.100796,-33.092823,54.762773,0.009190,0.085448,-0.281209,0.955791,31.576866,2065.667480,0.738525,0.556686,0.100586,2065.566895,-0.049254,79272.859375,-0.282780,0,0.000000,0, 202
298, 101,45519,-1062584978,1,45478,8.279912,-0.666809,0.003518,0.004356,0.084304,0.066905,11.134881,-8.056079,14.657414,-0.948105,-4.562490,565.181434,7.635133,-33.199685,54.791849,0.012971,0.073303,-0.282758,0.956298,31.631296,2065.912598,0.738525,0.556686,0.345703,2065.566895,0.082779,79269.468750,0.536557,0,0.000000,0, 202
299, 101,49852,-1062655158,1,49832,8.326373,-0.654090,-0.011376,0.003733,0.083520,0.066376,14.018037,-9.017131,17.428936,0.915101,0.366870,566.341364,7.551261,-32.894871,54.837215,0.013121,0.072495,-0.280270,0.957090,31.699331,2066.145508,0.738525,0.561556,0.578613,2065.566895,0.105985,79267.492188,0.366393,0,0.000000,0, 202
300, 101,54103,-1062643664,1,54083,8.315800,-0.663074,0.002792,0.005630,0.078148,0.067495,12.576459,-9.017131,16.148209,-0.976296,-0.753630,566.033677,8.876173,-33.103769,54.768323,0.010214,0.083717,-0.281365,0.955888,31.758295,2066.145020,0.909424,0.700704,0.578125,2065.566895,-0.093196,79265.914062,-0.260192,0,0.000000,0, 202
301, 101,58258,-1062724591,1,58226,8.337272,-0.644893,0.008609,-0.014684,0.074388,0.067290,13.056985,-9.978183,16.945038,1.292106,0.472754,565.821450,10.021870,-32.693616,54.785893,0.007586,0.093199,-0.277397,0.956194,31.830864,2066.209961,1.052246,0.844995,0.643066,2065.566895,0.008679,79268.765625,0.066037,0,0.000000,0, 202
302, 101,62431,-1062832538,1,62414,8.357634,-0.639977,-0.004533,0.010156,0.064072,0.065003,12.095933,-8.056079,15.565757,0.208121,0.240575,565.227824,11.770827,-32.595886,54.728182,0.002265,0.107438,-0.275807,0.955187,31.876219,2066.083740,1.052246,0.844995,0.516846,2065.566895,-0.089175,79266.773438,-0.481517,0,0.000000,0, 202
303, 101,66689,-1062832231,1,66672,8.372796,-0.641851,0.008199,0.011310,0.077110,0.065874,13.056985,-8.536605,16.138271,-1.183051,0.446612,565.975375,12.508455,-32.790119,54.667280,0.000672,0.113694,-0.276985,0.954124,31.939716,2066.074951,1.052246,0.844995,0.508057,2065.566895,-0.157264,79268.000000,0.704795,0,0.000000,0, 202
304, 101,70876,-1062792638,1,70835,8.367600,-0.640835,-0.016817,0.007852,0.078378,0.066104,13.056985,-7.095027,15.302549,0.876274,-0.076218,566.289946,13.978377,-32.895253,54.578283,-0.002976,0.125926,-0.277025,0.952571,31.989605,2065.703857,1.052246,0.844995,0.136963,2065.566895,-0.325131,79267.820312,-0.360815,0,0.000000,0, 202
305, 101,75082,-1062807988,1,75048,8.368118,-0.641539,-0.003836,0.006452,0.079240,0.066909,13.537511,-10.458709,17.599264,-0.398359,-0.555997,566.096296,15.442493,-32.986084,54.482834,-0.006341,0.138163,-0.276859,0.950905,32.044029,2065.692627,1.052246,0.844995,0.125732,2065.566895,0.037563,79272.468750,0.073436,0,0.000000,0, 202
306, 101,79308,-1062818354,1,79275,8.354880,-0.636281,-0.002849,-0.010257,0.065078,0.068301,12.095933,-9.978183,15.998117,0.605599,-0.149807,565.284979,16.390028,-33.027434,54.419054,-0.008092,0.146190,-0.276512,0.949792,32.112057,2065.803711,1.052246,0.844995,0.236816,2065.566895,0.195542,79268.453125,-0.054171,0,0.000000,0, 202
307, 101,83796,-1062817463,1,83770,8.359480,-0.634409,-0.004694,0.004555,0.069081,0.066889,12.576459,-9.017131,16.017530,0.651142,0.163970,565.514091,17.510672,-33.074221,54.336286,-0.011401,0.155303,-0.276385,0.948384,32.157410,2065.908691,1.052246,0.844995,0.341797,2065.566895,0.166264,79267.453125,-0.246917,0,0.000000,0, 202
308, 101,88039,-1062811247,1,88004,8.384069,-0.636893,-0.019338,0.012625,0.091628,0.067020,14.498561,-9.017131,17.817709,-0.073049,0.046420,566.806417,18.758573,-33.168177,54.237142,-0.014808,0.165537,-0.276215,0.946617,32.211834,2065.510010,1.052246,0.844995,-0.056885,2065.566895,-0.150191,79272.093750,0.017950,0,0.000000,0, 202
309, 101,1976713074,-687161715,435797780,-1335280083,-71.617455,0.000000,0.000000,-20608.001953,-82347404983011867413728373239709696.000000,-2661016297601524301824.000000,0.000000,-0.000000,0.000000,0.000000,0.000000,0.000000,-415731.937397,43860655082086.890625,484296005358118221129973760.000000,0.000000,0.000000,-30409343631360.000000,0.000000,-451343886057472.000000,82804359168.000000,0.000000,0.000002,7026881326510032077979648.000000,0.000000,0.000000,0.000000,-423427439466911620112851140608.000000,-1335280083,-1775850881024.000000,141, 202
310, 101,94416,-1062812856,1,94409,8.349177,-0.637850,0.000116,-0.006948,0.061738,0.069742,12.576459,-7.575553,15.881621,-0.045867,-0.532814,565.093461,20.078507,-33.349717,54.113079,-0.017103,0.176742,-0.276553,0.944451,32.302536,2065.158203,1.052246,0.844995,-0.408691,2065.566895,-0.010836,79277.140625,0.060772,0,0.000000,0, 202
311, 101,98643,-1062818940,1,98638,8.352428,-0.648707,-0.009093,0.016522,0.063652,0.069041,13.537511,-8.536605,16.947525,0.518118,-0.239285,565.203891,20.839059,-33.431778,54.040443,-0.019477,0.182872,-0.276736,0.943184,32.356956,2065.136475,1.052246,0.844995,-0.430420,2065.566895,0.061048,79281.781250,0.543275,0,0.000000,0, 202
312, 101,1053253433,-1126237337,1032088082,1064314744,0.194054,-0.285599,0.010000,2.900000,0.000000,0.000000,0.000000,0.000000,0.000000,6.875493,5729.577951,0.000000,-308.304084,473.329924,-35.420009,-0.025026,0.002378,0.020473,9.878428,-0.188910,0.000000,0.844995,-0.058159,0.000000,0.000000,17.048977,0.000000,0.190979,1064314744,-0.285599,103, 202
313, 101,104893,-1061965212,1,104858,8.084052,-0.704543,0.105574,-0.102454,0.064615,0.079318,13.537511,-9.497657,16.935568,-0.039990,10.588201,565.409234,23.462574,-35.272067,53.560247,-0.024556,0.205375,-0.288725,0.934803,32.411373,2065.397949,1.052246,0.844995,-0.168945,2065.566895,0.064027,79271.296875,-0.512236,0,0.000000,0, 202
314, 101,109080,-1062122100,1,109046,8.132647,-0.775107,0.003589,-0.001706,0.070176,0.087032,13.056985,-8.056079,16.323788,0.828162,-0.399002,565.577147,24.361017,-36.387375,53.329031,-0.025608,0.213494,-0.295697,0.930606,32.452190,2065.154297,1.052246,0.844995,-0.412598,2065.566895,-0.432623,79274.523438,-1.475832,0,0.000000,0, 202
315, 101,-1085644414,1157698398,1090638260,1201329810,32.483932,-0.576147,1.052246,0.928539,-0.027472,0.219875,0.928539,-0.027472,0.219875,-20.422812,118348.265359,264.360559,-17.065648,0.572958,6.875493,100.000000,0.000000,0.000000,0.000000,-0.009077,15.884886,0.087964,0.000000,0.088439,0.438620,2.900000,-8.536605,-0.004492,1004420487,26.375000,98, 202
316, 101,115477,-1061859874,1,115459,8.044866,-0.787139,0.005434,-0.038046,0.070048,0.091012,11.615407,-8.056079,14.600063,-0.292794,0.520393,565.577093,26.060448,-37.172809,53.041647,-0.029782,0.227610,-0.300484,0.925751,32.529282,2065.227783,1.052246,0.844995,-0.339111,2065.566895,0.142218,79276.132812,-0.369900,0,0.000000,0, 202
317, 101,119688,-1061444415,1,119667,7.858180,-0.759979,-0.008210,0.003968,0.033265,0.084020,13.056985,-8.536605,16.021931,0.482370,0.760161,563.463778,25.401620,-38.675779,52.869083,-0.034081,0.220840,-0.314038,0.922740,32.588234,2065.538330,1.052246,0.844995,-0.028564,2065.566895,-0.034143,79272.492188,0.217738,0,0.000000,0, 202
318, 101,1045752715,0,-1124416927,0,0.000000,-0.171786,0.030624,0.009033,9.862883,26.500000,8.020358,-0.717741,-0.008550,48.414655,0.000000,0.000000,4542001.614991,118337.620318,1870.545987,-0.329859,1.052246,-0.185791,2065.566895,0.000000,0.000000,2.900000,0.209888,0.000000,0.000000,-0.029547,0.000000,0.000000,0,0.000000,0, 202
319, 101,126039,-1061785505,1,126037,8.009487,-0.724405,-0.007594,0.015948,0.057001,0.078929,13.056985,-9.497657,16.666603,0.584298,0.059101,564.822821,24.685373,-37.327366,53.141471,-0.031836,0.214694,-0.304382,0.927494,32.660789,2065.457031,1.052246,0.844995,-0.109863,2065.566895,0.189117,79271.265625,0.170833,0,0.000000,0, 202
320, 101,130290,-1061745751,1,130270,7.988962,-0.740670,-0.009860,0.011039,0.052532,0.081414,12.576459,-9.497657,16.075970,-0.448675,0.015903,564.566935,25.430370,-37.551140,53.037887,-0.033199,0.220997,-0.305228,0.925686,32.728809,2065.126709,1.052246,0.844995,-0.440186,2065.566895,-0.114838,79277.304688,-0.029247,0,0.000000,0, 202
321, 101,1063965603,-1096254077,-1087098673,1046520399,0.010000,0.120000,100.000000,0.000000,-6.175420,7.635508,0.000000,0.000000,2.900000,0.000000,0.000000,0.000000,-35.212613,0.483472,0.417879,-0.009470,9.839437,26.625000,79278.492188,0.844995,-0.007719,0.000000,0.038412,0.000000,0.000000,0.016448,-0.461836,0.000000,1046520399,-0.046449,131, 202
322, 101,136938,-1060862451,1,136936,7.684363,-0.577979,-0.001669,0.000548,0.052847,0.067609,11.615407,-9.497657,15.563048,0.835988,0.670284,564.588355,26.639929,-40.575914,52.420360,-0.048991,0.227376,-0.329914,0.914908,32.842175,2065.055664,1.052246,0.844995,-0.511230,2065.566895,-0.238629,79279.289062,-0.426762,0,0.000000,0, 202
323, 101,141097,-1064571565,1,141068,9.031697,-0.362485,0.013038,-0.105148,0.238509,0.043807,13.056985,-9.017131,16.984201,0.969958,-1.090634,575.312517,29.235423,-26.048067,53.983093,-0.039038,0.249818,-0.219907,0.943759,32.896587,2065.136230,1.052246,0.844995,-0.430664,2065.566895,-0.105807,79277.851562,-0.238586,0,0.000000,0, 202
324, 101,4836,-1063112185,1,6437,8.465563,-0.550143,-0.011845,0.015043,0.081243,0.054162,10.654355,-7.095027,14.160659,0.237695,-0.047632,566.212136,0.688715,-30.859973,55.200274,0.025172,0.013161,-0.266463,0.963629,30.138784,2064.909668,0.395020,0.200482,0.061035,2064.848633,0.152728,79282.578125,0.464816,0,0.000000,0, 202
325, 101,10617,-1063033649,1,10577,8.452109,-0.470979,-0.008365,0.019380,0.066379,0.046809,13.056985,-9.017131,16.397524,-0.310418,0.179254,566.422561,2.091262,-31.297337,55.154348,0.017610,0.023879,-0.269208,0.962625,30.306662,2064.795410,0.395020,0.200482,-0.053223,2064.848633,0.113761,79278.453125,-0.462266,0,0.000000,0, 202
326, 101,14808,-1063019825,1,14779,8.448385,-0.458087,-0.006280,0.010812,0.084550,0.045330,13.056985,-9.978183,16.834272,-1.660815,-0.008848,566.400650,2.857113,-31.325689,55.146698,0.015557,0.030249,-0.269171,0.962473,30.469994,2065.197754,0.488281,0.350402,0.349121,2064.848633,-0.067759,79273.484375,0.504689,0,0.000000,0, 202
327, 101,19019,-1063003936,1,18990,8.434023,-0.461143,0.005500,-0.012044,0.076342,0.047978,13.537511,-8.536605,16.529463,0.382067,-0.159716,565.930623,3.929205,-31.398820,55.117578,0.013291,0.039327,-0.269935,0.962074,30.633320,2064.934326,0.588379,0.413326,0.085693,2064.848633,-0.075642,79277.539062,-0.151107,0,0.000000,0, 202
328, 101,23303,-1063002894,1,23293,8.423456,-0.422409,-0.028995,-0.000386,0.065847,0.043143,13.056985,-9.017131,16.397524,1.036526,-0.745294,565.329130,5.085201,-31.585762,55.080797,0.008664,0.048542,-0.270909,0.961341,30.769421,2065.271484,0.588379,0.413326,0.422852,2064.848633,0.091932,79274.703125,1.003168,0,0.000000,0, 202
329, 101,27525,-1062979066,1,27518,8.435687,-0.413263,-0.003863,-0.009154,0.081801,0.043021,12.576459,-9.017131,15.796835,0.156566,-0.061839,566.243173,5.596788,-31.589038,55.070415,0.007386,0.052815,-0.270790,0.961160,30.887371,2065.446533,0.597900,0.413326,0.597900,2064.848633,0.083133,79268.617188,0.773546,0,0.000000,0, 202
330, 101,159170186,17096,2009546085,15989,0.000000,0.000000,0.000000,-129826137644897500282207862784.000000,-268.466431,0.000000,2720763553872249677349980076511330304.000000,0.000000,-225220034560.000000,-0.000000,0.000000,-0.000000,-35284413636035261182279157809152.000000,0.000000,-1009981592934722.125000,0.000000,0.000000,-0.000000,0.000000,3115378115120896577118297797532057600.000000,0.000000,0.000000,-72609818151594637586582858058694656.000000,0.000000,0.058838,-17094356772512178651529216.000000,-423392569512802110652593209344.000000,0.000000,-14206037,-71.618446,101, 202
331, 101,33891,-1062974287,1,33866,8.424032,-0.405142,-0.010014,0.003245,0.072701,0.041164,12.095933,-8.056079,14.985185,0.176402,-1.094750,565.721838,6.873141,-31.718101,55.032238,0.003491,0.063306,-0.270983,0.960341,31.077902,2065.073975,0.597900,0.413326,0.225342,2064.848633,0.040918,79275.460938,-0.418922,0,0.000000,0, 202
332, 101,-1151796504,1058607104,1002384674,-1114793006,0.167725,2064.848633,5.094488,-0.266759,0.010000,0.120000,-0.266759,0.961668,0.006954,775.642238,-489.111431,962.316062,5729.577951,0.000000,0.000000,0.000000,0.000000,0.187102,-0.111759,0.047408,-0.036550,-0.543979,8.471246,0.961668,0.006954,-5.053961,0.000450,0.117997,1103757312,31.105120,167, 202
333, 101,40297,-1063091256,1,40275,8.457766,-0.442435,-0.007454,0.007863,0.074299,0.044420,12.576459,-8.056079,15.631903,-0.410963,0.452091,565.813144,7.942865,-31.327161,55.043955,0.002990,0.072748,-0.267876,0.960730,31.227596,2064.809326,0.597900,0.413326,-0.039307,2064.848633,0.101972,79282.046875,-0.165419,0,0.000000,0, 202
334, 101,44450,-1063033756,1,44444,8.448125,-0.396509,-0.006953,0.010727,0.078229,0.039531,14.018037,-9.017131,17.172632,-0.581379,0.268203,566.038595,9.521337,-31.503097,54.968737,-0.003569,0.085208,-0.268898,0.959385,31.322855,2064.722168,0.597900,0.413326,-0.126465,2064.848633,-0.097773,79276.898438,-0.208485,0,0.000000,0, 202
335, 101,48617,-1063022211,1,48582,8.443778,-0.386788,0.009343,-0.013114,0.076972,0.041068,12.576459,-7.095027,15.312104,-0.187543,-0.147431,565.966687,10.515209,-31.575732,54.920127,-0.005251,0.093721,-0.269064,0.958537,31.422647,2065.001953,0.597900,0.413326,0.153320,2064.848633,0.037790,79275.570312,-0.194788,0,0.000000,0, 202
336, 101,52808,-1063103871,1,52776,8.467991,-0.384477,-0.010259,0.003104,0.077545,0.039498,13.056985,-8.056079,16.165985,0.265775,-0.145657,565.998980,11.637958,-31.400897,54.894176,-0.008517,0.102900,-0.267234,0.958084,31.513365,2065.347168,0.694824,0.544723,0.498535,2064.848633,0.194146,79275.632812,0.263023,0,0.000000,0, 202
